
time,AccelerometerX,AccelerometerY,AccelerometerZ
0.0100,-0.1327,1.0418,0.2676
0.0100,-0.1327,1.0418,0.2676
0.0100,-0.1327,1.0418,0.2676
0.0110,-0.1347,1.0228,0.2561
0.0110,-0.1347,1.0228,0.2561
0.0490,-0.1347,1.0228,0.2561
0.0490,-0.1347,1.0228,0.2561
0.0500,-0.1347,1.0228,0.2561
0.0500,-0.1430,0.9758,0.2671
0.0500,-0.1342,1.0049,0.2879
0.0630,-0.1342,1.0049,0.2879
0.0630,-0.1342,1.0049,0.2879
0.0640,-0.1342,1.0049,0.2879
0.0640,-0.1342,1.0137,0.2852
0.0840,-0.1342,1.0137,0.2852
0.0850,-0.1342,1.0137,0.2852
0.0850,-0.1342,1.0137,0.2852
0.0860,-0.1303,1.0142,0.2693
0.0860,-0.1303,1.0142,0.2693
0.1140,-0.1303,1.0142,0.2693
0.1140,-0.1303,1.0142,0.2693
0.1140,-0.1303,1.0142,0.2693
0.1160,-0.1381,1.0130,0.2598
0.1160,-0.1413,1.0103,0.2635
0.1330,-0.1413,1.0103,0.2635
0.1440,-0.1413,1.0103,0.2635
0.1440,-0.1413,1.0103,0.2635
0.1440,-0.1413,1.0103,0.2635
0.1450,-0.1413,1.0103,0.2703
0.1640,-0.1413,1.0103,0.2703
0.1660,-0.1413,1.0103,0.2703
0.1660,-0.1413,1.0103,0.2703
0.1660,-0.1405,1.0215,0.2725
0.1670,-0.1405,1.0215,0.2725
0.1940,-0.1405,1.0215,0.2725
0.1940,-0.1405,1.0215,0.2725
0.1950,-0.1405,1.0215,0.2725
0.1960,-0.1439,1.0281,0.2691
0.1960,-0.1581,1.0215,0.2669
0.2230,-0.1581,1.0215,0.2669
0.2240,-0.1581,1.0215,0.2669
0.2240,-0.1581,1.0215,0.2669
0.2260,-0.1557,1.0064,0.2671
0.2440,-0.1557,1.0064,0.2671
0.2460,-0.1557,1.0064,0.2671
0.2460,-0.1557,1.0064,0.2671
0.2460,-0.1430,0.9961,0.2735
0.2460,-0.1430,0.9961,0.2735
0.2740,-0.1430,0.9961,0.2735
0.2740,-0.1430,0.9961,0.2735
0.2740,-0.1430,0.9961,0.2735
0.2760,-0.1347,0.9998,0.2832
0.2760,-0.1237,1.0303,0.2896
0.3040,-0.1237,1.0303,0.2896
0.3050,-0.1237,1.0303,0.2896
0.3050,-0.1237,1.0303,0.2896
0.3060,-0.1180,1.0352,0.2718
0.3240,-0.1180,1.0352,0.2718
0.3260,-0.1180,1.0352,0.2718
0.3260,-0.1180,1.0352,0.2718
0.3270,-0.1254,1.0203,0.2571
0.3270,-0.1254,1.0203,0.2571
0.3320,-0.1254,1.0203,0.2571
0.3340,-0.1254,1.0203,0.2571
0.3540,-0.1254,1.0203,0.2571
0.3550,-0.1254,1.0203,0.2571
0.3550,-0.1254,1.0203,0.2571
0.3560,-0.1322,1.0203,0.2808
0.3560,-0.1241,0.9976,0.2766
0.3840,-0.1241,0.9976,0.2766
0.3840,-0.1241,0.9976,0.2766
0.3850,-0.1241,0.9976,0.2766
0.3850,-0.1413,1.0015,0.2730
0.4040,-0.1413,1.0015,0.2730
0.4050,-0.1413,1.0015,0.2730
0.4050,-0.1413,1.0015,0.2730
0.4130,-0.1505,1.0093,0.2788
0.4140,-0.1505,1.0093,0.2788
0.4330,-0.1505,1.0093,0.2788
0.4340,-0.1505,1.0093,0.2788
0.4340,-0.1505,1.0093,0.2788
0.4350,-0.1432,1.0108,0.2705
0.4350,-0.1469,1.0203,0.2625
0.4650,-0.1469,1.0203,0.2625
0.4650,-0.1469,1.0203,0.2625
0.4660,-0.1469,1.0203,0.2625
0.4670,-0.1523,1.0247,0.2556
0.4840,-0.1523,1.0247,0.2556
0.4850,-0.1523,1.0247,0.2556
0.4850,-0.1523,1.0247,0.2556
0.4860,-0.1581,1.0240,0.2581
0.4870,-0.1581,1.0240,0.2581
0.5140,-0.1581,1.0240,0.2581
0.5140,-0.1581,1.0240,0.2581
0.5150,-0.1581,1.0240,0.2581
0.5170,-0.1606,1.0189,0.2608
0.5170,-0.1510,1.0125,0.2617
0.5320,-0.1510,1.0125,0.2617
0.5440,-0.1510,1.0125,0.2617
0.5440,-0.1510,1.0125,0.2617
0.5440,-0.1510,1.0125,0.2617
0.5470,-0.1457,1.0088,0.2676
0.5650,-0.1457,1.0088,0.2676
0.5650,-0.1457,1.0088,0.2676
0.5660,-0.1457,1.0088,0.2676
0.5700,-0.1520,1.0181,0.2581
0.5700,-0.1520,1.0181,0.2581
0.5940,-0.1520,1.0181,0.2581
0.5950,-0.1520,1.0181,0.2581
0.5950,-0.1520,1.0181,0.2581
0.5970,-0.1662,1.0201,0.2591
0.5970,-0.1684,1.0123,0.2525
0.6240,-0.1684,1.0123,0.2525
0.6250,-0.1684,1.0123,0.2525
0.6250,-0.1684,1.0123,0.2525
0.6260,-0.1637,1.0135,0.2473
0.6440,-0.1637,1.0135,0.2473
0.6460,-0.1637,1.0135,0.2473
0.6470,-0.1637,1.0135,0.2473
0.6470,-0.1606,1.0154,0.2542
0.6470,-0.1606,1.0154,0.2542
0.6750,-0.1606,1.0154,0.2542
0.6750,-0.1606,1.0154,0.2542
0.6750,-0.1606,1.0154,0.2542
0.6770,-0.1655,1.0201,0.2503
0.6770,-0.1713,1.0250,0.2493
0.7040,-0.1713,1.0250,0.2493
0.7050,-0.1713,1.0250,0.2493
0.7050,-0.1713,1.0250,0.2493
0.7060,-0.1740,1.0233,0.2527
0.7250,-0.1740,1.0233,0.2527
0.7250,-0.1740,1.0233,0.2527
0.7260,-0.1740,1.0233,0.2527
0.7270,-0.1713,1.0074,0.2515
0.7270,-0.1713,1.0074,0.2515
0.7350,-0.1713,1.0074,0.2515
0.7360,-0.1713,1.0074,0.2515
0.7540,-0.1713,1.0074,0.2515
0.7550,-0.1713,1.0074,0.2515
0.7560,-0.1713,1.0074,0.2515
0.7560,-0.1628,0.9976,0.2493
0.7570,-0.1427,1.0042,0.2503
0.7850,-0.1427,1.0042,0.2503
0.7860,-0.1427,1.0042,0.2503
0.7860,-0.1427,1.0042,0.2503
0.7870,-0.1259,1.0113,0.2461
0.8050,-0.1259,1.0113,0.2461
0.8070,-0.1259,1.0113,0.2461
0.8070,-0.1259,1.0113,0.2461
0.8070,-0.1266,1.0213,0.2437
0.8080,-0.1266,1.0213,0.2437
0.8340,-0.1266,1.0213,0.2437
0.8360,-0.1266,1.0213,0.2437
0.8390,-0.1266,1.0213,0.2437
0.8400,-0.1329,1.0281,0.2449
0.8420,-0.1337,1.0267,0.2454
0.8650,-0.1337,1.0267,0.2454
0.8650,-0.1337,1.0267,0.2454
0.8650,-0.1337,1.0267,0.2454
0.8680,-0.1295,1.0179,0.2439
0.8850,-0.1295,1.0179,0.2439
0.8850,-0.1295,1.0179,0.2439
0.8880,-0.1295,1.0179,0.2439
0.8890,-0.1266,1.0184,0.2397
0.8890,-0.1266,1.0184,0.2397
0.9150,-0.1266,1.0184,0.2397
0.9150,-0.1266,1.0184,0.2397
0.9160,-0.1266,1.0184,0.2397
0.9180,-0.1307,1.0208,0.2339
0.9180,-0.1359,1.0228,0.2324
0.9340,-0.1359,1.0228,0.2324
0.9360,-0.1359,1.0228,0.2324
0.9440,-0.1359,1.0228,0.2324
0.9440,-0.1359,1.0228,0.2324
0.9450,-0.1359,1.0228,0.2324
0.9470,-0.1361,1.0247,0.2314
0.9650,-0.1361,1.0247,0.2314
0.9670,-0.1361,1.0247,0.2314
0.9680,-0.1361,1.0247,0.2314
0.9680,-0.1442,1.0272,0.2344
0.9680,-0.1442,1.0272,0.2344
0.9940,-0.1442,1.0272,0.2344
0.9950,-0.1442,1.0272,0.2344
0.9950,-0.1442,1.0272,0.2344
0.9970,-0.1513,1.0269,0.2344
0.9970,-0.1662,1.0213,0.2353
1.0240,-0.1662,1.0213,0.2353
1.0250,-0.1662,1.0213,0.2353
1.0250,-0.1662,1.0213,0.2353
1.0270,-0.1769,1.0198,0.2356
1.0460,-0.1769,1.0198,0.2356
1.0500,-0.1769,1.0198,0.2356
1.0500,-0.1769,1.0198,0.2356
1.0500,-0.1840,1.0223,0.2307
1.0510,-0.1840,1.0223,0.2307
1.0760,-0.1840,1.0223,0.2307
1.0770,-0.1840,1.0223,0.2307
1.0770,-0.1840,1.0223,0.2307
1.0770,-0.1950,1.0365,0.2207
1.0770,-0.2031,1.0401,0.2178
1.1060,-0.2031,1.0401,0.2178
1.1060,-0.2031,1.0401,0.2178
1.1060,-0.2031,1.0401,0.2178
1.1070,-0.2041,1.0389,0.2185
1.1280,-0.2041,1.0389,0.2185
1.1290,-0.2041,1.0389,0.2185
1.1290,-0.2041,1.0389,0.2185
1.1360,-0.1940,1.0299,0.2234
1.1370,-0.1940,1.0299,0.2234
1.1370,-0.1940,1.0299,0.2234
1.1570,-0.1940,1.0299,0.2234
1.1580,-0.1940,1.0299,0.2234
1.1580,-0.1940,1.0299,0.2234
1.1580,-0.1755,1.0179,0.2336
1.1580,-0.1547,1.0142,0.2329
1.1880,-0.1547,1.0142,0.2329
1.1880,-0.1547,1.0142,0.2329
1.1880,-0.1547,1.0142,0.2329
1.1890,-0.1501,1.0152,0.2285
1.2080,-0.1501,1.0152,0.2285
1.2080,-0.1501,1.0152,0.2285
1.2080,-0.1501,1.0152,0.2285
1.2110,-0.1598,1.0228,0.2295
1.2110,-0.1598,1.0228,0.2295
1.2360,-0.1598,1.0228,0.2295
1.2370,-0.1598,1.0228,0.2295
1.2370,-0.1598,1.0228,0.2295
1.2370,-0.1659,1.0237,0.2285
1.2380,-0.1657,1.0147,0.2258
1.2670,-0.1657,1.0147,0.2258
1.2670,-0.1657,1.0147,0.2258
1.2680,-0.1657,1.0147,0.2258
1.2680,-0.1591,1.0152,0.2251
1.2880,-0.1591,1.0152,0.2251
1.2880,-0.1591,1.0152,0.2251
1.2890,-0.1591,1.0152,0.2251
1.2920,-0.1545,1.0230,0.2217
1.2930,-0.1545,1.0230,0.2217
1.3180,-0.1545,1.0230,0.2217
1.3180,-0.1545,1.0230,0.2217
1.3180,-0.1545,1.0230,0.2217
1.3190,-0.1593,1.0325,0.2160
1.3190,-0.1699,1.0369,0.2063
1.3340,-0.1699,1.0369,0.2063
1.3470,-0.1699,1.0369,0.2063
1.3470,-0.1699,1.0369,0.2063
1.3480,-0.1699,1.0369,0.2063
1.3480,-0.1703,1.0328,0.2087
1.3680,-0.1703,1.0328,0.2087
1.3680,-0.1703,1.0328,0.2087
1.3690,-0.1703,1.0328,0.2087
1.3720,-0.1725,1.0350,0.2097
1.3720,-0.1725,1.0350,0.2097
1.3970,-0.1725,1.0350,0.2097
1.3980,-0.1725,1.0350,0.2097
1.3980,-0.1725,1.0350,0.2097
1.3980,-0.1718,1.0313,0.2085
1.3990,-0.1659,1.0267,0.2070
1.4280,-0.1659,1.0267,0.2070
1.4280,-0.1659,1.0267,0.2070
1.4290,-0.1659,1.0267,0.2070
1.4290,-0.1669,1.0245,0.2087
1.4480,-0.1669,1.0245,0.2087
1.4490,-0.1669,1.0245,0.2087
1.4490,-0.1669,1.0245,0.2087
1.4520,-0.1742,1.0189,0.2080
1.4530,-0.1742,1.0189,0.2080
1.4790,-0.1742,1.0189,0.2080
1.4800,-0.1742,1.0189,0.2080
1.4800,-0.1742,1.0189,0.2080
1.4810,-0.1789,1.0169,0.2085
1.4810,-0.1808,1.0225,0.2146
1.5070,-0.1808,1.0225,0.2146
1.5080,-0.1808,1.0225,0.2146
1.5080,-0.1808,1.0225,0.2146
1.5080,-0.1786,1.0228,0.2180
1.5240,-0.1786,1.0228,0.2180
1.5250,-0.1786,1.0228,0.2180
1.5250,-0.1786,1.0228,0.2180
1.5270,-0.1750,1.0213,0.2129
1.5270,-0.1750,1.0213,0.2129
1.5310,-0.1750,1.0213,0.2129
1.5350,-0.1750,1.0213,0.2129
1.5560,-0.1750,1.0213,0.2129
1.5560,-0.1750,1.0213,0.2129
1.5560,-0.1750,1.0213,0.2129
1.5590,-0.1681,1.0237,0.2080
1.5590,-0.1618,1.0279,0.2082
1.5860,-0.1618,1.0279,0.2082
1.5860,-0.1618,1.0279,0.2082
1.5860,-0.1618,1.0279,0.2082
1.5870,-0.1625,1.0262,0.2109
1.6060,-0.1625,1.0262,0.2109
1.6070,-0.1625,1.0262,0.2109
1.6070,-0.1625,1.0262,0.2109
1.6090,-0.1762,1.0426,0.2041
1.6090,-0.1762,1.0426,0.2041
1.6360,-0.1762,1.0426,0.2041
1.6360,-0.1762,1.0426,0.2041
1.6370,-0.1762,1.0426,0.2041
1.6380,-0.1850,1.0360,0.2116
1.6380,-0.1838,1.0272,0.2156
1.6670,-0.1838,1.0272,0.2156
1.6680,-0.1838,1.0272,0.2156
1.6690,-0.1838,1.0272,0.2156
1.6700,-0.1760,1.0252,0.2131
1.6880,-0.1760,1.0252,0.2131
1.6890,-0.1760,1.0252,0.2131
1.6910,-0.1760,1.0252,0.2131
1.6920,-0.1664,1.0279,0.2124
1.6930,-0.1664,1.0279,0.2124
1.7170,-0.1664,1.0279,0.2124
1.7180,-0.1664,1.0279,0.2124
1.7190,-0.1664,1.0279,0.2124
1.7200,-0.1696,1.0264,0.2109
1.7210,-0.1779,1.0225,0.2112
1.7340,-0.1779,1.0225,0.2112
1.7480,-0.1779,1.0225,0.2112
1.7490,-0.1779,1.0225,0.2112
1.7500,-0.1779,1.0225,0.2112
1.7510,-0.1762,1.0237,0.2168
1.7680,-0.1762,1.0237,0.2168
1.7690,-0.1762,1.0237,0.2168
1.7710,-0.1762,1.0237,0.2168
1.7720,-0.1681,1.0220,0.2158
1.7730,-0.1681,1.0220,0.2158
1.7970,-0.1681,1.0220,0.2158
1.7980,-0.1681,1.0220,0.2158
1.7990,-0.1681,1.0220,0.2158
1.8000,-0.1664,1.0257,0.2082
1.8010,-0.1655,1.0323,0.2065
1.8280,-0.1655,1.0323,0.2065
1.8290,-0.1655,1.0323,0.2065
1.8300,-0.1655,1.0323,0.2065
1.8320,-0.1633,1.0318,0.2068
1.8490,-0.1633,1.0318,0.2068
1.8500,-0.1633,1.0318,0.2068
1.8510,-0.1633,1.0318,0.2068
1.8520,-0.1655,1.0289,0.2036
1.8530,-0.1655,1.0289,0.2036
1.8780,-0.1655,1.0289,0.2036
1.8790,-0.1655,1.0289,0.2036
1.8790,-0.1655,1.0289,0.2036
1.8800,-0.1657,1.0230,0.2043
1.8810,-0.1645,1.0255,0.2024
1.9080,-0.1645,1.0255,0.2024
1.9090,-0.1645,1.0255,0.2024
1.9100,-0.1645,1.0255,0.2024
1.9110,-0.1679,1.0347,0.1999
1.9290,-0.1679,1.0347,0.1999
1.9300,-0.1679,1.0347,0.1999
1.9300,-0.1679,1.0347,0.1999
1.9320,-0.1713,1.0377,0.1975
1.9350,-0.1713,1.0377,0.1975
1.9360,-0.1713,1.0377,0.1975
1.9580,-0.1713,1.0377,0.1975
1.9590,-0.1713,1.0377,0.1975
1.9600,-0.1713,1.0377,0.1975
1.9610,-0.1747,1.0367,0.1909
1.9620,-0.1784,1.0311,0.1955
1.9880,-0.1784,1.0311,0.1955
1.9890,-0.1784,1.0311,0.1955
1.9900,-0.1784,1.0311,0.1955
1.9910,-0.1791,1.0252,0.2026
2.0090,-0.1791,1.0252,0.2026
2.0100,-0.1791,1.0252,0.2026
2.0130,-0.1791,1.0252,0.2026
2.0170,-0.1757,1.0250,0.2109
2.0170,-0.1757,1.0250,0.2109
2.0370,-0.1757,1.0250,0.2109
2.0380,-0.1757,1.0250,0.2109
2.0390,-0.1757,1.0250,0.2109
2.1550,-0.1769,1.0252,0.2131
2.1570,-0.1801,1.0203,0.2063
2.1590,-0.1801,1.0203,0.2063
2.1630,-0.1801,1.0203,0.2063
2.1880,-0.1801,1.0203,0.2063
2.1880,-0.1801,1.0203,0.2063
2.1890,-0.1801,1.0203,0.2063
2.1890,-0.1801,1.0203,0.2063
2.1900,-0.1801,1.0203,0.2063
2.1900,-0.1801,1.0203,0.2063
2.1900,-0.1801,1.0203,0.2063
2.1910,-0.1801,1.0203,0.2063
2.1910,-0.1801,1.0203,0.2063
2.1920,-0.1801,1.0203,0.2063
2.1920,-0.1801,1.0203,0.2063
2.1920,-0.1801,1.0203,0.2063
2.1930,-0.1801,1.0203,0.2063
2.1930,-0.1755,1.0208,0.2058
2.1930,-0.1689,1.0250,0.2036
2.1940,-0.1691,1.0294,0.2070
2.1940,-0.1760,1.0308,0.2048
2.1950,-0.1848,1.0257,0.2070
2.1950,-0.1879,1.0220,0.2136
2.1950,-0.1879,1.0220,0.2136
2.1960,-0.1879,1.0220,0.2136
2.1960,-0.1879,1.0220,0.2136
2.1970,-0.1879,1.0220,0.2136
2.1970,-0.1879,1.0220,0.2136
2.1970,-0.1769,1.0233,0.2143
2.2170,-0.1769,1.0233,0.2143
2.2170,-0.1769,1.0233,0.2143
2.2170,-0.1769,1.0233,0.2143
2.2210,-0.1728,1.0237,0.2121
2.2210,-0.1691,1.0230,0.2114
2.2390,-0.1691,1.0230,0.2114
2.2400,-0.1691,1.0230,0.2114
2.2410,-0.1691,1.0230,0.2114
2.2440,-0.1598,1.0279,0.2146
2.2450,-0.1598,1.0279,0.2146
2.2700,-0.1598,1.0279,0.2146
2.2710,-0.1598,1.0279,0.2146
2.2720,-0.1598,1.0279,0.2146
2.2720,-0.1589,1.0240,0.2129
2.2990,-0.1589,1.0240,0.2129
2.2990,-0.1589,1.0240,0.2129
2.3000,-0.1589,1.0240,0.2129
2.3010,-0.1591,1.0196,0.2102
2.3010,-0.1601,1.0242,0.2134
2.3200,-0.1601,1.0242,0.2134
2.3210,-0.1601,1.0242,0.2134
2.3220,-0.1601,1.0242,0.2134
2.3230,-0.1696,1.0306,0.2085
2.3240,-0.1696,1.0306,0.2085
2.3370,-0.1696,1.0306,0.2085
2.3480,-0.1696,1.0306,0.2085
2.3490,-0.1696,1.0306,0.2085
2.3500,-0.1696,1.0306,0.2085
2.3510,-0.1794,1.0286,0.2043
2.3850,-0.1794,1.0286,0.2043
2.3860,-0.1794,1.0286,0.2043
2.3870,-0.1794,1.0286,0.2043
2.3870,-0.1757,1.0255,0.2136
2.3890,-0.1655,1.0279,0.2168
2.4000,-0.1655,1.0279,0.2168
2.4020,-0.1655,1.0279,0.2168
2.4030,-0.1655,1.0279,0.2168
2.4030,-0.1579,1.0215,0.2173
2.4040,-0.1579,1.0215,0.2173
2.4330,-0.1579,1.0215,0.2173
2.4340,-0.1579,1.0215,0.2173
2.4350,-0.1579,1.0215,0.2173
2.4360,-0.1586,1.0193,0.2151
2.4600,-0.1586,1.0193,0.2151
2.4620,-0.1586,1.0193,0.2151
2.4630,-0.1586,1.0193,0.2151
2.4640,-0.1635,1.0150,0.2143
2.4650,-0.1730,1.0191,0.2109
2.4850,-0.1730,1.0191,0.2109
2.4860,-0.1730,1.0191,0.2109
2.4860,-0.1730,1.0191,0.2109
2.4870,-0.1813,1.0269,0.2121
2.4870,-0.1813,1.0269,0.2121
2.5080,-0.1813,1.0269,0.2121
2.5090,-0.1813,1.0269,0.2121
2.5090,-0.1813,1.0269,0.2121
2.5100,-0.1779,1.0318,0.2124
2.5330,-0.1779,1.0318,0.2124
2.5390,-0.1779,1.0318,0.2124
2.5390,-0.1779,1.0318,0.2124
2.5400,-0.1779,1.0318,0.2124
2.5430,-0.1740,1.0321,0.2156
2.5430,-0.1681,1.0262,0.2165
2.5580,-0.1681,1.0262,0.2165
2.5590,-0.1681,1.0262,0.2165
2.5590,-0.1681,1.0262,0.2165
2.5620,-0.1625,1.0206,0.2143
2.5620,-0.1625,1.0206,0.2143
2.5910,-0.1625,1.0206,0.2143
2.5930,-0.1625,1.0206,0.2143
2.5930,-0.1625,1.0206,0.2143
2.5940,-0.1596,1.0240,0.2180
2.6180,-0.1596,1.0240,0.2180
2.6190,-0.1596,1.0240,0.2180
2.6200,-0.1596,1.0240,0.2180
2.6420,-0.1642,1.0208,0.2217
2.6430,-0.1735,1.0237,0.2153
2.6460,-0.1735,1.0237,0.2153
2.6460,-0.1735,1.0237,0.2153
2.6470,-0.1735,1.0237,0.2153
2.6480,-0.1813,1.0247,0.2129
2.6480,-0.1813,1.0247,0.2129
2.6670,-0.1813,1.0247,0.2129
2.6670,-0.1813,1.0247,0.2129
2.6670,-0.1813,1.0247,0.2129
2.6680,-0.1838,1.0264,0.2129
2.7000,-0.1838,1.0264,0.2129
2.7000,-0.1838,1.0264,0.2129
2.7010,-0.1838,1.0264,0.2129
2.7020,-0.1862,1.0277,0.2097
2.7030,-0.1906,1.0303,0.2094
2.7190,-0.1906,1.0303,0.2094
2.7200,-0.1906,1.0303,0.2094
2.7210,-0.1906,1.0303,0.2094
2.7220,-0.1916,1.0245,0.2143
2.7230,-0.1916,1.0245,0.2143
2.7370,-0.1916,1.0245,0.2143
2.7470,-0.1916,1.0245,0.2143
2.7480,-0.1916,1.0245,0.2143
2.7490,-0.1916,1.0245,0.2143
2.7500,-0.1877,1.0196,0.2192
2.7800,-0.1877,1.0196,0.2192
2.7820,-0.1877,1.0196,0.2192
2.7820,-0.1877,1.0196,0.2192
2.7830,-0.1801,1.0167,0.2226
2.7840,-0.1742,1.0162,0.2195
2.7990,-0.1742,1.0162,0.2195
2.8000,-0.1742,1.0162,0.2195
2.8010,-0.1742,1.0162,0.2195
2.8030,-0.1721,1.0201,0.2134
2.8040,-0.1721,1.0201,0.2134
2.8290,-0.1721,1.0201,0.2134
2.8300,-0.1721,1.0201,0.2134
2.8310,-0.1721,1.0201,0.2134
2.8330,-0.1735,1.0255,0.2134
2.8590,-0.1735,1.0255,0.2134
2.8600,-0.1735,1.0255,0.2134
2.8610,-0.1735,1.0255,0.2134
2.8620,-0.1721,1.0259,0.2178
2.8630,-0.1708,1.0223,0.2187
2.8780,-0.1708,1.0223,0.2187
2.8790,-0.1708,1.0223,0.2187
2.8800,-0.1708,1.0223,0.2187
2.8810,-0.1691,1.0237,0.2204
2.8810,-0.1691,1.0237,0.2204
2.9080,-0.1691,1.0237,0.2204
2.9090,-0.1691,1.0237,0.2204
2.9090,-0.1691,1.0237,0.2204
2.9100,-0.1640,1.0245,0.2190
2.9320,-0.1640,1.0245,0.2190
2.9380,-0.1640,1.0245,0.2190
2.9390,-0.1640,1.0245,0.2190
2.9400,-0.1640,1.0245,0.2190
2.9410,-0.1664,1.0247,0.2148
2.9420,-0.1711,1.0299,0.2124
2.9590,-0.1711,1.0299,0.2124
2.9600,-0.1711,1.0299,0.2124
2.9610,-0.1711,1.0299,0.2124
2.9620,-0.1786,1.0296,0.2109
2.9630,-0.1786,1.0296,0.2109
2.9890,-0.1786,1.0296,0.2109
2.9900,-0.1786,1.0296,0.2109
2.9910,-0.1786,1.0296,0.2109
2.9930,-0.1838,1.0233,0.2102
3.0190,-0.1838,1.0233,0.2102
3.0200,-0.1838,1.0233,0.2102
3.0200,-0.1838,1.0233,0.2102
3.0210,-0.1782,1.0240,0.2143
3.0220,-0.1735,1.0206,0.2170
3.0400,-0.1735,1.0206,0.2170
3.0410,-0.1735,1.0206,0.2170
3.0410,-0.1735,1.0206,0.2170
3.0420,-0.1669,1.0179,0.2187
3.0430,-0.1669,1.0179,0.2187
3.0670,-0.1669,1.0179,0.2187
3.0680,-0.1669,1.0179,0.2187
3.0690,-0.1669,1.0179,0.2187
3.0690,-0.1655,1.0179,0.2173
3.1010,-0.1655,1.0179,0.2173
3.1020,-0.1655,1.0179,0.2173
3.1020,-0.1655,1.0179,0.2173
3.1030,-0.1640,1.0240,0.2158
3.1030,-0.1684,1.0291,0.2168
3.1180,-0.1684,1.0291,0.2168
3.1190,-0.1684,1.0291,0.2168
3.1200,-0.1684,1.0291,0.2168
3.1200,-0.1689,1.0291,0.2173
3.1210,-0.1689,1.0291,0.2173
3.1320,-0.1689,1.0291,0.2173
3.1490,-0.1689,1.0291,0.2173
3.1500,-0.1689,1.0291,0.2173
3.1500,-0.1689,1.0291,0.2173
3.1510,-0.1652,1.0206,0.2200
3.1800,-0.1652,1.0206,0.2200
3.1810,-0.1652,1.0206,0.2200
3.2070,-0.1652,1.0206,0.2200
3.2080,-0.1623,1.0176,0.2214
3.2090,-0.1613,1.0237,0.2168
3.2100,-0.1613,1.0237,0.2168
3.2100,-0.1613,1.0237,0.2168
3.2120,-0.1613,1.0237,0.2168
3.2120,-0.1664,1.0281,0.2163
3.2130,-0.1664,1.0281,0.2163
3.2280,-0.1664,1.0281,0.2163
3.2290,-0.1664,1.0281,0.2163
3.2290,-0.1664,1.0281,0.2163
3.2300,-0.1786,1.0274,0.2151
3.2600,-0.1786,1.0274,0.2151
3.2610,-0.1786,1.0274,0.2151
3.2620,-0.1786,1.0274,0.2151
3.2620,-0.1826,1.0257,0.2192
3.2630,-0.1806,1.0250,0.2214
3.2780,-0.1806,1.0250,0.2214
3.2790,-0.1806,1.0250,0.2214
3.2800,-0.1806,1.0250,0.2214
3.2810,-0.1762,1.0252,0.2195
3.2820,-0.1762,1.0252,0.2195
3.3090,-0.1762,1.0252,0.2195
3.3100,-0.1762,1.0252,0.2195
3.3110,-0.1762,1.0252,0.2195
3.3120,-0.1691,1.0250,0.2170
3.3320,-0.1691,1.0250,0.2170
3.3370,-0.1691,1.0250,0.2170
3.3380,-0.1691,1.0250,0.2170
3.3390,-0.1691,1.0250,0.2170
3.3390,-0.1650,1.0259,0.2163
3.3400,-0.1642,1.0255,0.2175
3.3600,-0.1642,1.0255,0.2175
3.3610,-0.1642,1.0255,0.2175
3.3620,-0.1642,1.0255,0.2175
3.3620,-0.1679,1.0267,0.2175
3.3630,-0.1679,1.0267,0.2175
3.3900,-0.1679,1.0267,0.2175
3.3900,-0.1679,1.0267,0.2175
3.3910,-0.1679,1.0267,0.2175
3.3920,-0.1689,1.0240,0.2202
3.4200,-0.1689,1.0240,0.2202
3.4210,-0.1689,1.0240,0.2202
3.4210,-0.1689,1.0240,0.2202
3.4220,-0.1716,1.0220,0.2178
3.4220,-0.1760,1.0247,0.2187
3.4400,-0.1760,1.0247,0.2187
3.4410,-0.1760,1.0247,0.2187
3.4420,-0.1760,1.0247,0.2187
3.4430,-0.1779,1.0272,0.2200
3.4430,-0.1779,1.0272,0.2200
3.4700,-0.1779,1.0272,0.2200
3.4700,-0.1779,1.0272,0.2200
3.4710,-0.1779,1.0272,0.2200
3.4720,-0.1784,1.0247,0.2160
3.5020,-0.1784,1.0247,0.2160
3.5030,-0.1784,1.0247,0.2160
3.5030,-0.1784,1.0247,0.2160
3.5040,-0.1774,1.0245,0.2182
3.5050,-0.1745,1.0255,0.2192
3.5210,-0.1745,1.0255,0.2192
3.5220,-0.1745,1.0255,0.2192
3.5230,-0.1745,1.0255,0.2192
3.5230,-0.1708,1.0233,0.2192
3.5240,-0.1708,1.0233,0.2192
3.5370,-0.1708,1.0233,0.2192
3.5480,-0.1708,1.0233,0.2192
3.5490,-0.1708,1.0233,0.2192
3.5490,-0.1708,1.0233,0.2192
3.5500,-0.1684,1.0264,0.2219
3.5800,-0.1684,1.0264,0.2219
3.5800,-0.1684,1.0264,0.2219
3.5810,-0.1684,1.0264,0.2219
3.5820,-0.1674,1.0211,0.2209
3.5820,-0.1730,1.0206,0.2185
3.5980,-0.1730,1.0206,0.2185
3.6000,-0.1730,1.0206,0.2185
3.6010,-0.1730,1.0206,0.2185
3.6020,-0.1762,1.0259,0.2195
3.6030,-0.1762,1.0259,0.2195
3.6290,-0.1762,1.0259,0.2195
3.6300,-0.1762,1.0259,0.2195
3.6310,-0.1762,1.0259,0.2195
3.6320,-0.1760,1.0269,0.2192
3.6600,-0.1760,1.0269,0.2192
3.6600,-0.1760,1.0269,0.2192
3.6610,-0.1760,1.0269,0.2192
3.6610,-0.1774,1.0240,0.2192
3.6620,-0.1779,1.0201,0.2163
3.6790,-0.1779,1.0201,0.2163
3.6800,-0.1779,1.0201,0.2163
3.6820,-0.1779,1.0201,0.2163
3.6820,-0.1764,1.0233,0.2170
3.6830,-0.1764,1.0233,0.2170
3.7130,-0.1764,1.0233,0.2170
3.7140,-0.1764,1.0233,0.2170
3.7140,-0.1764,1.0233,0.2170
3.7150,-0.1782,1.0272,0.2195
3.7330,-0.1782,1.0272,0.2195
3.7370,-0.1782,1.0272,0.2195
3.7580,-0.1782,1.0272,0.2195
3.7580,-0.1782,1.0272,0.2195
3.7590,-0.1725,1.0274,0.2192
3.7590,-0.1694,1.0211,0.2165
3.7600,-0.1694,1.0211,0.2165
3.7600,-0.1694,1.0211,0.2165
3.7630,-0.1694,1.0211,0.2165
3.7640,-0.1735,1.0184,0.2151
3.7640,-0.1735,1.0184,0.2151
3.7870,-0.1735,1.0184,0.2151
3.7880,-0.1735,1.0184,0.2151
3.7880,-0.1735,1.0184,0.2151
3.7890,-0.1806,1.0259,0.2146
3.8190,-0.1806,1.0259,0.2146
3.8190,-0.1806,1.0259,0.2146
3.8200,-0.1806,1.0259,0.2146
3.8210,-0.1816,1.0286,0.2146
3.8220,-0.1796,1.0257,0.2126
3.8380,-0.1796,1.0257,0.2126
3.8390,-0.1796,1.0257,0.2126
3.8400,-0.1796,1.0257,0.2126
3.8410,-0.1782,1.0237,0.2121
3.8420,-0.1782,1.0237,0.2121
3.8690,-0.1782,1.0237,0.2121
3.8700,-0.1782,1.0237,0.2121
3.8700,-0.1782,1.0237,0.2121
3.8710,-0.1762,1.0245,0.2151
3.8980,-0.1762,1.0245,0.2151
3.8980,-0.1762,1.0245,0.2151
3.8990,-0.1762,1.0245,0.2151
3.9000,-0.1779,1.0242,0.2153
3.9010,-0.1747,1.0255,0.2107
3.9190,-0.1747,1.0255,0.2107
3.9200,-0.1747,1.0255,0.2107
3.9210,-0.1747,1.0255,0.2107
3.9220,-0.1721,1.0281,0.2141
3.9220,-0.1721,1.0281,0.2141
3.9320,-0.1721,1.0281,0.2141
3.9490,-0.1721,1.0281,0.2141
3.9490,-0.1721,1.0281,0.2141
3.9500,-0.1721,1.0281,0.2141
3.9510,-0.1745,1.0262,0.2151
3.9810,-0.1745,1.0262,0.2151
3.9820,-0.1745,1.0262,0.2151
3.9820,-0.1745,1.0262,0.2151
3.9830,-0.1747,1.0225,0.2138
3.9840,-0.1723,1.0228,0.2182
3.9990,-0.1723,1.0228,0.2182
4.0000,-0.1723,1.0228,0.2182
4.0010,-0.1723,1.0228,0.2182
4.0020,-0.1681,1.0206,0.2190
4.0030,-0.1681,1.0206,0.2190
4.0290,-0.1681,1.0206,0.2190
4.0300,-0.1681,1.0206,0.2190
4.0310,-0.1681,1.0206,0.2190
4.0320,-0.1655,1.0242,0.2204
4.0610,-0.1655,1.0242,0.2204
4.0620,-0.1655,1.0242,0.2204
4.0620,-0.1655,1.0242,0.2204
4.0630,-0.1642,1.0250,0.2212
4.0630,-0.1645,1.0228,0.2197
4.0800,-0.1645,1.0228,0.2197
4.0810,-0.1645,1.0228,0.2197
4.0810,-0.1645,1.0228,0.2197
4.0820,-0.1674,1.0240,0.2182
4.0830,-0.1674,1.0240,0.2182
4.1090,-0.1674,1.0240,0.2182
4.1090,-0.1674,1.0240,0.2182
4.1090,-0.1674,1.0240,0.2182
4.1090,-0.1691,1.0269,0.2170
4.1360,-0.1691,1.0269,0.2170
4.1370,-0.1691,1.0269,0.2170
4.1370,-0.1691,1.0269,0.2170
4.1380,-0.1691,1.0269,0.2170
4.1390,-0.1723,1.0279,0.2195
4.1400,-0.1718,1.0242,0.2265
4.1600,-0.1718,1.0242,0.2265
4.1600,-0.1718,1.0242,0.2265
4.1610,-0.1718,1.0242,0.2265
4.1610,-0.1674,1.0215,0.2253
4.1610,-0.1674,1.0215,0.2253
4.1900,-0.1674,1.0215,0.2253
4.1900,-0.1674,1.0215,0.2253
4.1910,-0.1674,1.0215,0.2253
4.1910,-0.1667,1.0196,0.2234
4.2200,-0.1667,1.0196,0.2234
4.2210,-0.1667,1.0196,0.2234
4.2210,-0.1667,1.0196,0.2234
4.2210,-0.1650,1.0220,0.2268
4.2220,-0.1659,1.0235,0.2280
4.2410,-0.1659,1.0235,0.2280
4.2410,-0.1659,1.0235,0.2280
4.2420,-0.1659,1.0235,0.2280
4.2420,-0.1677,1.0223,0.2292
4.2420,-0.1677,1.0223,0.2292
4.2720,-0.1677,1.0223,0.2292
4.2720,-0.1677,1.0223,0.2292
4.2730,-0.1677,1.0223,0.2292
4.2730,-0.1696,1.0220,0.2283
4.3020,-0.1696,1.0220,0.2283
4.3180,-0.1696,1.0220,0.2283
4.3190,-0.1696,1.0220,0.2283
4.3190,-0.1684,1.0220,0.2263
4.3190,-0.1691,1.0206,0.2239
4.3200,-0.1691,1.0206,0.2239
4.3200,-0.1691,1.0206,0.2239
4.3200,-0.1691,1.0206,0.2239
4.3210,-0.1750,1.0245,0.2239
4.3210,-0.1750,1.0245,0.2239
4.3330,-0.1750,1.0245,0.2239
4.3500,-0.1750,1.0245,0.2239
4.3500,-0.1750,1.0245,0.2239
4.3500,-0.1750,1.0245,0.2239
4.3500,-0.1760,1.0294,0.2246
4.3790,-0.1760,1.0294,0.2246
4.3790,-0.1760,1.0294,0.2246
4.3800,-0.1760,1.0294,0.2246
4.3800,-0.1755,1.0274,0.2226
4.3800,-0.1764,1.0228,0.2192
4.4000,-0.1764,1.0228,0.2192
4.4000,-0.1764,1.0228,0.2192
4.4000,-0.1764,1.0228,0.2192
4.4010,-0.1769,1.0196,0.2178
4.4010,-0.1769,1.0196,0.2178
4.4310,-0.1769,1.0196,0.2178
4.4310,-0.1769,1.0196,0.2178
4.4310,-0.1769,1.0196,0.2178
4.4310,-0.1747,1.0174,0.2187
4.4600,-0.1747,1.0174,0.2187
4.4610,-0.1747,1.0174,0.2187
4.4610,-0.1747,1.0174,0.2187
4.4620,-0.1745,1.0193,0.2209
4.4620,-0.1684,1.0172,0.2265
4.4820,-0.1684,1.0172,0.2265
4.4820,-0.1684,1.0172,0.2265
4.4830,-0.1684,1.0172,0.2265
4.4830,-0.1659,1.0147,0.2256
4.4830,-0.1659,1.0147,0.2256
4.5130,-0.1659,1.0147,0.2256
4.5130,-0.1659,1.0147,0.2256
4.5140,-0.1659,1.0147,0.2256
4.5140,-0.1659,1.0189,0.2248
4.5360,-0.1659,1.0189,0.2248
4.5410,-0.1659,1.0189,0.2248
4.5420,-0.1659,1.0189,0.2248
4.5420,-0.1659,1.0189,0.2248
4.5420,-0.1637,1.0242,0.2192
4.5430,-0.1645,1.0299,0.2170
4.5630,-0.1645,1.0299,0.2170
4.5630,-0.1645,1.0299,0.2170
4.5630,-0.1645,1.0299,0.2170
4.5670,-0.1686,1.0279,0.2156
4.5670,-0.1686,1.0279,0.2156
4.5920,-0.1686,1.0279,0.2156
4.5920,-0.1686,1.0279,0.2156
4.5930,-0.1686,1.0279,0.2156
4.5930,-0.1745,1.0242,0.2151
4.6230,-0.1745,1.0242,0.2151
4.6230,-0.1745,1.0242,0.2151
4.6240,-0.1745,1.0242,0.2151
4.6240,-0.1772,1.0250,0.2190
4.6240,-0.1706,1.0228,0.2241
4.6430,-0.1706,1.0228,0.2241
4.6440,-0.1706,1.0228,0.2241
4.6440,-0.1706,1.0228,0.2241
4.6470,-0.1664,1.0208,0.2229
4.6470,-0.1664,1.0208,0.2229
4.6740,-0.1664,1.0208,0.2229
4.6740,-0.1664,1.0208,0.2229
4.6750,-0.1664,1.0208,0.2229
4.6750,-0.1652,1.0215,0.2217
4.7020,-0.1652,1.0215,0.2217
4.7020,-0.1652,1.0215,0.2217
4.7020,-0.1652,1.0215,0.2217
4.7020,-0.1659,1.0245,0.2226
4.7030,-0.1650,1.0262,0.2243
4.7220,-0.1650,1.0262,0.2243
4.7220,-0.1650,1.0262,0.2243
4.7230,-0.1650,1.0262,0.2243
4.7250,-0.1681,1.0247,0.2236
4.7250,-0.1681,1.0247,0.2236
4.7330,-0.1681,1.0247,0.2236
4.7520,-0.1681,1.0247,0.2236
4.7520,-0.1681,1.0247,0.2236
4.7520,-0.1681,1.0247,0.2236
4.7530,-0.1684,1.0213,0.2209
4.7820,-0.1684,1.0213,0.2209
4.7820,-0.1684,1.0213,0.2209
4.7820,-0.1684,1.0213,0.2209
4.7830,-0.1699,1.0235,0.2202
4.7830,-0.1716,1.0215,0.2204
4.8020,-0.1716,1.0215,0.2204
4.8020,-0.1716,1.0215,0.2204
4.8030,-0.1716,1.0215,0.2204
4.8050,-0.1728,1.0262,0.2214
4.8060,-0.1728,1.0262,0.2214
4.8320,-0.1728,1.0262,0.2214
4.8330,-0.1728,1.0262,0.2214
4.8330,-0.1728,1.0262,0.2214
4.8330,-0.1733,1.0274,0.2248
4.8590,-0.1733,1.0274,0.2248
4.8600,-0.1733,1.0274,0.2248
4.8600,-0.1733,1.0274,0.2248
4.8630,-0.1716,1.0218,0.2258
4.8630,-0.1713,1.0215,0.2207
4.8790,-0.1713,1.0215,0.2207
4.8800,-0.1713,1.0215,0.2207
4.8800,-0.1713,1.0215,0.2207
4.8820,-0.1681,1.0269,0.2209
4.8820,-0.1681,1.0269,0.2209
4.9120,-0.1681,1.0269,0.2209
4.9120,-0.1681,1.0269,0.2209
4.9130,-0.1681,1.0269,0.2209
4.9130,-0.1662,1.0272,0.2219
4.9370,-0.1662,1.0272,0.2219
4.9400,-0.1662,1.0272,0.2219
4.9410,-0.1662,1.0272,0.2219
4.9420,-0.1662,1.0272,0.2219
4.9420,-0.1708,1.0274,0.2217
4.9420,-0.1684,1.0281,0.2229
4.9620,-0.1684,1.0281,0.2229
4.9620,-0.1684,1.0281,0.2229
4.9630,-0.1684,1.0281,0.2229
4.9650,-0.1694,1.0237,0.2236
4.9650,-0.1694,1.0237,0.2236
4.9930,-0.1694,1.0237,0.2236
4.9930,-0.1694,1.0237,0.2236
4.9940,-0.1694,1.0237,0.2236
4.9940,-0.1672,1.0203,0.2234
5.0200,-0.1672,1.0203,0.2234
5.0210,-0.1672,1.0203,0.2234
5.0210,-0.1672,1.0203,0.2234
5.0210,-0.1659,1.0242,0.2246
5.0210,-0.1618,1.0223,0.2229
5.0430,-0.1618,1.0223,0.2229
5.0430,-0.1618,1.0223,0.2229
5.0460,-0.1618,1.0223,0.2229
5.0460,-0.1593,1.0213,0.2229
5.0470,-0.1593,1.0213,0.2229
5.0730,-0.1593,1.0213,0.2229
5.0740,-0.1593,1.0213,0.2229
5.0740,-0.1593,1.0213,0.2229
5.0740,-0.1625,1.0220,0.2195
5.1030,-0.1625,1.0220,0.2195
5.1040,-0.1625,1.0220,0.2195
5.1040,-0.1625,1.0220,0.2195
5.1050,-0.1684,1.0267,0.2190
5.1050,-0.1755,1.0301,0.2175
5.1240,-0.1755,1.0301,0.2175
5.1240,-0.1755,1.0301,0.2175
5.1240,-0.1755,1.0301,0.2175
5.1250,-0.1774,1.0301,0.2197
5.1260,-0.1774,1.0301,0.2197
5.1350,-0.1774,1.0301,0.2197
5.1530,-0.1774,1.0301,0.2197
5.1530,-0.1774,1.0301,0.2197
5.1540,-0.1774,1.0301,0.2197
5.1540,-0.1762,1.0225,0.2231
5.1820,-0.1762,1.0225,0.2231
5.1820,-0.1762,1.0225,0.2231
5.1830,-0.1762,1.0225,0.2231
5.1830,-0.1662,1.0172,0.2256
5.1830,-0.1545,1.0193,0.2297
5.2030,-0.1545,1.0193,0.2297
5.2040,-0.1545,1.0193,0.2297
5.2040,-0.1545,1.0193,0.2297
5.2040,-0.1505,1.0211,0.2246
5.2080,-0.1505,1.0211,0.2246
5.2330,-0.1505,1.0211,0.2246
5.2330,-0.1505,1.0211,0.2246
5.2340,-0.1505,1.0211,0.2246
5.3480,-0.1523,1.0223,0.2239
5.3550,-0.1523,1.0223,0.2239
5.3600,-0.1523,1.0223,0.2239
5.3610,-0.1523,1.0223,0.2239
5.3620,-0.1523,1.0223,0.2239
5.3630,-0.1523,1.0223,0.2239
5.3630,-0.1523,1.0223,0.2239
5.3630,-0.1523,1.0223,0.2239
5.3640,-0.1523,1.0223,0.2239
5.3640,-0.1523,1.0223,0.2239
5.3640,-0.1523,1.0223,0.2239
5.3640,-0.1523,1.0223,0.2239
5.3650,-0.1523,1.0223,0.2239
5.3650,-0.1547,1.0225,0.2253
5.3650,-0.1591,1.0230,0.2239
5.3650,-0.1635,1.0257,0.2231
5.3650,-0.1699,1.0250,0.2229
5.3650,-0.1716,1.0245,0.2219
5.3660,-0.1730,1.0264,0.2192
5.3660,-0.1730,1.0264,0.2192
5.3660,-0.1730,1.0264,0.2192
5.3660,-0.1730,1.0264,0.2192
5.3660,-0.1730,1.0264,0.2192
5.3670,-0.1730,1.0264,0.2192
5.3670,-0.1713,1.0193,0.2207
5.3670,-0.1713,1.0193,0.2207
5.3930,-0.1713,1.0193,0.2207
5.3940,-0.1713,1.0193,0.2207
5.3940,-0.1713,1.0193,0.2207
5.4040,-0.1725,1.0208,0.2204
5.4230,-0.1725,1.0208,0.2204
5.4230,-0.1725,1.0208,0.2204
5.4230,-0.1725,1.0208,0.2204
5.4240,-0.1694,1.0198,0.2231
5.4240,-0.1652,1.0206,0.2231
5.4420,-0.1652,1.0206,0.2231
5.4420,-0.1652,1.0206,0.2231
5.4430,-0.1652,1.0206,0.2231
5.4470,-0.1650,1.0240,0.2222
5.4470,-0.1650,1.0240,0.2222
5.4740,-0.1650,1.0240,0.2222
5.4750,-0.1650,1.0240,0.2222
5.4750,-0.1650,1.0240,0.2222
5.4750,-0.1677,1.0237,0.2229
5.5030,-0.1677,1.0237,0.2229
5.5040,-0.1677,1.0237,0.2229
5.5040,-0.1677,1.0237,0.2229
5.5040,-0.1659,1.0228,0.2241
5.5050,-0.1642,1.0201,0.2226
5.5240,-0.1642,1.0201,0.2226
5.5250,-0.1642,1.0201,0.2226
5.5250,-0.1642,1.0201,0.2226
5.5250,-0.1672,1.0233,0.2190
5.5290,-0.1672,1.0233,0.2190
5.5350,-0.1672,1.0233,0.2190
5.5540,-0.1672,1.0233,0.2190
5.5540,-0.1672,1.0233,0.2190
5.5540,-0.1672,1.0233,0.2190
5.5550,-0.1703,1.0272,0.2178
5.5840,-0.1703,1.0272,0.2178
5.5840,-0.1703,1.0272,0.2178
5.5840,-0.1703,1.0272,0.2178
5.5850,-0.1674,1.0272,0.2200
5.5860,-0.1650,1.0242,0.2195
5.6040,-0.1650,1.0242,0.2195
5.6050,-0.1650,1.0242,0.2195
5.6050,-0.1650,1.0242,0.2195
5.6050,-0.1640,1.0259,0.2204
5.6090,-0.1640,1.0259,0.2204
5.6340,-0.1640,1.0259,0.2204
5.6340,-0.1640,1.0259,0.2204
5.6350,-0.1640,1.0259,0.2204
5.6350,-0.1628,1.0294,0.2207
5.6630,-0.1628,1.0294,0.2207
5.6640,-0.1628,1.0294,0.2207
5.6640,-0.1628,1.0294,0.2207
5.6640,-0.1650,1.0289,0.2192
5.6650,-0.1672,1.0259,0.2160
5.6850,-0.1672,1.0259,0.2160
5.6860,-0.1672,1.0259,0.2160
5.6860,-0.1672,1.0259,0.2160
5.6870,-0.1694,1.0242,0.2168
5.6870,-0.1694,1.0242,0.2168
5.7140,-0.1694,1.0242,0.2168
5.7140,-0.1694,1.0242,0.2168
5.7140,-0.1694,1.0242,0.2168
5.7150,-0.1703,1.0267,0.2180
5.7350,-0.1703,1.0267,0.2180
5.7420,-0.1703,1.0267,0.2180
5.7420,-0.1703,1.0267,0.2180
5.7430,-0.1703,1.0267,0.2180
5.7430,-0.1674,1.0247,0.2192
5.7430,-0.1696,1.0245,0.2224
5.7640,-0.1696,1.0245,0.2224
5.7650,-0.1696,1.0245,0.2224
5.7650,-0.1696,1.0245,0.2224
5.7680,-0.1679,1.0213,0.2239
5.7680,-0.1679,1.0213,0.2239
5.7950,-0.1679,1.0213,0.2239
5.7950,-0.1679,1.0213,0.2239
5.7950,-0.1679,1.0213,0.2239
5.7960,-0.1625,1.0191,0.2224
5.8240,-0.1625,1.0191,0.2224
5.8250,-0.1625,1.0191,0.2224
5.8250,-0.1625,1.0191,0.2224
5.8260,-0.1606,1.0189,0.2231
5.8260,-0.1606,1.0162,0.2234
5.8450,-0.1606,1.0162,0.2234
5.8470,-0.1606,1.0162,0.2234
5.8490,-0.1606,1.0162,0.2234
5.8500,-0.1659,1.0193,0.2234
5.8530,-0.1659,1.0193,0.2234
5.8770,-0.1659,1.0193,0.2234
5.8780,-0.1659,1.0193,0.2234
5.8790,-0.1659,1.0193,0.2234
5.8800,-0.1750,1.0259,0.2229
5.9030,-0.1750,1.0259,0.2229
5.9040,-0.1750,1.0259,0.2229
5.9050,-0.1750,1.0259,0.2229
5.9050,-0.1806,1.0240,0.2200
5.9060,-0.1779,1.0230,0.2224
5.9240,-0.1779,1.0230,0.2224
5.9250,-0.1779,1.0230,0.2224
5.9270,-0.1779,1.0230,0.2224
5.9270,-0.1750,1.0237,0.2251
5.9280,-0.1750,1.0237,0.2251
5.9370,-0.1750,1.0237,0.2251
5.9550,-0.1750,1.0237,0.2251
5.9560,-0.1750,1.0237,0.2251
5.9890,-0.1750,1.0237,0.2251
5.9900,-0.1730,1.0233,0.2256
5.9900,-0.1730,1.0233,0.2256
5.9910,-0.1730,1.0233,0.2256
5.9910,-0.1730,1.0233,0.2256
5.9910,-0.1762,1.0289,0.2251
5.9910,-0.1772,1.0281,0.2273
6.0030,-0.1772,1.0281,0.2273
6.0030,-0.1772,1.0281,0.2273
6.0040,-0.1772,1.0281,0.2273
6.0070,-0.1730,1.0206,0.2285
6.0070,-0.1730,1.0206,0.2285
6.0360,-0.1730,1.0206,0.2285
6.0360,-0.1730,1.0206,0.2285
6.0370,-0.1730,1.0206,0.2285
6.0370,-0.1679,1.0181,0.2273
6.0640,-0.1679,1.0181,0.2273
6.0650,-0.1679,1.0181,0.2273
6.0650,-0.1679,1.0181,0.2273
6.0660,-0.1681,1.0213,0.2268
6.0660,-0.1747,1.0230,0.2241
6.0830,-0.1747,1.0230,0.2241
6.0840,-0.1747,1.0230,0.2241
6.0850,-0.1747,1.0230,0.2241
6.0870,-0.1833,1.0186,0.2192
6.0870,-0.1833,1.0186,0.2192
6.1190,-0.1833,1.0186,0.2192
6.1190,-0.1833,1.0186,0.2192
6.1200,-0.1833,1.0186,0.2192
6.1210,-0.1835,1.0181,0.2219
6.1350,-0.1835,1.0181,0.2219
6.1450,-0.1835,1.0181,0.2219
6.1460,-0.1835,1.0181,0.2219
6.1460,-0.1835,1.0181,0.2219
6.1470,-0.1796,1.0208,0.2246
6.1470,-0.1764,1.0237,0.2248
6.1670,-0.1764,1.0237,0.2248
6.1680,-0.1764,1.0237,0.2248
6.1680,-0.1764,1.0237,0.2248
6.1700,-0.1786,1.0206,0.2246
6.1700,-0.1786,1.0206,0.2246
6.2000,-0.1786,1.0206,0.2246
6.2000,-0.1786,1.0206,0.2246
6.2010,-0.1786,1.0206,0.2246
6.2020,-0.1799,1.0208,0.2280
6.2250,-0.1799,1.0208,0.2280
6.2250,-0.1799,1.0208,0.2280
6.2260,-0.1799,1.0208,0.2280
6.2260,-0.1779,1.0225,0.2273
6.2270,-0.1762,1.0235,0.2253
6.2460,-0.1762,1.0235,0.2253
6.2460,-0.1762,1.0235,0.2253
6.2470,-0.1762,1.0235,0.2253
6.2490,-0.1750,1.0262,0.2182
6.2490,-0.1750,1.0262,0.2182
6.2790,-0.1750,1.0262,0.2182
6.2790,-0.1750,1.0262,0.2182
6.2800,-0.1750,1.0262,0.2182
6.2810,-0.1738,1.0277,0.2217
6.3040,-0.1738,1.0277,0.2217
6.3040,-0.1738,1.0277,0.2217
6.3050,-0.1738,1.0277,0.2217
6.3060,-0.1747,1.0215,0.2229
6.3060,-0.1757,1.0184,0.2217
6.3250,-0.1757,1.0184,0.2217
6.3260,-0.1757,1.0184,0.2217
6.3260,-0.1757,1.0184,0.2217
6.3280,-0.1789,1.0225,0.2261
6.3290,-0.1789,1.0225,0.2261
6.3350,-0.1789,1.0225,0.2261
6.3570,-0.1789,1.0225,0.2261
6.3580,-0.1789,1.0225,0.2261
6.3580,-0.1789,1.0225,0.2261
6.3590,-0.1794,1.0245,0.2231
6.3840,-0.1794,1.0245,0.2231
6.3850,-0.1794,1.0245,0.2231
6.3850,-0.1794,1.0245,0.2231
6.3860,-0.1730,1.0203,0.2207
6.3860,-0.1681,1.0186,0.2234
6.4060,-0.1681,1.0186,0.2234
6.4060,-0.1681,1.0186,0.2234
6.4070,-0.1681,1.0186,0.2234
6.4080,-0.1694,1.0196,0.2258
6.4080,-0.1694,1.0196,0.2258
6.4390,-0.1694,1.0196,0.2258
6.4400,-0.1694,1.0196,0.2258
6.4410,-0.1694,1.0196,0.2258
6.4410,-0.1701,1.0213,0.2278
6.4650,-0.1701,1.0213,0.2278
6.4660,-0.1701,1.0213,0.2278
6.4670,-0.1701,1.0213,0.2278
6.4670,-0.1672,1.0245,0.2292
6.4680,-0.1686,1.0247,0.2231
6.4850,-0.1686,1.0247,0.2231
6.4860,-0.1686,1.0247,0.2231
6.4870,-0.1686,1.0247,0.2231
6.4880,-0.1691,1.0237,0.2207
6.4880,-0.1691,1.0237,0.2207
6.5160,-0.1691,1.0237,0.2207
6.5170,-0.1691,1.0237,0.2207
6.5440,-0.1691,1.0237,0.2207
6.5440,-0.1694,1.0281,0.2222
6.5450,-0.1694,1.0281,0.2222
6.5450,-0.1694,1.0281,0.2222
6.5460,-0.1694,1.0281,0.2222
6.5460,-0.1694,1.0281,0.2222
6.5470,-0.1699,1.0291,0.2241
6.5470,-0.1708,1.0240,0.2258
6.5660,-0.1708,1.0240,0.2258
6.5660,-0.1708,1.0240,0.2258
6.5670,-0.1708,1.0240,0.2258
6.5690,-0.1725,1.0191,0.2312
6.5690,-0.1725,1.0191,0.2312
6.5960,-0.1725,1.0191,0.2312
6.5970,-0.1725,1.0191,0.2312
6.5970,-0.1725,1.0191,0.2312
6.5980,-0.1735,1.0176,0.2285
6.6250,-0.1735,1.0176,0.2285
6.6250,-0.1735,1.0176,0.2285
6.6260,-0.1735,1.0176,0.2285
6.6260,-0.1760,1.0208,0.2239
6.6270,-0.1757,1.0259,0.2234
6.6460,-0.1757,1.0259,0.2234
6.6470,-0.1757,1.0259,0.2234
6.6490,-0.1757,1.0259,0.2234
6.6500,-0.1774,1.0223,0.2224
6.6510,-0.1774,1.0223,0.2224
6.6780,-0.1774,1.0223,0.2224
6.6790,-0.1774,1.0223,0.2224
6.6800,-0.1774,1.0223,0.2224
6.6810,-0.1786,1.0218,0.2258
6.7050,-0.1786,1.0218,0.2258
6.7060,-0.1786,1.0218,0.2258
6.7070,-0.1786,1.0218,0.2258
6.7080,-0.1786,1.0211,0.2236
6.7090,-0.1794,1.0237,0.2241
6.7260,-0.1794,1.0237,0.2241
6.7270,-0.1794,1.0237,0.2241
6.7290,-0.1794,1.0237,0.2241
6.7300,-0.1764,1.0169,0.2226
6.7310,-0.1764,1.0169,0.2226
6.7330,-0.1764,1.0169,0.2226
6.7570,-0.1764,1.0169,0.2226
6.7580,-0.1764,1.0169,0.2226
6.7590,-0.1764,1.0169,0.2226
6.7600,-0.1703,1.0230,0.2226
6.7840,-0.1703,1.0230,0.2226
6.7850,-0.1703,1.0230,0.2226
6.7860,-0.1703,1.0230,0.2226
6.7870,-0.1669,1.0318,0.2253
6.7880,-0.1647,1.0162,0.2226
6.8070,-0.1647,1.0162,0.2226
6.8070,-0.1647,1.0162,0.2226
6.8090,-0.1647,1.0162,0.2226
6.8090,-0.1650,1.0211,0.2175
6.8100,-0.1650,1.0211,0.2175
6.8360,-0.1650,1.0211,0.2175
6.8370,-0.1650,1.0211,0.2175
6.8370,-0.1650,1.0211,0.2175
6.8380,-0.1723,1.0303,0.2212
6.8660,-0.1723,1.0303,0.2212
6.8670,-0.1723,1.0303,0.2212
6.8670,-0.1723,1.0303,0.2212
6.8680,-0.1733,1.0220,0.2204
6.8680,-0.1674,1.0237,0.2170
6.8890,-0.1674,1.0237,0.2170
6.8900,-0.1674,1.0237,0.2170
6.8910,-0.1674,1.0237,0.2170
6.8910,-0.1640,1.0189,0.2219
6.8920,-0.1640,1.0189,0.2219
6.9150,-0.1640,1.0189,0.2219
6.9160,-0.1640,1.0189,0.2219
6.9180,-0.1640,1.0189,0.2219
6.9190,-0.1633,1.0152,0.2178
6.9370,-0.1633,1.0152,0.2178
6.9430,-0.1633,1.0152,0.2178
6.9440,-0.1633,1.0152,0.2178
6.9450,-0.1633,1.0152,0.2178
6.9460,-0.1647,1.0257,0.2197
6.9470,-0.1642,1.0323,0.2241
6.9660,-0.1642,1.0323,0.2241
6.9670,-0.1642,1.0323,0.2241
6.9690,-0.1642,1.0323,0.2241
6.9690,-0.1615,1.0323,0.2234
6.9700,-0.1615,1.0323,0.2234
6.9980,-0.1615,1.0323,0.2234
6.9990,-0.1615,1.0323,0.2234
7.0000,-0.1615,1.0323,0.2234
7.0010,-0.1681,1.0247,0.2226
7.0260,-0.1681,1.0247,0.2226
7.0270,-0.1681,1.0247,0.2226
7.0290,-0.1681,1.0247,0.2226
7.0290,-0.1657,1.0198,0.2246
7.0300,-0.1650,1.0203,0.2243
7.0480,-0.1650,1.0203,0.2243
7.0490,-0.1650,1.0203,0.2243
7.0490,-0.1650,1.0203,0.2243
7.0500,-0.1686,1.0220,0.2192
7.0500,-0.1686,1.0220,0.2192
7.0780,-0.1686,1.0220,0.2192
7.1020,-0.1686,1.0220,0.2192
7.1030,-0.1686,1.0220,0.2192
7.1040,-0.1735,1.0252,0.2207
7.1050,-0.1735,1.0252,0.2207
7.1060,-0.1735,1.0252,0.2207
7.1070,-0.1735,1.0252,0.2207
7.1080,-0.1730,1.0206,0.2224
7.1090,-0.1674,1.0191,0.2256
7.1230,-0.1674,1.0191,0.2256
7.1240,-0.1674,1.0191,0.2256
7.1240,-0.1674,1.0191,0.2256
7.1270,-0.1623,1.0203,0.2263
7.1270,-0.1623,1.0203,0.2263
7.1350,-0.1623,1.0203,0.2263
7.1550,-0.1623,1.0203,0.2263
7.1560,-0.1623,1.0203,0.2263
7.1560,-0.1623,1.0203,0.2263
7.1570,-0.1608,1.0181,0.2268
7.1850,-0.1608,1.0181,0.2268
7.1860,-0.1608,1.0181,0.2268
7.1870,-0.1608,1.0181,0.2268
7.1880,-0.1591,1.0237,0.2263
7.1890,-0.1652,1.0274,0.2253
7.2060,-0.1652,1.0274,0.2253
7.2070,-0.1652,1.0274,0.2253
7.2080,-0.1652,1.0274,0.2253
7.2090,-0.1721,1.0279,0.2246
7.2090,-0.1721,1.0279,0.2246
7.2380,-0.1721,1.0279,0.2246
7.2390,-0.1721,1.0279,0.2246
7.2400,-0.1721,1.0279,0.2246
7.2410,-0.1725,1.0228,0.2258
7.2660,-0.1725,1.0228,0.2258
7.2670,-0.1725,1.0228,0.2258
7.2680,-0.1725,1.0228,0.2258
7.2690,-0.1696,1.0206,0.2236
7.2700,-0.1701,1.0193,0.2239
7.2860,-0.1701,1.0193,0.2239
7.2870,-0.1701,1.0193,0.2239
7.2890,-0.1701,1.0193,0.2239
7.2900,-0.1694,1.0167,0.2239
7.2910,-0.1694,1.0167,0.2239
7.3160,-0.1694,1.0167,0.2239
7.3170,-0.1694,1.0167,0.2239
7.3180,-0.1694,1.0167,0.2239
7.3190,-0.1740,1.0172,0.2222
7.3360,-0.1740,1.0172,0.2222
7.3390,-0.1740,1.0172,0.2222
7.3480,-0.1740,1.0172,0.2222
7.3490,-0.1740,1.0172,0.2222
7.3500,-0.1740,1.0172,0.2222
7.3510,-0.1760,1.0201,0.2241
7.3520,-0.1750,1.0230,0.2219
7.3690,-0.1750,1.0230,0.2219
7.3700,-0.1750,1.0230,0.2219
7.3710,-0.1750,1.0230,0.2219
7.3720,-0.1703,1.0237,0.2219
7.3740,-0.1703,1.0237,0.2219
7.3970,-0.1703,1.0237,0.2219
7.3970,-0.1703,1.0237,0.2219
7.3980,-0.1703,1.0237,0.2219
7.3990,-0.1677,1.0230,0.2234
7.4270,-0.1677,1.0230,0.2234
7.4280,-0.1677,1.0230,0.2234
7.4300,-0.1677,1.0230,0.2234
7.4340,-0.1686,1.0245,0.2207
7.4350,-0.1703,1.0262,0.2175
7.4470,-0.1703,1.0262,0.2175
7.4480,-0.1703,1.0262,0.2175
7.4490,-0.1703,1.0262,0.2175
7.4500,-0.1725,1.0286,0.2151
7.4510,-0.1725,1.0286,0.2151
7.4790,-0.1725,1.0286,0.2151
7.4800,-0.1725,1.0286,0.2151
7.4810,-0.1725,1.0286,0.2151
7.4820,-0.1684,1.0321,0.2207
7.5060,-0.1684,1.0321,0.2207
7.5070,-0.1684,1.0321,0.2207
7.5080,-0.1684,1.0321,0.2207
7.5080,-0.1655,1.0296,0.2226
7.5090,-0.1664,1.0240,0.2207
7.5300,-0.1664,1.0240,0.2207
7.5310,-0.1664,1.0240,0.2207
7.5320,-0.1664,1.0240,0.2207
7.5320,-0.1686,1.0223,0.2226
7.5330,-0.1686,1.0223,0.2226
7.5350,-0.1686,1.0223,0.2226
7.5620,-0.1686,1.0223,0.2226
7.5630,-0.1686,1.0223,0.2226
7.5640,-0.1686,1.0223,0.2226
7.5640,-0.1677,1.0272,0.2214
7.5860,-0.1677,1.0272,0.2214
7.5870,-0.1677,1.0272,0.2214
7.5870,-0.1677,1.0272,0.2214
7.5870,-0.1640,1.0286,0.2207
7.5880,-0.1652,1.0279,0.2212
7.6070,-0.1652,1.0279,0.2212
7.6080,-0.1652,1.0279,0.2212
7.6080,-0.1652,1.0279,0.2212
7.6090,-0.1679,1.0264,0.2204
7.6300,-0.1679,1.0264,0.2204
7.6350,-0.1679,1.0264,0.2204
7.6360,-0.1679,1.0264,0.2204
7.6360,-0.1679,1.0264,0.2204
7.6360,-0.1716,1.0220,0.2209
7.6660,-0.1716,1.0220,0.2209
7.6660,-0.1716,1.0220,0.2209
7.6660,-0.1716,1.0220,0.2209
7.6670,-0.1740,1.0259,0.2229
7.6670,-0.1779,1.0308,0.2200
7.6880,-0.1779,1.0308,0.2200
7.6890,-0.1779,1.0308,0.2200
7.6890,-0.1779,1.0308,0.2200
7.6910,-0.1833,1.0247,0.2170
7.6920,-0.1833,1.0247,0.2170
7.7160,-0.1833,1.0247,0.2170
7.7170,-0.1833,1.0247,0.2170
7.7180,-0.1833,1.0247,0.2170
7.7180,-0.1830,1.0093,0.2136
7.7350,-0.1830,1.0093,0.2136
7.7470,-0.1830,1.0093,0.2136
7.7490,-0.1830,1.0093,0.2136
7.7490,-0.1830,1.0093,0.2136
7.7500,-0.1784,1.0091,0.2173
7.7500,-0.1718,1.0257,0.2229
7.7680,-0.1718,1.0257,0.2229
7.7690,-0.1718,1.0257,0.2229
7.7690,-0.1718,1.0257,0.2229
7.7700,-0.1672,1.0286,0.2241
7.7730,-0.1672,1.0286,0.2241
7.7960,-0.1672,1.0286,0.2241
7.7960,-0.1672,1.0286,0.2241
7.7970,-0.1672,1.0286,0.2241
7.7990,-0.1701,1.0257,0.2197
7.8270,-0.1701,1.0257,0.2197
7.8280,-0.1701,1.0257,0.2197
7.8280,-0.1701,1.0257,0.2197
7.8290,-0.1694,1.0274,0.2214
7.8290,-0.1701,1.0286,0.2197
7.8460,-0.1701,1.0286,0.2197
7.8470,-0.1701,1.0286,0.2197
7.8480,-0.1701,1.0286,0.2197
7.8500,-0.1703,1.0294,0.2153
7.8510,-0.1703,1.0294,0.2153
7.8760,-0.1703,1.0294,0.2153
7.8770,-0.1703,1.0294,0.2153
7.8780,-0.1703,1.0294,0.2153
7.8780,-0.1742,1.0184,0.2197
7.9050,-0.1742,1.0184,0.2197
7.9060,-0.1742,1.0184,0.2197
7.9060,-0.1742,1.0184,0.2197
7.9070,-0.1723,1.0150,0.2217
7.9080,-0.1618,1.0203,0.2265
7.9280,-0.1618,1.0203,0.2265
7.9290,-0.1618,1.0203,0.2265
7.9300,-0.1618,1.0203,0.2265
7.9310,-0.1640,1.0208,0.2251
7.9320,-0.1640,1.0208,0.2251
7.9340,-0.1640,1.0208,0.2251
7.9560,-0.1640,1.0208,0.2251
7.9570,-0.1640,1.0208,0.2251
7.9580,-0.1640,1.0208,0.2251
7.9590,-0.1669,1.0235,0.2217
7.9870,-0.1669,1.0235,0.2217
7.9880,-0.1669,1.0235,0.2217
7.9890,-0.1669,1.0235,0.2217
7.9890,-0.1701,1.0259,0.2168
7.9900,-0.1733,1.0274,0.2160
8.0070,-0.1733,1.0274,0.2160
8.0080,-0.1733,1.0274,0.2160
8.0090,-0.1733,1.0274,0.2160
8.0100,-0.1772,1.0299,0.2187
8.0110,-0.1772,1.0299,0.2187
8.0360,-0.1772,1.0299,0.2187
8.0370,-0.1772,1.0299,0.2187
8.0370,-0.1772,1.0299,0.2187
8.0380,-0.1799,1.0259,0.2190
8.0660,-0.1799,1.0259,0.2190
8.0670,-0.1799,1.0259,0.2190
8.0670,-0.1799,1.0259,0.2190
8.0680,-0.1757,1.0215,0.2170
8.0690,-0.1764,1.0245,0.2197
8.0900,-0.1764,1.0245,0.2197
8.0910,-0.1764,1.0245,0.2197
8.0920,-0.1764,1.0245,0.2197
8.0930,-0.1716,1.0228,0.2212
8.0950,-0.1716,1.0228,0.2212
8.1180,-0.1716,1.0228,0.2212
8.1190,-0.1716,1.0228,0.2212
8.1200,-0.1716,1.0228,0.2212
8.1200,-0.1669,1.0220,0.2214
8.1350,-0.1669,1.0220,0.2214
8.1470,-0.1669,1.0220,0.2214
8.1480,-0.1669,1.0220,0.2214
8.1480,-0.1669,1.0220,0.2214
8.1490,-0.1667,1.0228,0.2200
8.1490,-0.1637,1.0267,0.2187
8.1680,-0.1637,1.0267,0.2187
8.1740,-0.1637,1.0267,0.2187
8.1750,-0.1637,1.0267,0.2187
8.1990,-0.1593,1.0306,0.2190
8.2000,-0.1593,1.0306,0.2190
8.2010,-0.1593,1.0306,0.2190
8.2010,-0.1593,1.0306,0.2190
8.2020,-0.1593,1.0306,0.2190
8.2020,-0.1625,1.0267,0.2185
8.2260,-0.1625,1.0267,0.2185
8.2260,-0.1625,1.0267,0.2185
8.2260,-0.1625,1.0267,0.2185
8.2270,-0.1679,1.0230,0.2224
8.2270,-0.1689,1.0255,0.2275
8.2460,-0.1689,1.0255,0.2275
8.2500,-0.1689,1.0255,0.2275
8.2520,-0.1689,1.0255,0.2275
8.2520,-0.1674,1.0247,0.2270
8.2530,-0.1674,1.0247,0.2270
8.2760,-0.1674,1.0247,0.2270
8.2770,-0.1674,1.0247,0.2270
8.2780,-0.1674,1.0247,0.2270
8.2790,-0.1699,1.0164,0.2182
8.3060,-0.1699,1.0164,0.2182
8.3070,-0.1699,1.0164,0.2182
8.3080,-0.1699,1.0164,0.2182
8.3090,-0.1699,1.0128,0.2138
8.3090,-0.1655,1.0330,0.2170
8.3290,-0.1655,1.0330,0.2170
8.3300,-0.1655,1.0330,0.2170
8.3310,-0.1655,1.0330,0.2170
8.3320,-0.1677,1.0379,0.2209
8.3330,-0.1677,1.0379,0.2209
8.3370,-0.1677,1.0379,0.2209
8.3570,-0.1677,1.0379,0.2209
8.3580,-0.1677,1.0379,0.2209
8.3590,-0.1677,1.0379,0.2209
8.3590,-0.1747,1.0269,0.2168
8.3880,-0.1747,1.0269,0.2168
8.3890,-0.1747,1.0269,0.2168
8.3900,-0.1747,1.0269,0.2168
8.3910,-0.1735,1.0247,0.2273
8.3930,-0.1742,1.0130,0.2190
8.4080,-0.1742,1.0130,0.2190
8.4090,-0.1742,1.0130,0.2190
8.4100,-0.1742,1.0130,0.2190
8.4110,-0.1669,1.0106,0.2168
8.4120,-0.1669,1.0106,0.2168
8.4400,-0.1669,1.0106,0.2168
8.4410,-0.1669,1.0106,0.2168
8.4420,-0.1669,1.0106,0.2168
8.5510,-0.1640,1.0150,0.2195
8.5580,-0.1640,1.0150,0.2195
8.5610,-0.1640,1.0150,0.2195
8.5620,-0.1640,1.0150,0.2195
8.5640,-0.1640,1.0150,0.2195
8.5650,-0.1640,1.0150,0.2195
8.5650,-0.1640,1.0150,0.2195
8.5660,-0.1640,1.0150,0.2195
8.5670,-0.1640,1.0150,0.2195
8.5680,-0.1640,1.0150,0.2195
8.5690,-0.1640,1.0150,0.2195
8.5690,-0.1640,1.0150,0.2195
8.5690,-0.1640,1.0150,0.2195
8.5700,-0.1652,1.0284,0.2173
8.5700,-0.1672,1.0360,0.2202
8.5700,-0.1686,1.0255,0.2185
8.5710,-0.1696,1.0272,0.2200
8.5720,-0.1708,1.0274,0.2163
8.5730,-0.1684,1.0252,0.2180
8.5730,-0.1684,1.0252,0.2180
8.5730,-0.1684,1.0252,0.2180
8.5740,-0.1684,1.0252,0.2180
8.5740,-0.1684,1.0252,0.2180
8.5740,-0.1684,1.0252,0.2180
8.5740,-0.1703,1.0193,0.2200
8.5750,-0.1703,1.0193,0.2200
8.5950,-0.1703,1.0193,0.2200
8.5960,-0.1703,1.0193,0.2200
8.5960,-0.1703,1.0193,0.2200
8.5990,-0.1730,1.0174,0.2185
8.6270,-0.1730,1.0174,0.2185
8.6280,-0.1730,1.0174,0.2185
8.6290,-0.1730,1.0174,0.2185
8.6310,-0.1716,1.0247,0.2202
8.6320,-0.1716,1.0294,0.2170
8.6480,-0.1716,1.0294,0.2170
8.6520,-0.1716,1.0294,0.2170
8.6520,-0.1716,1.0294,0.2170
8.6530,-0.1747,1.0291,0.2143
8.6530,-0.1747,1.0291,0.2143
8.6770,-0.1747,1.0291,0.2143
8.6770,-0.1747,1.0291,0.2143
8.6780,-0.1747,1.0291,0.2143
8.6790,-0.1794,1.0233,0.2136
8.7090,-0.1794,1.0233,0.2136
8.7090,-0.1794,1.0233,0.2136
8.7100,-0.1794,1.0233,0.2136
8.7100,-0.1735,1.0259,0.2178
8.7110,-0.1699,1.0294,0.2214
8.7290,-0.1699,1.0294,0.2214
8.7300,-0.1699,1.0294,0.2214
8.7310,-0.1699,1.0294,0.2214
8.7540,-0.1699,1.0259,0.2192
8.7550,-0.1699,1.0259,0.2192
8.7550,-0.1699,1.0259,0.2192
8.7570,-0.1699,1.0259,0.2192
8.7570,-0.1699,1.0259,0.2192
8.7570,-0.1699,1.0259,0.2192
8.7570,-0.1659,1.0228,0.2158
8.7860,-0.1659,1.0228,0.2158
8.7870,-0.1659,1.0228,0.2158
8.7870,-0.1659,1.0228,0.2158
8.7870,-0.1655,1.0206,0.2190
8.7880,-0.1669,1.0237,0.2207
8.8090,-0.1669,1.0237,0.2207
8.8100,-0.1669,1.0237,0.2207
8.8110,-0.1669,1.0237,0.2207
8.8130,-0.1701,1.0267,0.2182
8.8140,-0.1701,1.0267,0.2182
8.8380,-0.1701,1.0267,0.2182
8.8390,-0.1701,1.0267,0.2182
8.8400,-0.1701,1.0267,0.2182
8.8400,-0.1742,1.0267,0.2173
8.8690,-0.1742,1.0267,0.2173
8.8700,-0.1742,1.0267,0.2173
8.8710,-0.1742,1.0267,0.2173
8.8720,-0.1735,1.0262,0.2151
8.8730,-0.1706,1.0255,0.2129
8.8910,-0.1706,1.0255,0.2129
8.8920,-0.1706,1.0255,0.2129
8.8930,-0.1706,1.0255,0.2129
8.8940,-0.1718,1.0264,0.2131
8.8950,-0.1718,1.0264,0.2131
8.9200,-0.1718,1.0264,0.2131
8.9210,-0.1718,1.0264,0.2131
8.9220,-0.1718,1.0264,0.2131
8.9220,-0.1723,1.0286,0.2124
8.9400,-0.1723,1.0286,0.2124
8.9490,-0.1723,1.0286,0.2124
8.9490,-0.1723,1.0286,0.2124
8.9500,-0.1723,1.0286,0.2124
8.9500,-0.1681,1.0255,0.2204
8.9510,-0.1650,1.0218,0.2261
8.9700,-0.1650,1.0218,0.2261
8.9710,-0.1650,1.0218,0.2261
8.9710,-0.1650,1.0218,0.2261
8.9720,-0.1598,1.0191,0.2239
8.9760,-0.1598,1.0191,0.2239
8.9970,-0.1598,1.0191,0.2239
8.9990,-0.1598,1.0191,0.2239
8.9990,-0.1598,1.0191,0.2239
9.0000,-0.1589,1.0230,0.2204
9.0280,-0.1589,1.0230,0.2204
9.0290,-0.1589,1.0230,0.2204
9.0300,-0.1589,1.0230,0.2204
9.0310,-0.1608,1.0301,0.2182
9.0320,-0.1681,1.0333,0.2126
9.0500,-0.1681,1.0333,0.2126
9.0550,-0.1681,1.0333,0.2126
9.0560,-0.1681,1.0333,0.2126
9.0570,-0.1742,1.0318,0.2141
9.0580,-0.1742,1.0318,0.2141
9.0790,-0.1742,1.0318,0.2141
9.0790,-0.1742,1.0318,0.2141
9.0800,-0.1742,1.0318,0.2141
9.0800,-0.1794,1.0259,0.2170
9.1080,-0.1794,1.0259,0.2170
9.1090,-0.1794,1.0259,0.2170
9.1100,-0.1794,1.0259,0.2170
9.1100,-0.1782,1.0230,0.2185
9.1110,-0.1740,1.0196,0.2182
9.1300,-0.1740,1.0196,0.2182
9.1310,-0.1740,1.0196,0.2182
9.1330,-0.1740,1.0196,0.2182
9.1330,-0.1706,1.0208,0.2168
9.1340,-0.1706,1.0208,0.2168
9.1380,-0.1706,1.0208,0.2168
9.1590,-0.1706,1.0208,0.2168
9.1600,-0.1706,1.0208,0.2168
9.1600,-0.1706,1.0208,0.2168
9.1610,-0.1703,1.0264,0.2168
9.1890,-0.1703,1.0264,0.2168
9.1900,-0.1703,1.0264,0.2168
9.1900,-0.1703,1.0264,0.2168
9.1910,-0.1733,1.0299,0.2141
9.1920,-0.1740,1.0277,0.2136
9.2090,-0.1740,1.0277,0.2136
9.2100,-0.1740,1.0277,0.2136
9.2100,-0.1740,1.0277,0.2136
9.2120,-0.1779,1.0242,0.2146
9.2130,-0.1779,1.0242,0.2146
9.2390,-0.1779,1.0242,0.2146
9.2390,-0.1779,1.0242,0.2146
9.2400,-0.1779,1.0242,0.2146
9.2410,-0.1818,1.0223,0.2158
9.2710,-0.1818,1.0223,0.2158
9.2720,-0.1818,1.0223,0.2158
9.2730,-0.1818,1.0223,0.2158
9.2730,-0.1857,1.0206,0.2175
9.2780,-0.1862,1.0211,0.2190
9.2920,-0.1862,1.0211,0.2190
9.2920,-0.1862,1.0211,0.2190
9.3160,-0.1862,1.0211,0.2190
9.3170,-0.1833,1.0218,0.2168
9.3170,-0.1833,1.0218,0.2168
9.3170,-0.1833,1.0218,0.2168
9.3180,-0.1833,1.0218,0.2168
9.3180,-0.1833,1.0218,0.2168
9.3180,-0.1779,1.0201,0.2160
9.3340,-0.1779,1.0201,0.2160
9.3460,-0.1779,1.0201,0.2160
9.3470,-0.1779,1.0201,0.2160
9.3470,-0.1779,1.0201,0.2160
9.3510,-0.1764,1.0230,0.2158
9.3510,-0.1762,1.0262,0.2148
9.3680,-0.1762,1.0262,0.2148
9.3720,-0.1762,1.0262,0.2148
9.3750,-0.1762,1.0262,0.2148
9.3760,-0.1747,1.0240,0.2160
9.3770,-0.1747,1.0240,0.2160
9.3970,-0.1747,1.0240,0.2160
9.3970,-0.1747,1.0240,0.2160
9.3980,-0.1747,1.0240,0.2160
9.3980,-0.1738,1.0237,0.2197
9.4280,-0.1738,1.0237,0.2197
9.4290,-0.1738,1.0237,0.2197
9.4290,-0.1738,1.0237,0.2197
9.4300,-0.1740,1.0281,0.2207
9.4300,-0.1725,1.0247,0.2212
9.4500,-0.1725,1.0247,0.2212
9.4510,-0.1725,1.0247,0.2212
9.4510,-0.1725,1.0247,0.2212
9.4540,-0.1699,1.0233,0.2214
9.4550,-0.1699,1.0233,0.2214
9.4790,-0.1699,1.0233,0.2214
9.4790,-0.1699,1.0233,0.2214
9.4800,-0.1699,1.0233,0.2214
9.4800,-0.1691,1.0225,0.2185
9.5110,-0.1691,1.0225,0.2185
9.5170,-0.1691,1.0225,0.2185
9.5180,-0.1691,1.0225,0.2185
9.5190,-0.1647,1.0272,0.2165
9.5200,-0.1667,1.0291,0.2160
9.5330,-0.1667,1.0291,0.2160
9.5340,-0.1667,1.0291,0.2160
9.5350,-0.1667,1.0291,0.2160
9.5360,-0.1725,1.0264,0.2124
9.5370,-0.1725,1.0264,0.2124
9.5380,-0.1725,1.0264,0.2124
9.5590,-0.1725,1.0264,0.2124
9.5600,-0.1725,1.0264,0.2124
9.5610,-0.1725,1.0264,0.2124
9.5620,-0.1767,1.0230,0.2138
9.5910,-0.1767,1.0230,0.2138
9.5920,-0.1767,1.0230,0.2138
9.5920,-0.1767,1.0230,0.2138
9.5930,-0.1784,1.0228,0.2185
9.5930,-0.1757,1.0255,0.2222
9.6100,-0.1757,1.0255,0.2222
9.6100,-0.1757,1.0255,0.2222
9.6120,-0.1757,1.0255,0.2222
9.6120,-0.1701,1.0252,0.2209
9.6130,-0.1701,1.0252,0.2209
9.6390,-0.1701,1.0252,0.2209
9.6390,-0.1701,1.0252,0.2209
9.6400,-0.1701,1.0252,0.2209
9.6410,-0.1659,1.0257,0.2200
9.6700,-0.1659,1.0257,0.2200
9.6750,-0.1659,1.0257,0.2200
9.6760,-0.1659,1.0257,0.2200
9.6770,-0.1706,1.0225,0.2192
9.6770,-0.1703,1.0211,0.2190
9.6900,-0.1703,1.0211,0.2190
9.6910,-0.1703,1.0211,0.2190
9.6920,-0.1703,1.0211,0.2190
9.6930,-0.1708,1.0242,0.2185
9.6940,-0.1708,1.0242,0.2185
9.7230,-0.1708,1.0242,0.2185
9.7240,-0.1708,1.0242,0.2185
9.7250,-0.1708,1.0242,0.2185
9.7260,-0.1725,1.0242,0.2187
9.7370,-0.1725,1.0242,0.2187
9.7500,-0.1725,1.0242,0.2187
9.7510,-0.1725,1.0242,0.2187
9.7510,-0.1725,1.0242,0.2187
9.7520,-0.1721,1.0264,0.2192
9.7520,-0.1750,1.0279,0.2173
9.7720,-0.1750,1.0279,0.2173
9.7730,-0.1750,1.0279,0.2173
9.7730,-0.1750,1.0279,0.2173
9.7740,-0.1777,1.0252,0.2163
9.7760,-0.1777,1.0252,0.2163
9.8000,-0.1777,1.0252,0.2163
9.8000,-0.1777,1.0252,0.2163
9.8010,-0.1777,1.0252,0.2163
9.8020,-0.1777,1.0230,0.2178
9.8290,-0.1777,1.0230,0.2178
9.8300,-0.1777,1.0230,0.2178
9.8310,-0.1777,1.0230,0.2178
9.8310,-0.1760,1.0247,0.2165
9.8320,-0.1738,1.0252,0.2182
9.8570,-0.1738,1.0252,0.2182
9.8830,-0.1738,1.0252,0.2182
9.8830,-0.1738,1.0252,0.2182
9.8830,-0.1747,1.0242,0.2175
9.8830,-0.1747,1.0242,0.2175
9.8840,-0.1747,1.0242,0.2175
9.8840,-0.1747,1.0242,0.2175
9.8850,-0.1747,1.0242,0.2175
9.8850,-0.1784,1.0252,0.2151
9.9080,-0.1784,1.0252,0.2151
9.9090,-0.1784,1.0252,0.2151
9.9090,-0.1784,1.0252,0.2151
9.9090,-0.1806,1.0262,0.2170
9.9100,-0.1818,1.0255,0.2209
9.9300,-0.1818,1.0255,0.2209
9.9320,-0.1818,1.0255,0.2209
9.9340,-0.1818,1.0255,0.2209
9.9350,-0.1767,1.0215,0.2212
9.9360,-0.1767,1.0215,0.2212
9.9370,-0.1767,1.0215,0.2212
9.9590,-0.1767,1.0215,0.2212
9.9600,-0.1767,1.0215,0.2212
9.9600,-0.1767,1.0215,0.2212
9.9610,-0.1733,1.0152,0.2187
9.9890,-0.1733,1.0152,0.2187
9.9900,-0.1733,1.0152,0.2187
9.9910,-0.1733,1.0152,0.2187
9.9910,-0.1755,1.0169,0.2185
9.9920,-0.1813,1.0233,0.2190
10.0090,-0.1813,1.0233,0.2190
10.0090,-0.1813,1.0233,0.2190
10.0100,-0.1813,1.0233,0.2190
10.0110,-0.1826,1.0269,0.2190
10.0140,-0.1826,1.0269,0.2190
10.0380,-0.1826,1.0269,0.2190
10.0390,-0.1826,1.0269,0.2190
10.0400,-0.1826,1.0269,0.2190
10.0400,-0.1791,1.0279,0.2178
10.0690,-0.1791,1.0279,0.2178
10.0700,-0.1791,1.0279,0.2178
10.0710,-0.1791,1.0279,0.2178
10.0720,-0.1750,1.0242,0.2173
10.0730,-0.1708,1.0237,0.2173
10.0900,-0.1708,1.0237,0.2173
10.0910,-0.1708,1.0237,0.2173
10.0920,-0.1708,1.0237,0.2173
10.0920,-0.1684,1.0291,0.2187
10.0930,-0.1684,1.0291,0.2187
10.1220,-0.1684,1.0291,0.2187
10.1230,-0.1684,1.0291,0.2187
10.1240,-0.1684,1.0291,0.2187
10.1250,-0.1747,1.0267,0.2151
10.1410,-0.1747,1.0267,0.2151
10.1490,-0.1747,1.0267,0.2151
10.1500,-0.1747,1.0267,0.2151
10.1500,-0.1747,1.0267,0.2151
10.1510,-0.1747,1.0218,0.2185
10.1510,-0.1745,1.0206,0.2207
10.1740,-0.1745,1.0206,0.2207
10.1750,-0.1745,1.0206,0.2207
10.1760,-0.1745,1.0206,0.2207
10.1770,-0.1713,1.0225,0.2222
10.1770,-0.1713,1.0225,0.2222
10.1980,-0.1713,1.0225,0.2222
10.1990,-0.1713,1.0225,0.2222
10.2000,-0.1713,1.0225,0.2222
10.2010,-0.1711,1.0223,0.2195
10.2290,-0.1711,1.0223,0.2195
10.2300,-0.1711,1.0223,0.2195
10.2310,-0.1711,1.0223,0.2195
10.2320,-0.1728,1.0277,0.2190
10.2320,-0.1779,1.0223,0.2178
10.2490,-0.1779,1.0223,0.2178
10.2500,-0.1779,1.0223,0.2178
10.2510,-0.1779,1.0223,0.2178
10.2520,-0.1774,1.0176,0.2190
10.2530,-0.1774,1.0176,0.2190
10.2800,-0.1774,1.0176,0.2190
10.2810,-0.1774,1.0176,0.2190
10.2820,-0.1774,1.0176,0.2190
10.2830,-0.1740,1.0191,0.2214
10.3080,-0.1740,1.0191,0.2214
10.3090,-0.1740,1.0191,0.2214
10.3090,-0.1740,1.0191,0.2214
10.3100,-0.1762,1.0242,0.2187
10.3100,-0.1772,1.0272,0.2202
10.3290,-0.1772,1.0272,0.2202
10.3300,-0.1772,1.0272,0.2202
10.3300,-0.1772,1.0272,0.2202
10.3310,-0.1789,1.0250,0.2226
10.3320,-0.1789,1.0250,0.2226
10.3320,-0.1789,1.0250,0.2226
10.3580,-0.1789,1.0250,0.2226
10.3590,-0.1789,1.0250,0.2226
10.3590,-0.1789,1.0250,0.2226
10.3600,-0.1767,1.0257,0.2209
10.3890,-0.1767,1.0257,0.2209
10.3900,-0.1767,1.0257,0.2209
10.3900,-0.1767,1.0257,0.2209
10.3900,-0.1755,1.0257,0.2197
10.3910,-0.1735,1.0264,0.2182
10.4110,-0.1735,1.0264,0.2182
10.4120,-0.1735,1.0264,0.2182
10.4120,-0.1735,1.0264,0.2182
10.4120,-0.1752,1.0240,0.2200
10.4120,-0.1752,1.0240,0.2200
10.4360,-0.1752,1.0240,0.2200
10.4360,-0.1752,1.0240,0.2200
10.4360,-0.1752,1.0240,0.2200
10.4370,-0.1767,1.0230,0.2200
10.4660,-0.1767,1.0230,0.2200
10.4670,-0.1767,1.0230,0.2200
10.4680,-0.1767,1.0230,0.2200
10.4680,-0.1747,1.0223,0.2192
10.4690,-0.1735,1.0264,0.2192
10.4870,-0.1735,1.0264,0.2192
10.4890,-0.1735,1.0264,0.2192
10.4900,-0.1735,1.0264,0.2192
10.4910,-0.1735,1.0247,0.2170
10.4920,-0.1735,1.0247,0.2170
10.5180,-0.1735,1.0247,0.2170
10.5190,-0.1735,1.0247,0.2170
10.5200,-0.1735,1.0247,0.2170
10.5200,-0.1786,1.0211,0.2156
10.5320,-0.1786,1.0211,0.2156
10.5480,-0.1786,1.0211,0.2156
10.5490,-0.1786,1.0211,0.2156
10.5490,-0.1786,1.0211,0.2156
10.5500,-0.1799,1.0223,0.2163
10.5500,-0.1801,1.0240,0.2219
10.5680,-0.1801,1.0240,0.2219
10.5690,-0.1801,1.0240,0.2219
10.5700,-0.1801,1.0240,0.2219
10.5710,-0.1786,1.0206,0.2231
10.5720,-0.1786,1.0206,0.2231
10.5970,-0.1786,1.0206,0.2231
10.5990,-0.1786,1.0206,0.2231
10.5990,-0.1786,1.0206,0.2231
10.6010,-0.1733,1.0198,0.2207
10.6280,-0.1733,1.0198,0.2207
10.6300,-0.1733,1.0198,0.2207
10.6310,-0.1733,1.0198,0.2207
10.6320,-0.1733,1.0225,0.2192
10.6330,-0.1742,1.0277,0.2170
10.6490,-0.1742,1.0277,0.2170
10.6500,-0.1742,1.0277,0.2170
10.6520,-0.1742,1.0277,0.2170
10.6530,-0.1740,1.0252,0.2178
10.6540,-0.1740,1.0252,0.2178
10.6800,-0.1740,1.0252,0.2178
10.6820,-0.1740,1.0252,0.2178
10.6830,-0.1740,1.0252,0.2178
10.6830,-0.1764,1.0228,0.2173
10.7090,-0.1764,1.0228,0.2173
10.7090,-0.1764,1.0228,0.2173
10.7100,-0.1764,1.0228,0.2173
10.7100,-0.1786,1.0255,0.2153
10.7100,-0.1794,1.0257,0.2165
10.7330,-0.1794,1.0257,0.2165
10.7330,-0.1794,1.0257,0.2165
10.7340,-0.1794,1.0257,0.2165
10.7350,-0.1794,1.0220,0.2187
10.7350,-0.1794,1.0220,0.2187
10.7360,-0.1794,1.0220,0.2187
10.7600,-0.1794,1.0220,0.2187
10.7610,-0.1794,1.0220,0.2187
10.7620,-0.1794,1.0220,0.2187
10.7620,-0.1764,1.0218,0.2197
10.7890,-0.1764,1.0218,0.2197
10.7900,-0.1764,1.0218,0.2197
10.7900,-0.1764,1.0218,0.2197
10.7900,-0.1747,1.0230,0.2219
10.7910,-0.1757,1.0233,0.2178
10.8100,-0.1757,1.0233,0.2178
10.8110,-0.1757,1.0233,0.2178
10.8160,-0.1757,1.0233,0.2178
10.8180,-0.1760,1.0269,0.2153
10.8190,-0.1760,1.0269,0.2153
10.8390,-0.1760,1.0269,0.2153
10.8400,-0.1760,1.0269,0.2153
10.8400,-0.1760,1.0269,0.2153
10.8420,-0.1806,1.0269,0.2160
10.8700,-0.1806,1.0269,0.2160
10.8700,-0.1806,1.0269,0.2160
10.8710,-0.1806,1.0269,0.2160
10.8710,-0.1835,1.0247,0.2170
10.8720,-0.1821,1.0237,0.2175
10.8910,-0.1821,1.0237,0.2175
10.8920,-0.1821,1.0237,0.2175
10.8920,-0.1821,1.0237,0.2175
10.8930,-0.1804,1.0233,0.2185
10.8930,-0.1804,1.0233,0.2185
10.9180,-0.1804,1.0233,0.2185
10.9190,-0.1804,1.0233,0.2185
10.9190,-0.1804,1.0233,0.2185
10.9200,-0.1782,1.0220,0.2175
10.9360,-0.1782,1.0220,0.2175
10.9500,-0.1782,1.0220,0.2175
10.9510,-0.1782,1.0220,0.2175
10.9520,-0.1782,1.0220,0.2175
10.9530,-0.1789,1.0198,0.2151
10.9770,-0.1818,1.0233,0.2168
10.9770,-0.1818,1.0233,0.2168
10.9770,-0.1818,1.0233,0.2168
10.9780,-0.1818,1.0233,0.2168
10.9780,-0.1833,1.0262,0.2185
10.9780,-0.1833,1.0262,0.2185
10.9980,-0.1833,1.0262,0.2185
10.9980,-0.1833,1.0262,0.2185
10.9980,-0.1833,1.0262,0.2185
10.9980,-0.1801,1.0240,0.2200
11.0290,-0.1801,1.0240,0.2200
11.0300,-0.1801,1.0240,0.2200
11.0310,-0.1801,1.0240,0.2200
11.0310,-0.1779,1.0172,0.2197
11.0320,-0.1811,1.0220,0.2185
11.0490,-0.1811,1.0220,0.2185
11.0500,-0.1811,1.0220,0.2185
11.0500,-0.1811,1.0220,0.2185
11.0510,-0.1830,1.0281,0.2190
11.0510,-0.1830,1.0281,0.2190
11.0800,-0.1830,1.0281,0.2190
11.0800,-0.1830,1.0281,0.2190
11.0810,-0.1830,1.0281,0.2190
11.0810,-0.1818,1.0267,0.2178
11.1090,-0.1818,1.0267,0.2178
11.1100,-0.1818,1.0267,0.2178
11.1100,-0.1818,1.0267,0.2178
11.1110,-0.1786,1.0242,0.2187
11.1120,-0.1762,1.0201,0.2226
11.1300,-0.1762,1.0201,0.2226
11.1310,-0.1762,1.0201,0.2226
11.1330,-0.1762,1.0201,0.2226
11.1340,-0.1730,1.0159,0.2219
11.1350,-0.1730,1.0159,0.2219
11.1390,-0.1730,1.0159,0.2219
11.1590,-0.1730,1.0159,0.2219
11.1590,-0.1730,1.0159,0.2219
11.1600,-0.1730,1.0159,0.2219
11.1600,-0.1742,1.0193,0.2178
11.1890,-0.1742,1.0193,0.2178
11.1900,-0.1742,1.0193,0.2178
11.1910,-0.1742,1.0193,0.2178
11.1970,-0.1750,1.0259,0.2173
11.1980,-0.1757,1.0286,0.2182
11.2100,-0.1757,1.0286,0.2182
11.2120,-0.1757,1.0286,0.2182
11.2120,-0.1757,1.0286,0.2182
11.2130,-0.1774,1.0245,0.2173
11.2140,-0.1774,1.0245,0.2173
11.2400,-0.1774,1.0245,0.2173
11.2400,-0.1774,1.0245,0.2173
11.2410,-0.1774,1.0245,0.2173
11.2420,-0.1811,1.0215,0.2182
11.2700,-0.1811,1.0215,0.2182
11.2710,-0.1811,1.0215,0.2182
11.2710,-0.1811,1.0215,0.2182
11.2720,-0.1799,1.0208,0.2190
11.2720,-0.1789,1.0247,0.2222
11.2910,-0.1789,1.0247,0.2222
11.2930,-0.1789,1.0247,0.2222
11.2940,-0.1789,1.0247,0.2222
11.2950,-0.1769,1.0237,0.2229
11.2960,-0.1769,1.0237,0.2229
11.3230,-0.1769,1.0237,0.2229
11.3240,-0.1769,1.0237,0.2229
11.3260,-0.1769,1.0237,0.2229
11.3270,-0.1725,1.0174,0.2192
11.3340,-0.1725,1.0174,0.2192
11.3500,-0.1725,1.0174,0.2192
11.3520,-0.1725,1.0174,0.2192
11.3520,-0.1725,1.0174,0.2192
11.3530,-0.1708,1.0191,0.2204
11.3530,-0.1716,1.0230,0.2168
11.3710,-0.1716,1.0230,0.2168
11.3710,-0.1716,1.0230,0.2168
11.3720,-0.1716,1.0230,0.2168
11.3720,-0.1733,1.0250,0.2175
11.3730,-0.1733,1.0250,0.2175
11.4020,-0.1733,1.0250,0.2175
11.4020,-0.1733,1.0250,0.2175
11.4030,-0.1733,1.0250,0.2175
11.4040,-0.1779,1.0262,0.2178
11.4300,-0.1779,1.0262,0.2178
11.4310,-0.1779,1.0262,0.2178
11.4340,-0.1779,1.0262,0.2178
11.4360,-0.1804,1.0242,0.2212
11.4370,-0.1796,1.0215,0.2195
11.4500,-0.1796,1.0215,0.2195
11.4510,-0.1796,1.0215,0.2195
11.4520,-0.1796,1.0215,0.2195
11.4520,-0.1762,1.0201,0.2180
11.4530,-0.1762,1.0201,0.2180
11.4840,-0.1762,1.0201,0.2180
11.4850,-0.1762,1.0201,0.2180
11.4860,-0.1762,1.0201,0.2180
11.4870,-0.1777,1.0223,0.2192
11.5100,-0.1777,1.0223,0.2192
11.5110,-0.1777,1.0223,0.2192
11.5110,-0.1777,1.0223,0.2192
11.5120,-0.1813,1.0218,0.2187
11.5400,-0.1821,1.0196,0.2168
11.5400,-0.1821,1.0196,0.2168
11.5410,-0.1821,1.0196,0.2168
11.5410,-0.1821,1.0196,0.2168
11.5410,-0.1833,1.0215,0.2165
11.5410,-0.1833,1.0215,0.2165
11.5420,-0.1833,1.0215,0.2165
11.5570,-0.1833,1.0215,0.2165
11.5580,-0.1833,1.0215,0.2165
11.5580,-0.1833,1.0215,0.2165
11.5600,-0.1808,1.0257,0.2173
11.5880,-0.1808,1.0257,0.2173
11.5890,-0.1808,1.0257,0.2173
11.5890,-0.1808,1.0257,0.2173
11.5900,-0.1779,1.0257,0.2197
11.5900,-0.1755,1.0264,0.2195
11.6090,-0.1755,1.0264,0.2195
11.6100,-0.1755,1.0264,0.2195
11.6110,-0.1755,1.0264,0.2195
11.6120,-0.1757,1.0264,0.2180
11.6130,-0.1757,1.0264,0.2180
11.6380,-0.1757,1.0264,0.2180
11.6390,-0.1757,1.0264,0.2180
11.6400,-0.1757,1.0264,0.2180
11.7550,-0.1760,1.0240,0.2214
11.7640,-0.1760,1.0240,0.2214
11.7660,-0.1760,1.0240,0.2214
11.7680,-0.1760,1.0240,0.2214
11.7690,-0.1760,1.0240,0.2214
11.7700,-0.1760,1.0240,0.2214
11.7710,-0.1760,1.0240,0.2214
11.7790,-0.1760,1.0240,0.2214
11.7790,-0.1760,1.0240,0.2214
11.7800,-0.1760,1.0240,0.2214
11.7810,-0.1760,1.0240,0.2214
11.7820,-0.1760,1.0240,0.2214
11.7820,-0.1760,1.0240,0.2214
11.7830,-0.1721,1.0235,0.2229
11.7830,-0.1679,1.0223,0.2222
11.7840,-0.1677,1.0189,0.2243
11.7840,-0.1684,1.0211,0.2222
11.7850,-0.1747,1.0272,0.2185
11.7850,-0.1808,1.0296,0.2168
11.7860,-0.1808,1.0296,0.2168
11.7860,-0.1808,1.0296,0.2168
11.7870,-0.1808,1.0296,0.2168
11.7870,-0.1808,1.0296,0.2168
11.7880,-0.1808,1.0296,0.2168
11.7890,-0.1826,1.0259,0.2192
11.7890,-0.1826,1.0259,0.2192
11.7990,-0.1826,1.0259,0.2192
11.8000,-0.1826,1.0259,0.2192
11.8010,-0.1826,1.0259,0.2192
11.8010,-0.1796,1.0252,0.2256
11.8330,-0.1796,1.0252,0.2256
11.8340,-0.1796,1.0252,0.2256
11.8360,-0.1796,1.0252,0.2256
11.8360,-0.1742,1.0208,0.2239
11.8370,-0.1735,1.0203,0.2202
11.8510,-0.1735,1.0203,0.2202
11.8530,-0.1735,1.0203,0.2202
11.8550,-0.1735,1.0203,0.2202
11.8560,-0.1735,1.0240,0.2190
11.8570,-0.1735,1.0240,0.2190
11.8810,-0.1735,1.0240,0.2190
11.8820,-0.1735,1.0240,0.2190
11.8830,-0.1735,1.0240,0.2190
11.8830,-0.1742,1.0267,0.2187
11.9110,-0.1742,1.0267,0.2187
11.9120,-0.1742,1.0267,0.2187
11.9130,-0.1742,1.0267,0.2187
11.9140,-0.1779,1.0252,0.2195
11.9140,-0.1740,1.0242,0.2234
11.9320,-0.1740,1.0242,0.2234
11.9330,-0.1740,1.0242,0.2234
11.9380,-0.1740,1.0242,0.2234
11.9390,-0.1701,1.0235,0.2209
11.9400,-0.1701,1.0235,0.2209
11.9410,-0.1701,1.0235,0.2209
11.9600,-0.1701,1.0235,0.2209
11.9610,-0.1701,1.0235,0.2209
11.9620,-0.1701,1.0235,0.2209
11.9630,-0.1696,1.0237,0.2163
11.9900,-0.1696,1.0237,0.2163
11.9900,-0.1696,1.0237,0.2163
11.9910,-0.1696,1.0237,0.2163
11.9930,-0.1740,1.0259,0.2200
11.9940,-0.1750,1.0237,0.2192
12.0130,-0.1750,1.0237,0.2192
12.0140,-0.1750,1.0237,0.2192
12.0150,-0.1750,1.0237,0.2192
12.0160,-0.1747,1.0228,0.2197
12.0170,-0.1747,1.0228,0.2197
12.0400,-0.1747,1.0228,0.2197
12.0400,-0.1747,1.0228,0.2197
12.0410,-0.1747,1.0228,0.2197
12.0420,-0.1742,1.0191,0.2243
12.0700,-0.1742,1.0191,0.2243
12.0710,-0.1742,1.0191,0.2243
12.0720,-0.1742,1.0191,0.2243
12.1010,-0.1747,1.0186,0.2226
12.1020,-0.1718,1.0259,0.2239
12.1030,-0.1718,1.0259,0.2239
12.1040,-0.1718,1.0259,0.2239
12.1040,-0.1718,1.0259,0.2239
12.1050,-0.1718,1.0220,0.2248
12.1050,-0.1718,1.0220,0.2248
12.1180,-0.1718,1.0220,0.2248
12.1190,-0.1718,1.0220,0.2248
12.1200,-0.1718,1.0220,0.2248
12.1200,-0.1747,1.0201,0.2256
12.1320,-0.1747,1.0201,0.2256
12.1490,-0.1747,1.0201,0.2256
12.1490,-0.1747,1.0201,0.2256
12.1500,-0.1747,1.0201,0.2256
12.1500,-0.1721,1.0235,0.2195
12.1510,-0.1684,1.0303,0.2099
12.1780,-0.1684,1.0303,0.2099
12.1820,-0.1684,1.0303,0.2099
12.1820,-0.1684,1.0303,0.2099
12.1830,-0.1667,1.0311,0.2195
12.1830,-0.1667,1.0311,0.2195
12.1990,-0.1667,1.0311,0.2195
12.2000,-0.1667,1.0311,0.2195
12.2000,-0.1667,1.0311,0.2195
12.2010,-0.1747,1.0279,0.2185
12.2300,-0.1747,1.0279,0.2185
12.2300,-0.1747,1.0279,0.2185
12.2370,-0.1747,1.0279,0.2185
12.2380,-0.1733,1.0284,0.2129
12.2390,-0.1684,1.0274,0.2136
12.2500,-0.1684,1.0274,0.2136
12.2520,-0.1684,1.0274,0.2136
12.2530,-0.1684,1.0274,0.2136
12.2540,-0.1667,1.0240,0.2178
12.2550,-0.1667,1.0240,0.2178
12.2820,-0.1667,1.0240,0.2178
12.2830,-0.1667,1.0240,0.2178
12.2830,-0.1667,1.0240,0.2178
12.2840,-0.1657,1.0213,0.2253
12.3120,-0.1657,1.0213,0.2253
12.3130,-0.1657,1.0213,0.2253
12.3180,-0.1657,1.0213,0.2253
12.3190,-0.1657,1.0201,0.2263
12.3200,-0.1691,1.0198,0.2251
12.3350,-0.1691,1.0198,0.2251
12.3360,-0.1691,1.0198,0.2251
12.3370,-0.1691,1.0198,0.2251
12.3370,-0.1686,1.0233,0.2202
12.3380,-0.1686,1.0233,0.2202
12.3390,-0.1686,1.0233,0.2202
12.3630,-0.1686,1.0233,0.2202
12.3640,-0.1686,1.0233,0.2202
12.3640,-0.1686,1.0233,0.2202
12.3650,-0.1691,1.0299,0.2156
12.3940,-0.1691,1.0299,0.2156
12.3960,-0.1691,1.0299,0.2156
12.3970,-0.1691,1.0299,0.2156
12.3990,-0.1723,1.0281,0.2178
12.4020,-0.1725,1.0245,0.2214
12.4150,-0.1725,1.0245,0.2214
12.4160,-0.1725,1.0245,0.2214
12.4160,-0.1725,1.0245,0.2214
12.4170,-0.1718,1.0213,0.2182
12.4180,-0.1718,1.0213,0.2182
12.4400,-0.1718,1.0213,0.2182
12.4420,-0.1718,1.0213,0.2182
12.4420,-0.1718,1.0213,0.2182
12.4430,-0.1728,1.0206,0.2173
12.4720,-0.1728,1.0206,0.2173
12.4720,-0.1728,1.0206,0.2173
12.4730,-0.1728,1.0206,0.2173
12.4730,-0.1728,1.0225,0.2180
12.4740,-0.1701,1.0267,0.2217
12.4920,-0.1701,1.0267,0.2217
12.4920,-0.1701,1.0267,0.2217
12.4930,-0.1701,1.0267,0.2217
12.4940,-0.1699,1.0252,0.2248
12.4950,-0.1699,1.0252,0.2248
12.5200,-0.1699,1.0252,0.2248
12.5210,-0.1699,1.0252,0.2248
12.5230,-0.1699,1.0252,0.2248
12.5240,-0.1664,1.0240,0.2236
12.5320,-0.1664,1.0240,0.2236
12.5510,-0.1664,1.0240,0.2236
12.5590,-0.1664,1.0240,0.2236
12.5600,-0.1664,1.0240,0.2236
12.5620,-0.1657,1.0240,0.2202
12.5630,-0.1694,1.0230,0.2200
12.5750,-0.1694,1.0230,0.2200
12.5760,-0.1694,1.0230,0.2200
12.5770,-0.1694,1.0230,0.2200
12.5780,-0.1728,1.0262,0.2212
12.5790,-0.1728,1.0262,0.2212
12.6010,-0.1728,1.0262,0.2212
12.6020,-0.1728,1.0262,0.2212
12.6020,-0.1728,1.0262,0.2212
12.6030,-0.1745,1.0277,0.2224
12.6330,-0.1745,1.0277,0.2224
12.6370,-0.1745,1.0277,0.2224
12.6670,-0.1745,1.0277,0.2224
12.6690,-0.1772,1.0198,0.2212
12.6700,-0.1760,1.0228,0.2197
12.6700,-0.1760,1.0228,0.2197
12.6710,-0.1760,1.0228,0.2197
12.6720,-0.1760,1.0228,0.2197
12.6720,-0.1738,1.0255,0.2165
12.6730,-0.1738,1.0255,0.2165
12.6780,-0.1738,1.0255,0.2165
12.6790,-0.1738,1.0255,0.2165
12.6790,-0.1738,1.0255,0.2165
12.6810,-0.1760,1.0296,0.2178
12.7090,-0.1760,1.0296,0.2178
12.7100,-0.1760,1.0296,0.2178
12.7100,-0.1760,1.0296,0.2178
12.7110,-0.1784,1.0289,0.2170
12.7110,-0.1767,1.0235,0.2224
12.7330,-0.1767,1.0235,0.2224
12.7390,-0.1767,1.0235,0.2224
12.7400,-0.1767,1.0235,0.2224
12.7400,-0.1745,1.0213,0.2226
12.7410,-0.1745,1.0213,0.2226
12.7410,-0.1745,1.0213,0.2226
12.7600,-0.1745,1.0213,0.2226
12.7610,-0.1745,1.0213,0.2226
12.7620,-0.1745,1.0213,0.2226
12.7620,-0.1684,1.0215,0.2214
12.7950,-0.1684,1.0215,0.2214
12.7960,-0.1684,1.0215,0.2214
12.7970,-0.1684,1.0215,0.2214
12.7970,-0.1701,1.0215,0.2197
12.7980,-0.1740,1.0245,0.2204
12.8120,-0.1740,1.0245,0.2204
12.8130,-0.1740,1.0245,0.2204
12.8150,-0.1740,1.0245,0.2204
12.8160,-0.1767,1.0252,0.2192
12.8180,-0.1767,1.0252,0.2192
12.8420,-0.1767,1.0252,0.2192
12.8430,-0.1767,1.0252,0.2192
12.8430,-0.1767,1.0252,0.2192
12.8440,-0.1813,1.0252,0.2182
12.8740,-0.1813,1.0252,0.2182
12.8750,-0.1813,1.0252,0.2182
12.8760,-0.1813,1.0252,0.2182
12.8770,-0.1835,1.0215,0.2185
12.8770,-0.1808,1.0237,0.2182
12.8930,-0.1808,1.0237,0.2182
12.8970,-0.1808,1.0237,0.2182
12.8970,-0.1808,1.0237,0.2182
12.8980,-0.1762,1.0250,0.2200
12.8980,-0.1762,1.0250,0.2200
12.9200,-0.1762,1.0250,0.2200
12.9200,-0.1762,1.0250,0.2200
12.9210,-0.1762,1.0250,0.2200
12.9220,-0.1738,1.0235,0.2195
12.9320,-0.1738,1.0235,0.2195
12.9510,-0.1738,1.0235,0.2195
12.9520,-0.1738,1.0235,0.2195
12.9520,-0.1738,1.0235,0.2195
12.9530,-0.1689,1.0186,0.2229
12.9530,-0.1647,1.0191,0.2246
12.9720,-0.1647,1.0191,0.2246
12.9730,-0.1647,1.0191,0.2246
12.9740,-0.1647,1.0191,0.2246
12.9750,-0.1637,1.0203,0.2195
12.9760,-0.1637,1.0203,0.2195
13.0010,-0.1637,1.0203,0.2195
13.0020,-0.1637,1.0203,0.2195
13.0020,-0.1637,1.0203,0.2195
13.0030,-0.1645,1.0255,0.2185
13.0310,-0.1645,1.0255,0.2185
13.0320,-0.1645,1.0255,0.2185
13.0330,-0.1645,1.0255,0.2185
13.0340,-0.1711,1.0272,0.2200
13.0350,-0.1735,1.0272,0.2190
13.0530,-0.1735,1.0272,0.2190
13.0540,-0.1735,1.0272,0.2190
13.0540,-0.1735,1.0272,0.2190
13.0560,-0.1703,1.0259,0.2214
13.0560,-0.1703,1.0259,0.2214
13.0810,-0.1703,1.0259,0.2214
13.0820,-0.1703,1.0259,0.2214
13.0820,-0.1703,1.0259,0.2214
13.0830,-0.1721,1.0228,0.2241
13.1120,-0.1721,1.0228,0.2241
13.1130,-0.1721,1.0228,0.2241
13.1130,-0.1721,1.0228,0.2241
13.1140,-0.1733,1.0228,0.2217
13.1140,-0.1701,1.0203,0.2209
13.1380,-0.1701,1.0203,0.2209
13.1390,-0.1701,1.0203,0.2209
13.1400,-0.1701,1.0203,0.2209
13.1410,-0.1699,1.0235,0.2190
13.1410,-0.1699,1.0235,0.2190
13.1430,-0.1699,1.0235,0.2190
13.1600,-0.1699,1.0235,0.2190
13.1610,-0.1699,1.0235,0.2190
13.1620,-0.1699,1.0235,0.2190
13.1630,-0.1718,1.0250,0.2197
13.1950,-0.1718,1.0250,0.2197
13.2230,-0.1718,1.0250,0.2197
13.2240,-0.1718,1.0250,0.2197
13.2240,-0.1721,1.0247,0.2190
13.2250,-0.1750,1.0237,0.2200
13.2250,-0.1750,1.0237,0.2200
13.2260,-0.1750,1.0237,0.2200
13.2260,-0.1750,1.0237,0.2200
13.2260,-0.1733,1.0267,0.2212
13.2270,-0.1733,1.0267,0.2212
13.2410,-0.1733,1.0267,0.2212
13.2410,-0.1733,1.0267,0.2212
13.2420,-0.1733,1.0267,0.2212
13.2420,-0.1699,1.0259,0.2251
13.2750,-0.1699,1.0259,0.2251
13.2760,-0.1699,1.0259,0.2251
13.2770,-0.1699,1.0259,0.2251
13.2770,-0.1691,1.0218,0.2231
13.2780,-0.1721,1.0215,0.2209
13.2950,-0.1721,1.0215,0.2209
13.2960,-0.1721,1.0215,0.2209
13.2980,-0.1721,1.0215,0.2209
13.3000,-0.1747,1.0255,0.2180
13.3010,-0.1747,1.0255,0.2180
13.3210,-0.1747,1.0255,0.2180
13.3220,-0.1747,1.0255,0.2180
13.3220,-0.1747,1.0255,0.2180
13.3230,-0.1789,1.0259,0.2156
13.3320,-0.1789,1.0259,0.2156
13.3520,-0.1789,1.0259,0.2156
13.3540,-0.1789,1.0259,0.2156
13.3570,-0.1789,1.0259,0.2156
13.3570,-0.1789,1.0237,0.2165
13.3580,-0.1767,1.0250,0.2190
13.3730,-0.1767,1.0250,0.2190
13.3740,-0.1767,1.0250,0.2190
13.3760,-0.1767,1.0250,0.2190
13.3760,-0.1752,1.0262,0.2197
13.3770,-0.1752,1.0262,0.2197
13.4030,-0.1752,1.0262,0.2197
13.4040,-0.1752,1.0262,0.2197
13.4040,-0.1752,1.0262,0.2197
13.4050,-0.1747,1.0235,0.2224
13.4390,-0.1747,1.0235,0.2224
13.4400,-0.1747,1.0235,0.2224
13.4410,-0.1747,1.0235,0.2224
13.4440,-0.1735,1.0208,0.2251
13.4450,-0.1694,1.0233,0.2212
13.4560,-0.1694,1.0233,0.2212
13.4570,-0.1694,1.0233,0.2212
13.4570,-0.1694,1.0233,0.2212
13.4580,-0.1677,1.0235,0.2192
13.4590,-0.1677,1.0235,0.2192
13.4820,-0.1677,1.0235,0.2192
13.4830,-0.1677,1.0235,0.2192
13.4830,-0.1677,1.0235,0.2192
13.4840,-0.1672,1.0220,0.2204
13.5220,-0.1672,1.0220,0.2204
13.5220,-0.1672,1.0220,0.2204
13.5230,-0.1672,1.0220,0.2204
13.5230,-0.1659,1.0211,0.2217
13.5240,-0.1672,1.0247,0.2209
13.5330,-0.1672,1.0247,0.2209
13.5350,-0.1672,1.0247,0.2209
13.5350,-0.1672,1.0247,0.2209
13.5350,-0.1684,1.0279,0.2212
13.5350,-0.1684,1.0279,0.2212
13.5370,-0.1684,1.0279,0.2212
13.5610,-0.1684,1.0279,0.2212
13.5610,-0.1684,1.0279,0.2212
13.5610,-0.1684,1.0279,0.2212
13.5610,-0.1740,1.0289,0.2165
13.5910,-0.1740,1.0289,0.2165
13.5920,-0.1740,1.0289,0.2165
13.5920,-0.1740,1.0289,0.2165
13.5920,-0.1745,1.0284,0.2185
13.5920,-0.1723,1.0228,0.2202
13.6100,-0.1723,1.0228,0.2202
13.6100,-0.1723,1.0228,0.2202
13.6100,-0.1723,1.0228,0.2202
13.6110,-0.1708,1.0242,0.2207
13.6110,-0.1708,1.0242,0.2207
13.6400,-0.1708,1.0242,0.2207
13.6400,-0.1708,1.0242,0.2207
13.6400,-0.1708,1.0242,0.2207
13.6410,-0.1725,1.0267,0.2222
13.6730,-0.1725,1.0267,0.2222
13.6740,-0.1725,1.0267,0.2222
13.6740,-0.1725,1.0267,0.2222
13.6740,-0.1740,1.0255,0.2229
13.6750,-0.1721,1.0240,0.2212
13.6930,-0.1721,1.0240,0.2212
13.6940,-0.1721,1.0240,0.2212
13.6940,-0.1721,1.0240,0.2212
13.6980,-0.1684,1.0213,0.2209
13.6980,-0.1684,1.0213,0.2209
13.7230,-0.1684,1.0213,0.2209
13.7230,-0.1684,1.0213,0.2209
13.7240,-0.1684,1.0213,0.2209
13.7240,-0.1686,1.0208,0.2212
13.7320,-0.1686,1.0208,0.2212
13.7510,-0.1686,1.0208,0.2212
13.7520,-0.1686,1.0208,0.2212
13.7520,-0.1686,1.0208,0.2212
13.7530,-0.1674,1.0233,0.2187
13.7530,-0.1674,1.0225,0.2192
13.7730,-0.1674,1.0225,0.2192
13.7730,-0.1674,1.0225,0.2192
13.7730,-0.1674,1.0225,0.2192
13.7730,-0.1733,1.0193,0.2207
13.7760,-0.1733,1.0193,0.2207
13.8030,-0.1733,1.0193,0.2207
13.8030,-0.1733,1.0193,0.2207
13.8030,-0.1733,1.0193,0.2207
13.8040,-0.1750,1.0215,0.2195
13.8320,-0.1750,1.0215,0.2195
13.8330,-0.1750,1.0215,0.2195
13.8330,-0.1750,1.0215,0.2195
13.8330,-0.1779,1.0257,0.2168
13.8330,-0.1804,1.0250,0.2148
13.8530,-0.1804,1.0250,0.2148
13.8530,-0.1804,1.0250,0.2148
13.8540,-0.1804,1.0250,0.2148
13.8570,-0.1782,1.0223,0.2148
13.8580,-0.1782,1.0223,0.2148
13.8820,-0.1782,1.0223,0.2148
13.8830,-0.1782,1.0223,0.2148
13.8830,-0.1782,1.0223,0.2148
13.8830,-0.1755,1.0211,0.2192
13.9120,-0.1755,1.0211,0.2192
13.9120,-0.1755,1.0211,0.2192
13.9130,-0.1755,1.0211,0.2192
13.9130,-0.1725,1.0201,0.2202
13.9130,-0.1703,1.0233,0.2204
13.9360,-0.1703,1.0233,0.2204
13.9360,-0.1703,1.0233,0.2204
13.9360,-0.1703,1.0233,0.2204
13.9370,-0.1723,1.0223,0.2207
13.9370,-0.1723,1.0223,0.2207
13.9370,-0.1723,1.0223,0.2207
13.9630,-0.1723,1.0223,0.2207
13.9630,-0.1723,1.0223,0.2207
13.9640,-0.1723,1.0223,0.2207
13.9640,-0.1713,1.0240,0.2187
13.9940,-0.1713,1.0240,0.2187
13.9950,-0.1713,1.0240,0.2187
13.9950,-0.1713,1.0240,0.2187
13.9960,-0.1757,1.0255,0.2187
13.9960,-0.1804,1.0233,0.2158
14.0160,-0.1804,1.0233,0.2158
14.0170,-0.1804,1.0233,0.2158
14.0170,-0.1804,1.0233,0.2158
14.0170,-0.1828,1.0213,0.2165
14.0180,-0.1828,1.0213,0.2165
14.0430,-0.1828,1.0213,0.2165
14.0430,-0.1828,1.0213,0.2165
14.0440,-0.1828,1.0213,0.2165
14.0440,-0.1796,1.0233,0.2197
14.0740,-0.1796,1.0233,0.2197
14.0750,-0.1796,1.0233,0.2197
14.0750,-0.1796,1.0233,0.2197
14.0750,-0.1723,1.0225,0.2217
14.0750,-0.1677,1.0225,0.2236
14.0960,-0.1677,1.0225,0.2236
14.0960,-0.1677,1.0225,0.2236
14.0960,-0.1677,1.0225,0.2236
14.0970,-0.1686,1.0198,0.2209
14.0970,-0.1686,1.0198,0.2209
14.1230,-0.1686,1.0198,0.2209
14.1230,-0.1686,1.0198,0.2209
14.1230,-0.1686,1.0198,0.2209
14.1240,-0.1691,1.0193,0.2165
14.1350,-0.1691,1.0193,0.2165
14.1550,-0.1691,1.0193,0.2165
14.1560,-0.1691,1.0193,0.2165
14.1560,-0.1691,1.0193,0.2165
14.1560,-0.1677,1.0284,0.2200
14.1570,-0.1655,1.0313,0.2207
14.1740,-0.1655,1.0313,0.2207
14.1740,-0.1655,1.0313,0.2207
14.1750,-0.1655,1.0313,0.2207
14.1750,-0.1659,1.0250,0.2231
14.1750,-0.1659,1.0250,0.2231
14.2030,-0.1659,1.0250,0.2231
14.2040,-0.1659,1.0250,0.2231
14.2040,-0.1659,1.0250,0.2231
14.2040,-0.1637,1.0189,0.2231
14.2330,-0.1637,1.0189,0.2231
14.2340,-0.1637,1.0189,0.2231
14.2340,-0.1637,1.0189,0.2231
14.2340,-0.1640,1.0225,0.2246
14.2350,-0.1662,1.0274,0.2217
14.2580,-0.1662,1.0274,0.2217
14.2590,-0.1662,1.0274,0.2217
14.2590,-0.1662,1.0274,0.2217
14.2590,-0.1733,1.0299,0.2187
14.2620,-0.1733,1.0299,0.2187
14.2830,-0.1733,1.0299,0.2187
14.2830,-0.1733,1.0299,0.2187
14.2840,-0.1733,1.0299,0.2187
14.2840,-0.1777,1.0269,0.2195
14.3130,-0.1777,1.0269,0.2195
14.3140,-0.1777,1.0269,0.2195
14.3140,-0.1777,1.0269,0.2195
14.3140,-0.1801,1.0230,0.2209
14.3140,-0.1804,1.0223,0.2214
14.3320,-0.1804,1.0223,0.2214
14.3400,-0.1804,1.0223,0.2214
14.3410,-0.1804,1.0223,0.2214
14.3410,-0.1804,1.0223,0.2214
14.3410,-0.1747,1.0208,0.2209
14.3410,-0.1747,1.0208,0.2209
14.3620,-0.1747,1.0208,0.2209
14.3620,-0.1747,1.0208,0.2209
14.3630,-0.1747,1.0208,0.2209
14.3630,-0.1750,1.0237,0.2219
14.3930,-0.1750,1.0237,0.2219
14.3930,-0.1750,1.0237,0.2219
14.3930,-0.1750,1.0237,0.2219
14.3940,-0.1742,1.0277,0.2209
14.3940,-0.1750,1.0262,0.2192
14.4170,-0.1750,1.0262,0.2192
14.4180,-0.1750,1.0262,0.2192
14.4180,-0.1750,1.0262,0.2192
14.4180,-0.1745,1.0220,0.2173
14.4190,-0.1745,1.0220,0.2173
14.4450,-0.1745,1.0220,0.2173
14.4450,-0.1745,1.0220,0.2173
14.4450,-0.1745,1.0220,0.2173
14.4460,-0.1760,1.0230,0.2175
14.4740,-0.1760,1.0230,0.2175
14.4750,-0.1760,1.0230,0.2175
14.4750,-0.1760,1.0230,0.2175
14.4750,-0.1769,1.0242,0.2178
14.4750,-0.1728,1.0274,0.2182
14.4950,-0.1728,1.0274,0.2182
14.4960,-0.1728,1.0274,0.2182
14.4960,-0.1728,1.0274,0.2182
14.4960,-0.1708,1.0274,0.2226
14.4960,-0.1708,1.0274,0.2226
14.5240,-0.1708,1.0274,0.2226
14.5240,-0.1708,1.0274,0.2226
14.5250,-0.1708,1.0274,0.2226
14.5250,-0.1672,1.0245,0.2224
14.5330,-0.1672,1.0245,0.2224
14.5570,-0.1672,1.0245,0.2224
14.5570,-0.1672,1.0245,0.2224
14.5580,-0.1672,1.0245,0.2224
14.5580,-0.1706,1.0257,0.2204
14.5580,-0.1750,1.0247,0.2180
14.5740,-0.1750,1.0247,0.2180
14.5750,-0.1750,1.0247,0.2180
14.5750,-0.1750,1.0247,0.2180
14.5750,-0.1747,1.0255,0.2170
14.5760,-0.1747,1.0255,0.2170
14.6030,-0.1747,1.0255,0.2170
14.6040,-0.1747,1.0255,0.2170
14.6040,-0.1747,1.0255,0.2170
14.6040,-0.1733,1.0211,0.2182
14.6350,-0.1733,1.0211,0.2182
14.6350,-0.1733,1.0211,0.2182
14.6360,-0.1733,1.0211,0.2182
14.6360,-0.1738,1.0181,0.2222
14.6360,-0.1760,1.0198,0.2243
14.6550,-0.1760,1.0198,0.2243
14.6560,-0.1760,1.0198,0.2243
14.6560,-0.1760,1.0198,0.2243
14.6570,-0.1733,1.0245,0.2231
14.6570,-0.1733,1.0245,0.2231
14.6850,-0.1733,1.0245,0.2231
14.6860,-0.1733,1.0245,0.2231
14.6860,-0.1733,1.0245,0.2231
14.6860,-0.1711,1.0281,0.2180
14.7170,-0.1711,1.0281,0.2180
14.7170,-0.1711,1.0281,0.2180
14.7170,-0.1711,1.0281,0.2180
14.7170,-0.1718,1.0269,0.2160
14.7180,-0.1718,1.0247,0.2202
14.7390,-0.1718,1.0247,0.2202
14.7390,-0.1718,1.0247,0.2202
14.7400,-0.1718,1.0247,0.2202
14.7400,-0.1718,1.0247,0.2202
14.7400,-0.1686,1.0245,0.2195
14.7400,-0.1686,1.0245,0.2195
14.7640,-0.1686,1.0245,0.2195
14.7650,-0.1686,1.0245,0.2195
14.7650,-0.1686,1.0245,0.2195
14.7650,-0.1667,1.0247,0.2202
14.7950,-0.1667,1.0247,0.2202
14.7950,-0.1667,1.0247,0.2202
14.7960,-0.1667,1.0247,0.2202
14.7960,-0.1684,1.0196,0.2226
14.7960,-0.1716,1.0198,0.2222
14.8170,-0.1716,1.0198,0.2222
14.8170,-0.1716,1.0198,0.2222
14.8180,-0.1716,1.0198,0.2222
14.8180,-0.1718,1.0230,0.2207
14.8220,-0.1718,1.0230,0.2207
14.8440,-0.1718,1.0230,0.2207
14.8450,-0.1718,1.0230,0.2207
14.8450,-0.1718,1.0230,0.2207
14.8600,-0.1662,1.0235,0.2175
14.8760,-0.1662,1.0235,0.2175
14.8760,-0.1662,1.0235,0.2175
14.8760,-0.1662,1.0235,0.2175
14.8760,-0.1684,1.0206,0.2178
14.8770,-0.1703,1.0257,0.2187
14.8950,-0.1703,1.0257,0.2187
14.8950,-0.1703,1.0257,0.2187
14.8950,-0.1703,1.0257,0.2187
14.8950,-0.1733,1.0382,0.2243
14.8950,-0.1733,1.0382,0.2243
14.9230,-0.1733,1.0382,0.2243
14.9230,-0.1733,1.0382,0.2243
14.9230,-0.1733,1.0382,0.2243
14.9230,-0.1769,1.0252,0.2204
14.9320,-0.1769,1.0252,0.2204
14.9570,-0.1769,1.0252,0.2204
14.9570,-0.1769,1.0252,0.2204
14.9570,-0.1769,1.0252,0.2204
14.9570,-0.1728,1.0169,0.2200
14.9580,-0.1733,1.0250,0.2241
14.9760,-0.1733,1.0250,0.2241
14.9770,-0.1733,1.0250,0.2241
14.9770,-0.1733,1.0250,0.2241
14.9770,-0.1760,1.0250,0.2219
14.9770,-0.1760,1.0250,0.2219
15.0040,-0.1760,1.0250,0.2219
15.0050,-0.1760,1.0250,0.2219
15.0050,-0.1760,1.0250,0.2219
15.0050,-0.1730,1.0220,0.2158
15.0390,-0.1730,1.0220,0.2158
15.0400,-0.1730,1.0220,0.2158
15.0400,-0.1730,1.0220,0.2158
15.1510,-0.1711,1.0181,0.2160
15.1510,-0.1701,1.0233,0.2209
15.1590,-0.1701,1.0233,0.2209
15.1600,-0.1701,1.0233,0.2209
15.1600,-0.1701,1.0233,0.2209
15.1610,-0.1701,1.0233,0.2209
15.1610,-0.1701,1.0233,0.2209
15.1610,-0.1701,1.0233,0.2209
15.1620,-0.1701,1.0233,0.2209
15.1620,-0.1701,1.0233,0.2209
15.1620,-0.1701,1.0233,0.2209
15.1620,-0.1701,1.0233,0.2209
15.1630,-0.1701,1.0233,0.2209
15.1630,-0.1701,1.0233,0.2209
15.1630,-0.1701,1.0233,0.2209
15.1640,-0.1650,1.0347,0.2261
15.1640,-0.1686,1.0274,0.2258
15.1640,-0.1672,1.0206,0.2219
15.1640,-0.1669,1.0213,0.2202
15.1650,-0.1745,1.0252,0.2187
15.1650,-0.1745,1.0252,0.2187
15.1650,-0.1745,1.0252,0.2187
15.1660,-0.1745,1.0252,0.2187
15.1750,-0.1745,1.0252,0.2187
15.1760,-0.1745,1.0252,0.2187
15.1760,-0.1745,1.0252,0.2187
15.1760,-0.1745,1.0257,0.2182
15.1760,-0.1752,1.0211,0.2195
15.2050,-0.1752,1.0211,0.2195
15.2050,-0.1752,1.0211,0.2195
15.2060,-0.1752,1.0211,0.2195
15.2060,-0.1733,1.0206,0.2253
15.2260,-0.1733,1.0206,0.2253
15.2260,-0.1733,1.0206,0.2253
15.2260,-0.1733,1.0206,0.2253
15.2260,-0.1657,1.0203,0.2270
15.2270,-0.1657,1.0203,0.2270
15.2580,-0.1657,1.0203,0.2270
15.2580,-0.1657,1.0203,0.2270
15.2590,-0.1657,1.0203,0.2270
15.2590,-0.1662,1.0206,0.2209
15.2590,-0.1706,1.0252,0.2197
15.2860,-0.1706,1.0252,0.2197
15.2860,-0.1706,1.0252,0.2197
15.2870,-0.1706,1.0252,0.2197
15.2870,-0.1742,1.0257,0.2202
15.3060,-0.1742,1.0257,0.2202
15.3070,-0.1742,1.0257,0.2202
15.3070,-0.1742,1.0257,0.2202
15.3080,-0.1757,1.0230,0.2236
15.3080,-0.1757,1.0230,0.2236
15.3350,-0.1757,1.0230,0.2236
15.3350,-0.1757,1.0230,0.2236
15.3360,-0.1757,1.0230,0.2236
15.3360,-0.1757,1.0230,0.2236
15.3370,-0.1740,1.0196,0.2256
15.3370,-0.1752,1.0193,0.2234
15.3660,-0.1752,1.0193,0.2234
15.3660,-0.1752,1.0193,0.2234
15.3670,-0.1752,1.0193,0.2234
15.3670,-0.1689,1.0218,0.2258
15.3870,-0.1689,1.0218,0.2258
15.3870,-0.1689,1.0218,0.2258
15.3880,-0.1689,1.0218,0.2258
15.3880,-0.1603,1.0281,0.2256
15.3880,-0.1603,1.0281,0.2256
15.4170,-0.1603,1.0281,0.2256
15.4340,-0.1603,1.0281,0.2256
15.4350,-0.1603,1.0281,0.2256
15.4350,-0.1598,1.0274,0.2241
15.4350,-0.1620,1.0228,0.2212
15.4440,-0.1620,1.0228,0.2212
15.4450,-0.1620,1.0228,0.2212
15.4450,-0.1620,1.0228,0.2212
15.4450,-0.1637,1.0208,0.2219
15.4660,-0.1637,1.0208,0.2219
15.4670,-0.1637,1.0208,0.2219
15.4670,-0.1637,1.0208,0.2219
15.4670,-0.1637,1.0162,0.2195
15.4670,-0.1637,1.0162,0.2195
15.4980,-0.1637,1.0162,0.2195
15.4980,-0.1637,1.0162,0.2195
15.4990,-0.1637,1.0162,0.2195
15.4990,-0.1657,1.0147,0.2180
15.5000,-0.1694,1.0404,0.2222
15.5260,-0.1694,1.0404,0.2222
15.5260,-0.1694,1.0404,0.2222
15.5260,-0.1694,1.0404,0.2222
15.5270,-0.1762,1.0457,0.2251
15.5360,-0.1762,1.0457,0.2251
15.5470,-0.1762,1.0457,0.2251
15.5480,-0.1762,1.0457,0.2251
15.5480,-0.1762,1.0457,0.2251
15.5490,-0.1767,1.0347,0.2236
15.5490,-0.1767,1.0347,0.2236
15.5780,-0.1767,1.0347,0.2236
15.5790,-0.1767,1.0347,0.2236
15.5790,-0.1767,1.0347,0.2236
15.5800,-0.1703,1.0274,0.2302
15.5800,-0.1684,1.0088,0.2258
15.6070,-0.1684,1.0088,0.2258
15.6070,-0.1684,1.0088,0.2258
15.6070,-0.1684,1.0088,0.2258
15.6080,-0.1625,0.9996,0.2207
15.6270,-0.1625,0.9996,0.2207
15.6270,-0.1625,0.9996,0.2207
15.6280,-0.1625,0.9996,0.2207
15.6280,-0.1652,1.0037,0.2146
15.6290,-0.1652,1.0037,0.2146
15.6570,-0.1652,1.0037,0.2146
15.6580,-0.1652,1.0037,0.2146
15.6580,-0.1652,1.0037,0.2146
15.6590,-0.1701,1.0230,0.2148
15.6590,-0.1706,1.0472,0.2187
15.6870,-0.1706,1.0472,0.2187
15.6880,-0.1706,1.0472,0.2187
15.6880,-0.1706,1.0472,0.2187
15.6880,-0.1767,1.0455,0.2222
15.7060,-0.1767,1.0455,0.2222
15.7060,-0.1767,1.0455,0.2222
15.7060,-0.1767,1.0455,0.2222
15.7070,-0.1760,1.0377,0.2258
15.7070,-0.1760,1.0377,0.2258
15.7330,-0.1760,1.0377,0.2258
15.7400,-0.1760,1.0377,0.2258
15.7400,-0.1760,1.0377,0.2258
15.7410,-0.1760,1.0377,0.2258
15.7410,-0.1718,1.0272,0.2265
15.7420,-0.1694,1.0179,0.2256
15.7660,-0.1694,1.0179,0.2256
15.7670,-0.1694,1.0179,0.2256
15.7670,-0.1694,1.0179,0.2256
15.7670,-0.1677,1.0135,0.2241
15.7870,-0.1677,1.0135,0.2241
15.7880,-0.1677,1.0135,0.2241
15.7880,-0.1677,1.0135,0.2241
15.7890,-0.1647,1.0130,0.2182
15.7890,-0.1647,1.0130,0.2182
15.8210,-0.1647,1.0130,0.2182
15.8220,-0.1647,1.0130,0.2182
15.8220,-0.1647,1.0130,0.2182
15.8220,-0.1633,1.0184,0.2224
15.8230,-0.1640,1.0228,0.2268
15.8460,-0.1640,1.0228,0.2268
15.8460,-0.1640,1.0228,0.2268
15.8460,-0.1640,1.0228,0.2268
15.8470,-0.1628,1.0242,0.2295
15.8680,-0.1628,1.0242,0.2295
15.8680,-0.1628,1.0242,0.2295
15.8680,-0.1628,1.0242,0.2295
15.8690,-0.1608,1.0235,0.2287
15.8690,-0.1608,1.0235,0.2287
15.9020,-0.1608,1.0235,0.2287
15.9020,-0.1608,1.0235,0.2287
15.9020,-0.1608,1.0235,0.2287
15.9030,-0.1642,1.0242,0.2263
15.9030,-0.1696,1.0252,0.2256
15.9270,-0.1696,1.0252,0.2256
15.9270,-0.1696,1.0252,0.2256
15.9270,-0.1696,1.0252,0.2256
15.9270,-0.1740,1.0247,0.2270
15.9360,-0.1740,1.0247,0.2270
15.9480,-0.1740,1.0247,0.2270
15.9480,-0.1740,1.0247,0.2270
15.9490,-0.1740,1.0247,0.2270
15.9490,-0.1738,1.0213,0.2243
15.9490,-0.1738,1.0213,0.2243
15.9790,-0.1738,1.0213,0.2243
15.9800,-0.1738,1.0213,0.2243
15.9800,-0.1738,1.0213,0.2243
15.9800,-0.1728,1.0189,0.2231
15.9810,-0.1642,1.0181,0.2229
16.0030,-0.1642,1.0181,0.2229
16.0040,-0.1642,1.0181,0.2229
16.0040,-0.1642,1.0181,0.2229
16.0040,-0.1598,1.0198,0.2231
16.0260,-0.1598,1.0198,0.2231
16.0260,-0.1598,1.0198,0.2231
16.0260,-0.1598,1.0198,0.2231
16.0260,-0.1593,1.0245,0.2256
16.0270,-0.1593,1.0245,0.2256
16.0550,-0.1593,1.0245,0.2256
16.0560,-0.1593,1.0245,0.2256
16.0560,-0.1593,1.0245,0.2256
16.0560,-0.1608,1.0286,0.2248
16.0560,-0.1603,1.0291,0.2261
16.0850,-0.1603,1.0291,0.2261
16.0860,-0.1603,1.0291,0.2261
16.0860,-0.1603,1.0291,0.2261
16.0860,-0.1637,1.0308,0.2248
16.1060,-0.1637,1.0308,0.2248
16.1070,-0.1637,1.0308,0.2248
16.1070,-0.1637,1.0308,0.2248
16.1080,-0.1679,1.0311,0.2263
16.1080,-0.1679,1.0311,0.2263
16.1330,-0.1679,1.0311,0.2263
16.1360,-0.1679,1.0311,0.2263
16.1370,-0.1679,1.0311,0.2263
16.1370,-0.1679,1.0311,0.2263
16.1370,-0.1757,1.0240,0.2202
16.1370,-0.1755,1.0220,0.2187
16.1380,-0.1755,1.0220,0.2187
16.1650,-0.1755,1.0220,0.2187
16.1660,-0.1755,1.0220,0.2187
16.1660,-0.1755,1.0220,0.2187
16.1670,-0.1740,1.0228,0.2209
16.1890,-0.1740,1.0228,0.2209
16.1890,-0.1740,1.0228,0.2209
16.1890,-0.1740,1.0228,0.2209
16.1900,-0.1716,1.0220,0.2214
16.1900,-0.1716,1.0220,0.2214
16.2190,-0.1716,1.0220,0.2214
16.2200,-0.1716,1.0220,0.2214
16.2200,-0.1716,1.0220,0.2214
16.2200,-0.1642,1.0228,0.2248
16.2200,-0.1601,1.0230,0.2256
16.2460,-0.1601,1.0230,0.2256
16.2470,-0.1601,1.0230,0.2256
16.2470,-0.1601,1.0230,0.2256
16.2470,-0.1608,1.0259,0.2222
16.2670,-0.1608,1.0259,0.2222
16.2680,-0.1608,1.0259,0.2222
16.2680,-0.1608,1.0259,0.2222
16.2690,-0.1623,1.0281,0.2209
16.2690,-0.1623,1.0281,0.2209
16.3010,-0.1623,1.0281,0.2209
16.3020,-0.1623,1.0281,0.2209
16.3020,-0.1623,1.0281,0.2209
16.3020,-0.1662,1.0264,0.2239
16.3030,-0.1684,1.0223,0.2248
16.3270,-0.1684,1.0223,0.2248
16.3270,-0.1684,1.0223,0.2248
16.3280,-0.1684,1.0223,0.2248
16.3280,-0.1667,1.0201,0.2246
16.3330,-0.1667,1.0201,0.2246
16.3470,-0.1667,1.0201,0.2246
16.3470,-0.1667,1.0201,0.2246
16.3470,-0.1667,1.0201,0.2246
16.3480,-0.1669,1.0223,0.2241
16.3480,-0.1669,1.0223,0.2241
16.3770,-0.1669,1.0223,0.2241
16.3780,-0.1669,1.0223,0.2241
16.3780,-0.1669,1.0223,0.2241
16.3780,-0.1721,1.0206,0.2212
16.3790,-0.1728,1.0206,0.2234
16.4060,-0.1728,1.0206,0.2234
16.4070,-0.1728,1.0206,0.2234
16.4070,-0.1728,1.0206,0.2234
16.4070,-0.1679,1.0242,0.2265
16.4270,-0.1679,1.0242,0.2265
16.4280,-0.1679,1.0242,0.2265
16.4280,-0.1679,1.0242,0.2265
16.4280,-0.1613,1.0279,0.2236
16.4290,-0.1613,1.0279,0.2236
16.4590,-0.1613,1.0279,0.2236
16.4600,-0.1613,1.0279,0.2236
16.4600,-0.1613,1.0279,0.2236
16.4600,-0.1618,1.0286,0.2253
16.4610,-0.1640,1.0289,0.2265
16.4870,-0.1640,1.0289,0.2265
16.4870,-0.1640,1.0289,0.2265
16.4880,-0.1640,1.0289,0.2265
16.4880,-0.1669,1.0262,0.2270
16.5070,-0.1669,1.0262,0.2270
16.5080,-0.1669,1.0262,0.2270
16.5080,-0.1669,1.0262,0.2270
16.5080,-0.1696,1.0228,0.2222
16.5280,-0.1696,1.0228,0.2222
16.5340,-0.1696,1.0228,0.2222
16.5360,-0.1696,1.0228,0.2222
16.5360,-0.1696,1.0228,0.2222
16.5360,-0.1696,1.0228,0.2222
16.5360,-0.1691,1.0240,0.2243
16.5360,-0.1650,1.0206,0.2253
16.5650,-0.1650,1.0206,0.2253
16.5660,-0.1650,1.0206,0.2253
16.5660,-0.1650,1.0206,0.2253
16.5660,-0.1611,1.0228,0.2239
16.5870,-0.1611,1.0228,0.2239
16.5870,-0.1611,1.0228,0.2239
16.5870,-0.1611,1.0228,0.2239
16.5870,-0.1623,1.0240,0.2224
16.5880,-0.1623,1.0240,0.2224
16.6160,-0.1623,1.0240,0.2224
16.6160,-0.1623,1.0240,0.2224
16.6170,-0.1623,1.0240,0.2224
16.6170,-0.1652,1.0230,0.2231
16.6170,-0.1652,1.0262,0.2224
16.6460,-0.1652,1.0262,0.2224
16.6470,-0.1652,1.0262,0.2224
16.6470,-0.1652,1.0262,0.2224
16.6470,-0.1645,1.0255,0.2231
16.6670,-0.1645,1.0255,0.2231
16.6670,-0.1645,1.0255,0.2231
16.6680,-0.1645,1.0255,0.2231
16.6680,-0.1647,1.0228,0.2231
16.6680,-0.1647,1.0228,0.2231
16.7000,-0.1647,1.0228,0.2231
16.7000,-0.1647,1.0228,0.2231
16.7000,-0.1647,1.0228,0.2231
16.7010,-0.1642,1.0242,0.2246
16.7010,-0.1645,1.0267,0.2239
16.7270,-0.1645,1.0267,0.2239
16.7270,-0.1645,1.0267,0.2239
16.7280,-0.1645,1.0267,0.2239
16.7280,-0.1662,1.0277,0.2224
16.7370,-0.1662,1.0277,0.2224
16.7470,-0.1662,1.0277,0.2224
16.7480,-0.1662,1.0277,0.2224
16.7480,-0.1662,1.0277,0.2224
16.7480,-0.1716,1.0220,0.2202
16.7490,-0.1716,1.0220,0.2202
16.7810,-0.1716,1.0220,0.2202
16.7810,-0.1716,1.0220,0.2202
16.7810,-0.1716,1.0220,0.2202
16.7820,-0.1711,1.0218,0.2278
16.7820,-0.1696,1.0247,0.2280
16.8070,-0.1696,1.0247,0.2280
16.8080,-0.1696,1.0247,0.2280
16.8080,-0.1696,1.0247,0.2280
16.8090,-0.1655,1.0233,0.2246
16.8290,-0.1655,1.0233,0.2246
16.8290,-0.1655,1.0233,0.2246
16.8290,-0.1655,1.0233,0.2246
16.8300,-0.1637,1.0269,0.2219
16.8300,-0.1637,1.0269,0.2219
16.8610,-0.1637,1.0269,0.2219
16.8610,-0.1637,1.0269,0.2219
16.8620,-0.1637,1.0269,0.2219
16.8620,-0.1645,1.0259,0.2219
16.8620,-0.1655,1.0218,0.2236
16.8880,-0.1655,1.0218,0.2236
16.8890,-0.1655,1.0218,0.2236
16.8890,-0.1655,1.0218,0.2236
16.8890,-0.1659,1.0211,0.2236
16.9080,-0.1659,1.0211,0.2236
16.9090,-0.1659,1.0211,0.2236
16.9090,-0.1659,1.0211,0.2236
16.9090,-0.1694,1.0196,0.2243
16.9090,-0.1694,1.0196,0.2243
16.9360,-0.1694,1.0196,0.2243
16.9420,-0.1694,1.0196,0.2243
16.9430,-0.1694,1.0196,0.2243
16.9430,-0.1694,1.0196,0.2243
16.9440,-0.1701,1.0225,0.2217
16.9440,-0.1696,1.0247,0.2246
16.9670,-0.1696,1.0247,0.2246
16.9680,-0.1696,1.0247,0.2246
16.9680,-0.1696,1.0247,0.2246
16.9690,-0.1650,1.0281,0.2236
16.9880,-0.1650,1.0281,0.2236
16.9890,-0.1650,1.0281,0.2236
16.9890,-0.1650,1.0281,0.2236
16.9900,-0.1677,1.0252,0.2268
16.9900,-0.1677,1.0252,0.2268
17.0210,-0.1677,1.0252,0.2268
17.0210,-0.1677,1.0252,0.2268
17.0220,-0.1677,1.0252,0.2268
17.0220,-0.1669,1.0237,0.2253
17.0220,-0.1618,1.0233,0.2263
17.0470,-0.1618,1.0233,0.2263
17.0470,-0.1618,1.0233,0.2263
17.0480,-0.1618,1.0233,0.2263
17.0480,-0.1625,1.0235,0.2292
17.0670,-0.1625,1.0235,0.2292
17.0680,-0.1625,1.0235,0.2292
17.0680,-0.1625,1.0235,0.2292
17.1030,-0.1628,1.0230,0.2273
17.1040,-0.1628,1.0230,0.2273
17.1040,-0.1628,1.0230,0.2273
17.1040,-0.1628,1.0230,0.2273
17.1040,-0.1628,1.0230,0.2273
17.1050,-0.1669,1.0250,0.2251
17.1050,-0.1711,1.0196,0.2231
17.1260,-0.1711,1.0196,0.2231
17.1260,-0.1711,1.0196,0.2231
17.1260,-0.1711,1.0196,0.2231
17.1260,-0.1696,1.0203,0.2222
17.1320,-0.1696,1.0203,0.2222
17.1470,-0.1696,1.0203,0.2222
17.1470,-0.1696,1.0203,0.2222
17.1470,-0.1696,1.0203,0.2222
17.1470,-0.1647,1.0259,0.2270
17.1480,-0.1647,1.0259,0.2270
17.1780,-0.1647,1.0259,0.2270
17.1780,-0.1647,1.0259,0.2270
17.1780,-0.1647,1.0259,0.2270
17.1790,-0.1645,1.0255,0.2270
17.1790,-0.1615,1.0225,0.2253
17.2070,-0.1615,1.0225,0.2253
17.2070,-0.1615,1.0225,0.2253
17.2070,-0.1615,1.0225,0.2253
17.2080,-0.1571,1.0247,0.2258
17.2280,-0.1571,1.0247,0.2258
17.2280,-0.1571,1.0247,0.2258
17.2290,-0.1571,1.0247,0.2258
17.2290,-0.1586,1.0259,0.2268
17.2290,-0.1586,1.0259,0.2268
17.2610,-0.1586,1.0259,0.2268
17.2620,-0.1586,1.0259,0.2268
17.2620,-0.1586,1.0259,0.2268
17.2620,-0.1640,1.0274,0.2224
17.2630,-0.1584,1.0242,0.2182
17.2870,-0.1584,1.0242,0.2182
17.2880,-0.1584,1.0242,0.2182
17.2880,-0.1584,1.0242,0.2182
17.2890,-0.1527,1.0255,0.2173
17.3080,-0.1527,1.0255,0.2173
17.3090,-0.1527,1.0255,0.2173
17.3090,-0.1527,1.0255,0.2173
17.3090,-0.1567,1.0286,0.2151
17.3100,-0.1567,1.0286,0.2151
17.3400,-0.1567,1.0286,0.2151
17.3410,-0.1567,1.0286,0.2151
17.3410,-0.1567,1.0286,0.2151
17.3420,-0.1567,1.0286,0.2151
17.3420,-0.1625,1.0264,0.2178
17.3420,-0.1652,1.0250,0.2239
17.3680,-0.1652,1.0250,0.2239
17.3680,-0.1652,1.0250,0.2239
17.3690,-0.1652,1.0250,0.2239
17.3690,-0.1679,1.0213,0.2295
17.3890,-0.1679,1.0213,0.2295
17.3900,-0.1679,1.0213,0.2295
17.3900,-0.1679,1.0213,0.2295
17.3900,-0.1691,1.0206,0.2339
17.3910,-0.1691,1.0206,0.2339
17.4180,-0.1691,1.0206,0.2339
17.4190,-0.1691,1.0206,0.2339
17.4190,-0.1691,1.0206,0.2339
17.4190,-0.1725,1.0176,0.2361
17.4200,-0.1723,1.0174,0.2334
17.4490,-0.1723,1.0174,0.2334
17.4490,-0.1723,1.0174,0.2334
17.4500,-0.1723,1.0174,0.2334
17.4500,-0.1723,1.0201,0.2265
17.4690,-0.1723,1.0201,0.2265
17.4700,-0.1723,1.0201,0.2265
17.4700,-0.1723,1.0201,0.2265
17.4710,-0.1779,1.0237,0.2231
17.4710,-0.1779,1.0237,0.2231
17.4990,-0.1779,1.0237,0.2231
17.4990,-0.1779,1.0237,0.2231
17.4990,-0.1779,1.0237,0.2231
17.5000,-0.1791,1.0220,0.2212
17.5000,-0.1706,1.0198,0.2231
17.5280,-0.1706,1.0198,0.2231
17.5280,-0.1706,1.0198,0.2231
17.5290,-0.1706,1.0198,0.2231
17.5290,-0.1571,1.0235,0.2241
17.5320,-0.1571,1.0235,0.2241
17.5490,-0.1571,1.0235,0.2241
17.5490,-0.1571,1.0235,0.2241
17.5490,-0.1571,1.0235,0.2241
17.5500,-0.1549,1.0255,0.2327
17.5500,-0.1549,1.0255,0.2327
17.5810,-0.1549,1.0255,0.2327
17.5810,-0.1549,1.0255,0.2327
17.5820,-0.1549,1.0255,0.2327
17.5820,-0.1567,1.0206,0.2378
17.5820,-0.1593,1.0179,0.2390
17.6080,-0.1593,1.0179,0.2390
17.6080,-0.1593,1.0179,0.2390
17.6090,-0.1593,1.0179,0.2390
17.6090,-0.1652,1.0176,0.2368
17.6310,-0.1652,1.0176,0.2368
17.6310,-0.1652,1.0176,0.2368
17.6490,-0.1652,1.0176,0.2368
17.6500,-0.1699,1.0206,0.2339
17.6500,-0.1699,1.0206,0.2339
17.6580,-0.1699,1.0206,0.2339
17.6580,-0.1699,1.0206,0.2339
17.6580,-0.1699,1.0206,0.2339
17.6590,-0.1708,1.0255,0.2331
17.6590,-0.1735,1.0269,0.2273
17.6870,-0.1735,1.0269,0.2273
17.6870,-0.1735,1.0269,0.2273
17.6870,-0.1735,1.0269,0.2273
17.6870,-0.1774,1.0228,0.2268
17.7090,-0.1774,1.0228,0.2268
17.7090,-0.1774,1.0228,0.2268
17.7090,-0.1774,1.0228,0.2268
17.7100,-0.1806,1.0208,0.2283
17.7100,-0.1806,1.0208,0.2283
17.7320,-0.1806,1.0208,0.2283
17.7380,-0.1806,1.0208,0.2283
17.7390,-0.1806,1.0208,0.2283
17.7390,-0.1806,1.0208,0.2283
17.7390,-0.1789,1.0215,0.2300
17.7390,-0.1786,1.0228,0.2263
17.7680,-0.1786,1.0228,0.2263
17.7680,-0.1786,1.0228,0.2263
17.7680,-0.1786,1.0228,0.2263
17.7690,-0.1816,1.0230,0.2217
17.7890,-0.1816,1.0230,0.2217
17.7900,-0.1816,1.0230,0.2217
17.7900,-0.1816,1.0230,0.2217
17.7910,-0.1830,1.0240,0.2209
17.7910,-0.1830,1.0240,0.2209
17.8190,-0.1830,1.0240,0.2209
17.8190,-0.1830,1.0240,0.2209
17.8200,-0.1830,1.0240,0.2209
17.8200,-0.1794,1.0208,0.2253
17.8210,-0.1782,1.0215,0.2285
17.8490,-0.1782,1.0215,0.2285
17.8490,-0.1782,1.0215,0.2285
17.8500,-0.1782,1.0215,0.2285
17.8500,-0.1703,1.0240,0.2287
17.8690,-0.1703,1.0240,0.2287
17.8690,-0.1703,1.0240,0.2287
17.8700,-0.1703,1.0240,0.2287
17.8700,-0.1662,1.0237,0.2239
17.8700,-0.1662,1.0237,0.2239
17.8980,-0.1662,1.0237,0.2239
17.8980,-0.1662,1.0237,0.2239
17.8980,-0.1662,1.0237,0.2239
17.8990,-0.1667,1.0262,0.2224
17.8990,-0.1735,1.0269,0.2275
17.9290,-0.1735,1.0269,0.2275
17.9290,-0.1735,1.0269,0.2275
17.9290,-0.1735,1.0269,0.2275
17.9300,-0.1813,1.0203,0.2275
17.9330,-0.1813,1.0203,0.2275
17.9490,-0.1813,1.0203,0.2275
17.9490,-0.1813,1.0203,0.2275
17.9490,-0.1813,1.0203,0.2275
17.9500,-0.1813,1.0128,0.2292
17.9500,-0.1813,1.0128,0.2292
17.9800,-0.1813,1.0128,0.2292
17.9800,-0.1813,1.0128,0.2292
17.9800,-0.1813,1.0128,0.2292
17.9810,-0.1757,1.0167,0.2263
17.9810,-0.1708,1.0247,0.2258
18.0090,-0.1708,1.0247,0.2258
18.0090,-0.1708,1.0247,0.2258
18.0100,-0.1708,1.0247,0.2258
18.0100,-0.1721,1.0267,0.2246
18.0290,-0.1721,1.0267,0.2246
18.0300,-0.1721,1.0267,0.2246
18.0300,-0.1721,1.0267,0.2246
18.0310,-0.1716,1.0267,0.2263
18.0310,-0.1716,1.0267,0.2263
18.0590,-0.1716,1.0267,0.2263
18.0600,-0.1716,1.0267,0.2263
18.0600,-0.1716,1.0267,0.2263
18.0600,-0.1711,1.0269,0.2295
18.0610,-0.1721,1.0245,0.2319
18.0890,-0.1721,1.0245,0.2319
18.0900,-0.1721,1.0245,0.2319
18.0900,-0.1721,1.0245,0.2319
18.0900,-0.1779,1.0218,0.2295
18.1100,-0.1779,1.0218,0.2295
18.1100,-0.1779,1.0218,0.2295
18.1100,-0.1779,1.0218,0.2295
18.1110,-0.1806,1.0201,0.2285
18.1110,-0.1806,1.0201,0.2285
18.1330,-0.1806,1.0201,0.2285
18.1390,-0.1806,1.0201,0.2285
18.1400,-0.1806,1.0201,0.2285
18.1400,-0.1806,1.0201,0.2285
18.1410,-0.1828,1.0206,0.2295
18.1410,-0.1784,1.0230,0.2312
18.1690,-0.1784,1.0230,0.2312
18.1690,-0.1784,1.0230,0.2312
18.1700,-0.1784,1.0230,0.2312
18.1700,-0.1752,1.0245,0.2336
18.1900,-0.1752,1.0245,0.2336
18.2140,-0.1752,1.0245,0.2336
18.2150,-0.1752,1.0245,0.2336
18.2160,-0.1728,1.0228,0.2287
18.2170,-0.1728,1.0228,0.2287
18.2200,-0.1728,1.0228,0.2287
18.2200,-0.1728,1.0228,0.2287
18.2210,-0.1728,1.0228,0.2287
18.3390,-0.1706,1.0176,0.2253
18.3390,-0.1701,1.0142,0.2283
18.3430,-0.1701,1.0142,0.2283
18.3430,-0.1701,1.0142,0.2283
18.3440,-0.1701,1.0142,0.2283
18.3440,-0.1701,1.0142,0.2283
18.3450,-0.1701,1.0142,0.2283
18.3450,-0.1701,1.0142,0.2283
18.3460,-0.1701,1.0142,0.2283
18.3460,-0.1701,1.0142,0.2283
18.3460,-0.1701,1.0142,0.2283
18.3470,-0.1701,1.0142,0.2283
18.3470,-0.1701,1.0142,0.2283
18.3480,-0.1701,1.0142,0.2283
18.3480,-0.1674,1.0172,0.2302
18.3490,-0.2016,0.9978,0.2510
18.3490,-0.1476,1.0401,0.2336
18.3490,-0.1205,1.0198,0.1738
18.3500,-0.1503,1.0303,0.2217
18.3500,-0.1503,1.0303,0.2217
18.3510,-0.1503,1.0303,0.2217
18.3510,-0.1503,1.0303,0.2217
18.3520,-0.1503,1.0303,0.2217
18.3520,-0.1503,1.0303,0.2217
18.3520,-0.1488,1.0093,0.2495
18.3530,-0.1488,1.0093,0.2495
18.3790,-0.1488,1.0093,0.2495
18.3800,-0.1488,1.0093,0.2495
18.3800,-0.1488,1.0093,0.2495
18.3800,-0.1794,1.0018,0.2578
18.3810,-0.1928,1.0242,0.2468
18.4090,-0.1928,1.0242,0.2468
18.4090,-0.1928,1.0242,0.2468
18.4100,-0.1928,1.0242,0.2468
18.4100,-0.1823,1.0262,0.2243
18.4330,-0.1823,1.0262,0.2243
18.4330,-0.1823,1.0262,0.2243
18.4340,-0.1823,1.0262,0.2243
18.4340,-0.1826,1.0255,0.2204
18.4350,-0.1826,1.0255,0.2204
18.4610,-0.1826,1.0255,0.2204
18.4620,-0.1826,1.0255,0.2204
18.4620,-0.1826,1.0255,0.2204
18.4630,-0.1830,1.0286,0.2251
18.4630,-0.1794,1.0286,0.2295
18.4900,-0.1794,1.0286,0.2295
18.4900,-0.1794,1.0286,0.2295
18.4910,-0.1794,1.0286,0.2295
18.4910,-0.1801,1.0303,0.2339
18.5110,-0.1801,1.0303,0.2339
18.5120,-0.1801,1.0303,0.2339
18.5120,-0.1801,1.0303,0.2339
18.5120,-0.1733,1.0247,0.2368
18.5130,-0.1733,1.0247,0.2368
18.5390,-0.1733,1.0247,0.2368
18.5390,-0.1733,1.0247,0.2368
18.5400,-0.1733,1.0247,0.2368
18.5400,-0.1733,1.0247,0.2368
18.5410,-0.1562,1.0147,0.2344
18.5410,-0.1459,1.0237,0.2314
18.5710,-0.1459,1.0237,0.2314
18.5720,-0.1459,1.0237,0.2314
18.5720,-0.1459,1.0237,0.2314
18.5730,-0.1439,1.0355,0.2302
18.5920,-0.1439,1.0355,0.2302
18.5920,-0.1439,1.0355,0.2302
18.5930,-0.1439,1.0355,0.2302
18.5930,-0.1479,1.0325,0.2207
18.5940,-0.1479,1.0325,0.2207
18.6200,-0.1479,1.0325,0.2207
18.6210,-0.1479,1.0325,0.2207
18.6210,-0.1479,1.0325,0.2207
18.6220,-0.1589,1.0213,0.2253
18.6220,-0.1596,1.0186,0.2314
18.6500,-0.1596,1.0186,0.2314
18.6510,-0.1596,1.0186,0.2314
18.6510,-0.1596,1.0186,0.2314
18.6520,-0.1571,1.0218,0.2336
18.6710,-0.1571,1.0218,0.2336
18.6720,-0.1571,1.0218,0.2336
18.6720,-0.1571,1.0218,0.2336
18.6730,-0.1647,1.0255,0.2351
18.6730,-0.1647,1.0255,0.2351
18.7000,-0.1647,1.0255,0.2351
18.7010,-0.1647,1.0255,0.2351
18.7020,-0.1647,1.0255,0.2351
18.7020,-0.1703,1.0245,0.2412
18.7030,-0.1696,1.0211,0.2463
18.7300,-0.1696,1.0211,0.2463
18.7300,-0.1696,1.0211,0.2463
18.7310,-0.1696,1.0211,0.2463
18.7310,-0.1740,1.0145,0.2454
18.7320,-0.1740,1.0145,0.2454
18.7490,-0.1740,1.0145,0.2454
18.7500,-0.1740,1.0145,0.2454
18.7500,-0.1740,1.0145,0.2454
18.7500,-0.1740,1.0145,0.2454
18.7500,-0.1711,1.0130,0.2495
18.7530,-0.1711,1.0130,0.2495
18.7780,-0.1711,1.0130,0.2495
18.7780,-0.1711,1.0130,0.2495
18.7780,-0.1711,1.0130,0.2495
18.7790,-0.1655,1.0103,0.2459
18.7790,-0.1645,1.0193,0.2473
18.8080,-0.1645,1.0193,0.2473
18.8090,-0.1645,1.0193,0.2473
18.8090,-0.1645,1.0193,0.2473
18.8100,-0.1520,1.0303,0.2537
18.8300,-0.1520,1.0303,0.2537
18.8300,-0.1520,1.0303,0.2537
18.8310,-0.1520,1.0303,0.2537
18.8310,-0.1398,1.0365,0.2410
18.8320,-0.1398,1.0365,0.2410
18.8630,-0.1398,1.0365,0.2410
18.8630,-0.1398,1.0365,0.2410
18.8640,-0.1398,1.0365,0.2410
18.8640,-0.1334,1.0330,0.2373
18.8650,-0.1239,1.0230,0.2380
18.8910,-0.1239,1.0230,0.2380
18.8920,-0.1239,1.0230,0.2380
18.8920,-0.1239,1.0230,0.2380
18.8920,-0.1202,1.0132,0.2481
18.9110,-0.1202,1.0132,0.2481
18.9120,-0.1202,1.0132,0.2481
18.9120,-0.1202,1.0132,0.2481
18.9130,-0.1246,1.0135,0.2532
18.9130,-0.1246,1.0135,0.2532
18.9360,-0.1246,1.0135,0.2532
18.9450,-0.1246,1.0135,0.2532
18.9450,-0.1246,1.0135,0.2532
18.9460,-0.1246,1.0135,0.2532
18.9460,-0.1300,1.0169,0.2517
18.9460,-0.1295,1.0286,0.2512
18.9710,-0.1295,1.0286,0.2512
18.9710,-0.1295,1.0286,0.2512
18.9720,-0.1295,1.0286,0.2512
18.9720,-0.1312,1.0367,0.2556
18.9910,-0.1312,1.0367,0.2556
18.9910,-0.1312,1.0367,0.2556
18.9920,-0.1312,1.0367,0.2556
18.9920,-0.1359,1.0259,0.2551
18.9930,-0.1359,1.0259,0.2551
19.0220,-0.1359,1.0259,0.2551
19.0220,-0.1359,1.0259,0.2551
19.0220,-0.1359,1.0259,0.2551
19.0230,-0.1317,1.0186,0.2459
19.0230,-0.1239,1.0242,0.2454
19.0520,-0.1239,1.0242,0.2454
19.0520,-0.1239,1.0242,0.2454
19.0520,-0.1239,1.0242,0.2454
19.0530,-0.1212,1.0308,0.2422
19.0720,-0.1212,1.0308,0.2422
19.0720,-0.1212,1.0308,0.2422
19.0730,-0.1212,1.0308,0.2422
19.0730,-0.1215,1.0250,0.2463
19.0730,-0.1215,1.0250,0.2463
19.0990,-0.1215,1.0250,0.2463
19.1000,-0.1215,1.0250,0.2463
19.1000,-0.1215,1.0250,0.2463
19.1010,-0.1281,1.0174,0.2532
19.1010,-0.1410,1.0162,0.2549
19.1300,-0.1410,1.0162,0.2549
19.1300,-0.1410,1.0162,0.2549
19.1310,-0.1410,1.0162,0.2549
19.1310,-0.1523,1.0128,0.2520
19.1370,-0.1523,1.0128,0.2520
19.1370,-0.1523,1.0128,0.2520
19.1530,-0.1523,1.0128,0.2520
19.1530,-0.1523,1.0128,0.2520
19.1530,-0.1523,1.0128,0.2520
19.1540,-0.1567,1.0174,0.2522
19.1540,-0.1567,1.0174,0.2522
19.1810,-0.1567,1.0174,0.2522
19.1810,-0.1567,1.0174,0.2522
19.1820,-0.1567,1.0174,0.2522
19.1820,-0.1645,1.0242,0.2581
19.1830,-0.1628,1.0262,0.2525
19.2120,-0.1628,1.0262,0.2525
19.2120,-0.1628,1.0262,0.2525
19.2130,-0.1628,1.0262,0.2525
19.2130,-0.1635,1.0323,0.2503
19.2320,-0.1635,1.0323,0.2503
19.2330,-0.1635,1.0323,0.2503
19.2330,-0.1635,1.0323,0.2503
19.2340,-0.1647,1.0184,0.2471
19.2340,-0.1647,1.0184,0.2471
19.2610,-0.1647,1.0184,0.2471
19.2620,-0.1647,1.0184,0.2471
19.2620,-0.1647,1.0184,0.2471
19.2630,-0.1579,1.0098,0.2485
19.2630,-0.1571,1.0040,0.2556
19.2900,-0.1571,1.0040,0.2556
19.2910,-0.1571,1.0040,0.2556
19.3120,-0.1571,1.0040,0.2556
19.3130,-0.1598,1.0030,0.2561
19.3130,-0.1598,1.0030,0.2561
19.3130,-0.1598,1.0030,0.2561
19.3140,-0.1598,1.0030,0.2561
19.3140,-0.1554,1.0115,0.2549
19.3150,-0.1554,1.0115,0.2549
19.3320,-0.1554,1.0115,0.2549
19.3400,-0.1554,1.0115,0.2549
19.3400,-0.1554,1.0115,0.2549
19.3400,-0.1554,1.0115,0.2549
19.3400,-0.1540,1.0208,0.2615
19.3410,-0.1371,1.0225,0.2505
19.3700,-0.1371,1.0225,0.2505
19.3700,-0.1371,1.0225,0.2505
19.3700,-0.1371,1.0225,0.2505
19.3700,-0.1364,1.0252,0.2368
19.3910,-0.1364,1.0252,0.2368
19.3910,-0.1364,1.0252,0.2368
19.3910,-0.1364,1.0252,0.2368
19.3910,-0.1569,1.0120,0.2559
19.3920,-0.1569,1.0120,0.2559
19.4200,-0.1569,1.0120,0.2559
19.4200,-0.1569,1.0120,0.2559
19.4210,-0.1569,1.0120,0.2559
19.4210,-0.1669,1.0042,0.2647
19.4220,-0.1650,0.9981,0.2742
19.4500,-0.1650,0.9981,0.2742
19.4510,-0.1650,0.9981,0.2742
19.4510,-0.1650,0.9981,0.2742
19.4520,-0.1591,1.0064,0.2791
19.4710,-0.1591,1.0064,0.2791
19.4720,-0.1591,1.0064,0.2791
19.4720,-0.1591,1.0064,0.2791
19.4730,-0.1452,1.0140,0.2705
19.4730,-0.1452,1.0140,0.2705
19.4990,-0.1452,1.0140,0.2705
19.5000,-0.1452,1.0140,0.2705
19.5000,-0.1452,1.0140,0.2705
19.5010,-0.1393,1.0201,0.2674
19.5010,-0.1413,1.0145,0.2705
19.5300,-0.1413,1.0145,0.2705
19.5310,-0.1413,1.0145,0.2705
19.5310,-0.1413,1.0145,0.2705
19.5320,-0.1437,1.0193,0.2813
19.5320,-0.1437,1.0193,0.2813
19.5370,-0.1437,1.0193,0.2813
19.5530,-0.1437,1.0193,0.2813
19.5530,-0.1437,1.0193,0.2813
19.5540,-0.1437,1.0193,0.2813
19.5540,-0.1471,1.0208,0.2742
19.5540,-0.1471,1.0208,0.2742
19.5550,-0.1471,1.0208,0.2742
19.5810,-0.1471,1.0208,0.2742
19.5820,-0.1471,1.0208,0.2742
19.5820,-0.1471,1.0208,0.2742
19.5830,-0.1508,1.0196,0.2696
19.5830,-0.1530,1.0152,0.2774
19.6100,-0.1530,1.0152,0.2774
19.6110,-0.1530,1.0152,0.2774
19.6110,-0.1530,1.0152,0.2774
19.6120,-0.1483,1.0096,0.2825
19.6310,-0.1483,1.0096,0.2825
19.6320,-0.1483,1.0096,0.2825
19.6320,-0.1483,1.0096,0.2825
19.6330,-0.1464,1.0140,0.2842
19.6330,-0.1464,1.0140,0.2842
19.6620,-0.1464,1.0140,0.2842
19.6620,-0.1464,1.0140,0.2842
19.6630,-0.1464,1.0140,0.2842
19.6630,-0.1405,1.0235,0.2823
19.6630,-0.1271,1.0164,0.2810
19.6930,-0.1271,1.0164,0.2810
19.6930,-0.1271,1.0164,0.2810
19.6940,-0.1271,1.0164,0.2810
19.6940,-0.1176,1.0169,0.2845
19.7120,-0.1176,1.0169,0.2845
19.7120,-0.1176,1.0169,0.2845
19.7120,-0.1176,1.0169,0.2845
19.7130,-0.1154,1.0159,0.2876
19.7130,-0.1154,1.0159,0.2876
19.7370,-0.1154,1.0159,0.2876
19.7470,-0.1154,1.0159,0.2876
19.7470,-0.1154,1.0159,0.2876
19.7480,-0.1154,1.0159,0.2876
19.7480,-0.1139,1.0000,0.2989
19.7490,-0.1205,0.9920,0.3048
19.7730,-0.1205,0.9920,0.3048
19.7730,-0.1205,0.9920,0.3048
19.7740,-0.1205,0.9920,0.3048
19.7740,-0.1278,0.9917,0.2991
19.7920,-0.1278,0.9917,0.2991
19.7920,-0.1278,0.9917,0.2991
19.7920,-0.1278,0.9917,0.2991
19.7960,-0.1268,1.0120,0.2752
19.7970,-0.1268,1.0120,0.2752
19.8210,-0.1268,1.0120,0.2752
19.8220,-0.1268,1.0120,0.2752
19.8220,-0.1268,1.0120,0.2752
19.8240,-0.1317,1.0250,0.2654
19.8340,-0.1383,1.0152,0.2752
19.8510,-0.1383,1.0152,0.2752
19.8520,-0.1383,1.0152,0.2752
19.8520,-0.1383,1.0152,0.2752
19.8540,-0.1347,1.0052,0.2876
19.8690,-0.1347,1.0052,0.2876
19.8750,-0.1347,1.0052,0.2876
19.8760,-0.1347,1.0052,0.2876
19.8760,-0.1315,0.9976,0.2852
19.8760,-0.1315,0.9976,0.2852
19.9010,-0.1315,0.9976,0.2852
19.9020,-0.1315,0.9976,0.2852
19.9020,-0.1315,0.9976,0.2852
19.9020,-0.1347,0.9969,0.2886
19.9030,-0.1376,1.0066,0.2916
19.9340,-0.1376,1.0066,0.2916
19.9340,-0.1376,1.0066,0.2916
19.9340,-0.1376,1.0066,0.2916
19.9350,-0.1364,1.0196,0.2810
19.9350,-0.1364,1.0196,0.2810
19.9510,-0.1364,1.0196,0.2810
19.9520,-0.1364,1.0196,0.2810
19.9520,-0.1364,1.0196,0.2810
19.9530,-0.1310,1.0387,0.2835
19.9530,-0.1310,1.0387,0.2835
