
time,AccelerometerX,AccelerometerY,AccelerometerZ
0.0110,-0.2070,1.0162,0.2153
0.0120,-0.2070,1.0162,0.2153
0.0120,-0.2070,1.0162,0.2153
0.0120,-0.2158,1.0172,0.2050
0.0240,-0.2158,1.0172,0.2050
0.0250,-0.2158,1.0172,0.2050
0.0250,-0.2158,1.0172,0.2050
0.0250,-0.2080,1.0301,0.1977
0.0260,-0.2080,1.0301,0.1977
0.0570,-0.2080,1.0301,0.1977
0.0570,-0.2080,1.0301,0.1977
0.0570,-0.2080,1.0301,0.1977
0.0580,-0.2046,1.0164,0.2156
0.0580,-0.2060,1.0096,0.2268
0.0820,-0.2060,1.0096,0.2268
0.0820,-0.2060,1.0096,0.2268
0.0820,-0.2060,1.0096,0.2268
0.0820,-0.2087,1.0184,0.2224
0.1040,-0.2087,1.0184,0.2224
0.1070,-0.2087,1.0184,0.2224
0.1070,-0.2087,1.0184,0.2224
0.1070,-0.2116,1.0176,0.2153
0.1080,-0.2116,1.0176,0.2153
0.1270,-0.2116,1.0176,0.2153
0.1350,-0.2116,1.0176,0.2153
0.1350,-0.2116,1.0176,0.2153
0.1360,-0.2116,1.0176,0.2153
0.1360,-0.2109,1.0179,0.2156
0.1370,-0.2097,1.0167,0.2134
0.1620,-0.2097,1.0167,0.2134
0.1630,-0.2097,1.0167,0.2134
0.1630,-0.2097,1.0167,0.2134
0.1640,-0.2112,1.0198,0.2119
0.1820,-0.2112,1.0198,0.2119
0.1830,-0.2112,1.0198,0.2119
0.1830,-0.2112,1.0198,0.2119
0.1840,-0.2102,1.0184,0.2109
0.1840,-0.2102,1.0184,0.2109
0.2140,-0.2102,1.0184,0.2109
0.2140,-0.2102,1.0184,0.2109
0.2150,-0.2102,1.0184,0.2109
0.2150,-0.2080,1.0181,0.2116
0.2150,-0.2087,1.0193,0.2109
0.2440,-0.2087,1.0193,0.2109
0.2440,-0.2087,1.0193,0.2109
0.2440,-0.2087,1.0193,0.2109
0.2450,-0.2077,1.0186,0.2119
0.2620,-0.2077,1.0186,0.2119
0.2630,-0.2077,1.0186,0.2119
0.2640,-0.2077,1.0186,0.2119
0.2640,-0.2068,1.0132,0.2146
0.2640,-0.2068,1.0132,0.2146
0.2960,-0.2068,1.0132,0.2146
0.2960,-0.2068,1.0132,0.2146
0.2960,-0.2068,1.0132,0.2146
0.2970,-0.2085,1.0098,0.2136
0.2970,-0.2112,1.0118,0.2102
0.3250,-0.2112,1.0118,0.2102
0.3250,-0.2112,1.0118,0.2102
0.3260,-0.2112,1.0118,0.2102
0.3260,-0.2114,1.0164,0.2077
0.3260,-0.2114,1.0164,0.2077
0.3440,-0.2114,1.0164,0.2077
0.3450,-0.2114,1.0164,0.2077
0.3450,-0.2114,1.0164,0.2077
0.3460,-0.2082,1.0196,0.2041
0.3460,-0.2082,1.0196,0.2041
0.3750,-0.2082,1.0196,0.2041
0.3750,-0.2082,1.0196,0.2041
0.3760,-0.2082,1.0196,0.2041
0.3760,-0.2087,1.0267,0.2119
0.3770,-0.2026,1.0272,0.2251
0.4050,-0.2026,1.0272,0.2251
0.4050,-0.2026,1.0272,0.2251
0.4060,-0.2026,1.0272,0.2251
0.4060,-0.1972,1.0264,0.2190
0.4250,-0.1972,1.0264,0.2190
0.4260,-0.1972,1.0264,0.2190
0.4270,-0.1972,1.0264,0.2190
0.4270,-0.1965,1.0198,0.2036
0.4270,-0.1965,1.0198,0.2036
0.4550,-0.1965,1.0198,0.2036
0.4560,-0.1965,1.0198,0.2036
0.4560,-0.1965,1.0198,0.2036
0.4560,-0.1980,1.0064,0.2148
0.4640,-0.1958,1.0062,0.2241
0.4850,-0.1958,1.0062,0.2241
0.4850,-0.1958,1.0062,0.2241
0.4860,-0.1958,1.0062,0.2241
0.4860,-0.1980,1.0110,0.2204
0.5060,-0.1980,1.0110,0.2204
0.5060,-0.1980,1.0110,0.2204
0.5080,-0.1980,1.0110,0.2204
0.5080,-0.2021,1.0145,0.2178
0.5090,-0.2021,1.0145,0.2178
0.5280,-0.2021,1.0145,0.2178
0.5360,-0.2021,1.0145,0.2178
0.5370,-0.2021,1.0145,0.2178
0.5370,-0.2021,1.0145,0.2178
0.5370,-0.2033,1.0172,0.2121
0.5380,-0.2058,1.0189,0.2050
0.5640,-0.2058,1.0189,0.2050
0.5640,-0.2058,1.0189,0.2050
0.5650,-0.2058,1.0189,0.2050
0.5670,-0.2097,1.0181,0.2124
0.5850,-0.2097,1.0181,0.2124
0.5880,-0.2097,1.0181,0.2124
0.5880,-0.2097,1.0181,0.2124
0.5890,-0.2082,1.0174,0.2212
0.5890,-0.2082,1.0174,0.2212
0.6150,-0.2082,1.0174,0.2212
0.6150,-0.2082,1.0174,0.2212
0.6160,-0.2082,1.0174,0.2212
0.6160,-0.2036,1.0130,0.2207
0.6170,-0.2026,1.0091,0.2190
0.6440,-0.2026,1.0091,0.2190
0.6450,-0.2026,1.0091,0.2190
0.6450,-0.2026,1.0091,0.2190
0.6470,-0.2024,1.0113,0.2143
0.6650,-0.2024,1.0113,0.2143
0.6680,-0.2024,1.0113,0.2143
0.6680,-0.2024,1.0113,0.2143
0.6690,-0.2046,1.0164,0.2170
0.6690,-0.2046,1.0164,0.2170
0.6950,-0.2046,1.0164,0.2170
0.6960,-0.2046,1.0164,0.2170
0.6960,-0.2046,1.0164,0.2170
0.6970,-0.2082,1.0193,0.2182
0.6980,-0.2124,1.0184,0.2143
0.7270,-0.2124,1.0184,0.2143
0.7270,-0.2124,1.0184,0.2143
0.7280,-0.2124,1.0184,0.2143
0.7280,-0.2129,1.0196,0.2090
0.7300,-0.2129,1.0196,0.2090
0.7450,-0.2129,1.0196,0.2090
0.7450,-0.2129,1.0196,0.2090
0.7460,-0.2129,1.0196,0.2090
0.7480,-0.2129,1.0196,0.2087
0.7480,-0.2129,1.0196,0.2087
0.7750,-0.2129,1.0196,0.2087
0.7750,-0.2129,1.0196,0.2087
0.7750,-0.2129,1.0196,0.2087
0.7780,-0.2131,1.0198,0.2065
0.7790,-0.2104,1.0172,0.2055
0.8050,-0.2104,1.0172,0.2055
0.8050,-0.2104,1.0172,0.2055
0.8050,-0.2104,1.0172,0.2055
0.8070,-0.2160,1.0145,0.2058
0.8240,-0.2160,1.0145,0.2058
0.8270,-0.2160,1.0145,0.2058
0.8270,-0.2160,1.0145,0.2058
0.8270,-0.2226,1.0132,0.2099
0.8280,-0.2226,1.0132,0.2099
0.8550,-0.2226,1.0132,0.2099
0.8550,-0.2226,1.0132,0.2099
0.8550,-0.2226,1.0132,0.2099
0.8580,-0.2173,1.0123,0.2160
0.8580,-0.2104,1.0172,0.2160
0.8850,-0.2104,1.0172,0.2160
0.8850,-0.2104,1.0172,0.2160
0.8860,-0.2104,1.0172,0.2160
0.8860,-0.2063,1.0191,0.2143
0.9050,-0.2063,1.0191,0.2143
0.9080,-0.2063,1.0191,0.2143
0.9090,-0.2063,1.0191,0.2143
0.9090,-0.2038,1.0198,0.2107
0.9090,-0.2038,1.0198,0.2107
0.9280,-0.2038,1.0198,0.2107
0.9370,-0.2038,1.0198,0.2107
0.9370,-0.2038,1.0198,0.2107
0.9370,-0.2038,1.0198,0.2107
0.9380,-0.2050,1.0245,0.2082
0.9380,-0.2092,1.0208,0.2072
0.9650,-0.2092,1.0208,0.2072
0.9660,-0.2092,1.0208,0.2072
0.9660,-0.2092,1.0208,0.2072
0.9690,-0.2087,1.0118,0.2138
0.9860,-0.2087,1.0118,0.2138
0.9860,-0.2087,1.0118,0.2138
0.9860,-0.2087,1.0118,0.2138
0.9890,-0.2131,1.0101,0.2143
0.9900,-0.2131,1.0101,0.2143
1.0140,-0.2131,1.0101,0.2143
1.0140,-0.2131,1.0101,0.2143
1.0150,-0.2131,1.0101,0.2143
1.0230,-0.2114,1.0152,0.2163
1.0240,-0.2082,1.0255,0.2134
1.0440,-0.2082,1.0255,0.2134
1.0440,-0.2082,1.0255,0.2134
1.0450,-0.2082,1.0255,0.2134
1.0470,-0.2060,1.0262,0.2072
1.0660,-0.2060,1.0262,0.2072
1.0660,-0.2060,1.0262,0.2072
1.0660,-0.2060,1.0262,0.2072
1.0700,-0.2033,1.0215,0.2060
1.0700,-0.2033,1.0215,0.2060
1.0950,-0.2033,1.0215,0.2060
1.0960,-0.2033,1.0215,0.2060
1.0960,-0.2033,1.0215,0.2060
1.0980,-0.2065,1.0176,0.2058
1.0990,-0.2129,1.0147,0.2092
1.1270,-0.2129,1.0147,0.2092
1.1280,-0.2129,1.0147,0.2092
1.1280,-0.2129,1.0147,0.2092
1.1280,-0.2138,1.0106,0.2160
1.1310,-0.2138,1.0106,0.2160
1.1460,-0.2138,1.0106,0.2160
1.1490,-0.2138,1.0106,0.2160
1.1500,-0.2138,1.0106,0.2160
1.1500,-0.2055,1.0113,0.2185
1.1500,-0.2055,1.0113,0.2185
1.1760,-0.2055,1.0113,0.2185
1.1760,-0.2055,1.0113,0.2185
1.1760,-0.2055,1.0113,0.2185
1.1770,-0.2033,1.0125,0.2158
1.1770,-0.2072,1.0152,0.2136
1.2060,-0.2072,1.0152,0.2136
1.2060,-0.2072,1.0152,0.2136
1.2060,-0.2072,1.0152,0.2136
1.2070,-0.2094,1.0186,0.2131
1.2250,-0.2094,1.0186,0.2131
1.2290,-0.2094,1.0186,0.2131
1.2290,-0.2094,1.0186,0.2131
1.2300,-0.2158,1.0193,0.2097
1.2300,-0.2158,1.0193,0.2097
1.2550,-0.2158,1.0193,0.2097
1.2550,-0.2158,1.0193,0.2097
1.2550,-0.2158,1.0193,0.2097
1.2560,-0.2185,1.0179,0.2060
1.2560,-0.2185,1.0218,0.2077
1.2860,-0.2185,1.0218,0.2077
1.2860,-0.2185,1.0218,0.2077
1.2860,-0.2185,1.0218,0.2077
1.2870,-0.2200,1.0169,0.2094
1.3070,-0.2200,1.0169,0.2094
1.3070,-0.2200,1.0169,0.2094
1.3070,-0.2200,1.0169,0.2094
1.3090,-0.2153,1.0123,0.2119
1.3100,-0.2153,1.0123,0.2119
1.3280,-0.2153,1.0123,0.2119
1.3370,-0.2153,1.0123,0.2119
1.3370,-0.2153,1.0123,0.2119
1.3370,-0.2153,1.0123,0.2119
1.3370,-0.2114,1.0220,0.2175
1.3380,-0.2102,1.0233,0.2134
1.3660,-0.2102,1.0233,0.2134
1.3660,-0.2102,1.0233,0.2134
1.3660,-0.2102,1.0233,0.2134
1.3700,-0.2116,1.0172,0.2104
1.3860,-0.2116,1.0172,0.2104
1.3870,-0.2116,1.0172,0.2104
1.3870,-0.2116,1.0172,0.2104
1.3900,-0.2112,1.0201,0.2112
1.3910,-0.2112,1.0201,0.2112
1.4150,-0.2112,1.0201,0.2112
1.4150,-0.2112,1.0201,0.2112
1.4160,-0.2112,1.0201,0.2112
1.4160,-0.2141,1.0088,0.2085
1.4160,-0.2143,1.0025,0.2085
1.4470,-0.2143,1.0025,0.2085
1.4480,-0.2143,1.0025,0.2085
1.4490,-0.2143,1.0025,0.2085
1.4500,-0.2060,1.0064,0.2121
1.4660,-0.2060,1.0064,0.2121
1.4680,-0.2060,1.0064,0.2121
1.4690,-0.2060,1.0064,0.2121
1.4720,-0.2072,1.0299,0.2202
1.4730,-0.2072,1.0299,0.2202
1.4990,-0.2072,1.0299,0.2202
1.5000,-0.2072,1.0299,0.2202
1.5010,-0.2072,1.0299,0.2202
1.5020,-0.2119,1.0286,0.2151
1.5020,-0.2072,1.0101,0.2075
1.5280,-0.2072,1.0101,0.2075
1.5290,-0.2072,1.0101,0.2075
1.5310,-0.2072,1.0101,0.2075
1.5320,-0.2011,1.0137,0.2153
1.5330,-0.2011,1.0137,0.2153
1.5470,-0.2011,1.0137,0.2153
1.5480,-0.2011,1.0137,0.2153
1.5480,-0.2011,1.0137,0.2153
1.5500,-0.2082,1.0196,0.2138
1.5510,-0.2082,1.0196,0.2138
1.5760,-0.2082,1.0196,0.2138
1.5770,-0.2082,1.0196,0.2138
1.6040,-0.2082,1.0196,0.2138
1.6050,-0.2121,1.0152,0.2072
1.6050,-0.2109,1.0098,0.2077
1.6060,-0.2109,1.0098,0.2077
1.6060,-0.2109,1.0098,0.2077
1.6070,-0.2109,1.0098,0.2077
1.6070,-0.2116,1.0086,0.2153
1.6240,-0.2116,1.0086,0.2153
1.6250,-0.2116,1.0086,0.2153
1.6260,-0.2116,1.0086,0.2153
1.6260,-0.2036,1.0157,0.2134
1.6270,-0.2036,1.0157,0.2134
1.6550,-0.2036,1.0157,0.2134
1.6550,-0.2036,1.0157,0.2134
1.6560,-0.2036,1.0157,0.2134
1.6570,-0.2036,1.0193,0.2158
1.6570,-0.2072,1.0198,0.2178
1.6860,-0.2072,1.0198,0.2178
1.6870,-0.2072,1.0198,0.2178
1.6880,-0.2072,1.0198,0.2178
1.6890,-0.2075,1.0235,0.2143
1.7060,-0.2075,1.0235,0.2143
1.7070,-0.2075,1.0235,0.2143
1.7070,-0.2075,1.0235,0.2143
1.7080,-0.2070,1.0176,0.2102
1.7090,-0.2070,1.0176,0.2102
1.7260,-0.2070,1.0176,0.2102
1.7410,-0.2070,1.0176,0.2102
1.7410,-0.2070,1.0176,0.2102
1.7420,-0.2070,1.0176,0.2102
1.7420,-0.2080,1.0123,0.2119
1.7430,-0.2104,1.0093,0.2170
1.7650,-0.2104,1.0093,0.2170
1.7650,-0.2104,1.0093,0.2170
1.7660,-0.2104,1.0093,0.2170
1.7670,-0.2077,1.0123,0.2160
1.7850,-0.2077,1.0123,0.2160
1.7860,-0.2077,1.0123,0.2160
1.7870,-0.2077,1.0123,0.2160
1.7870,-0.2087,1.0132,0.2143
1.7880,-0.2087,1.0132,0.2143
1.8170,-0.2087,1.0132,0.2143
1.8180,-0.2087,1.0132,0.2143
1.8190,-0.2087,1.0132,0.2143
1.8220,-0.2085,1.0125,0.2146
1.8250,-0.2038,1.0157,0.2136
1.8470,-0.2038,1.0157,0.2136
1.8480,-0.2038,1.0157,0.2136
1.8480,-0.2038,1.0157,0.2136
1.8490,-0.2055,1.0213,0.2141
1.8660,-0.2055,1.0213,0.2141
1.8670,-0.2055,1.0213,0.2141
1.8680,-0.2055,1.0213,0.2141
1.8710,-0.2116,1.0230,0.2129
1.8720,-0.2116,1.0230,0.2129
1.8970,-0.2116,1.0230,0.2129
1.8980,-0.2116,1.0230,0.2129
1.8990,-0.2116,1.0230,0.2129
1.8990,-0.2146,1.0191,0.2112
1.9010,-0.2126,1.0152,0.2109
1.9280,-0.2126,1.0152,0.2109
1.9300,-0.2126,1.0152,0.2109
1.9310,-0.2126,1.0152,0.2109
1.9310,-0.2102,1.0130,0.2129
1.9330,-0.2102,1.0130,0.2129
1.9470,-0.2102,1.0130,0.2129
1.9480,-0.2102,1.0130,0.2129
1.9490,-0.2102,1.0130,0.2129
1.9500,-0.2068,1.0101,0.2099
1.9500,-0.2068,1.0101,0.2099
1.9790,-0.2068,1.0101,0.2099
1.9810,-0.2068,1.0101,0.2099
1.9820,-0.2068,1.0101,0.2099
1.9830,-0.2077,1.0074,0.2070
1.9840,-0.2141,1.0201,0.2114
2.0070,-0.2141,1.0201,0.2114
2.0080,-0.2141,1.0201,0.2114
2.0090,-0.2141,1.0201,0.2114
2.0100,-0.2231,1.0264,0.2148
2.0290,-0.2231,1.0264,0.2148
2.0300,-0.2231,1.0264,0.2148
2.0310,-0.2231,1.0264,0.2148
2.0320,-0.2241,1.0235,0.2112
2.0330,-0.2241,1.0235,0.2112
2.0570,-0.2241,1.0235,0.2112
2.0580,-0.2241,1.0235,0.2112
2.0580,-0.2241,1.0235,0.2112
2.0590,-0.2173,1.0198,0.2092
2.0610,-0.2102,1.0106,0.2065
2.0870,-0.2102,1.0106,0.2065
2.0880,-0.2102,1.0106,0.2065
2.0890,-0.2102,1.0106,0.2065
2.0900,-0.2043,1.0115,0.2114
2.1070,-0.2043,1.0115,0.2114
2.1090,-0.2043,1.0115,0.2114
2.1100,-0.2043,1.0115,0.2114
2.1110,-0.2033,1.0184,0.2148
2.1120,-0.2033,1.0184,0.2148
2.1280,-0.2033,1.0184,0.2148
2.1400,-0.2033,1.0184,0.2148
2.1640,-0.2033,1.0184,0.2148
2.1650,-0.2033,1.0184,0.2148
2.1650,-0.2065,1.0193,0.2168
2.1650,-0.2072,1.0179,0.2146
2.1650,-0.2072,1.0179,0.2146
2.1660,-0.2072,1.0179,0.2146
2.1660,-0.2072,1.0179,0.2146
2.1660,-0.2077,1.0189,0.2099
2.1850,-0.2077,1.0189,0.2099
2.1860,-0.2077,1.0189,0.2099
2.1860,-0.2077,1.0189,0.2099
2.1860,-0.2099,1.0179,0.2072
2.1870,-0.2099,1.0179,0.2072
2.2210,-0.2099,1.0179,0.2072
2.2220,-0.2099,1.0179,0.2072
2.2230,-0.2099,1.0179,0.2072
2.2240,-0.2109,1.0132,0.2068
2.2240,-0.2087,1.0167,0.2104
2.2470,-0.2087,1.0167,0.2104
2.2480,-0.2087,1.0167,0.2104
2.2480,-0.2087,1.0167,0.2104
2.2490,-0.2016,1.0137,0.2104
2.2670,-0.2016,1.0137,0.2104
2.2680,-0.2016,1.0137,0.2104
2.2680,-0.2016,1.0137,0.2104
2.2690,-0.1980,1.0152,0.2094
2.2690,-0.1980,1.0152,0.2094
2.2980,-0.1980,1.0152,0.2094
2.2990,-0.1980,1.0152,0.2094
2.3000,-0.1980,1.0152,0.2094
2.3010,-0.1962,1.0142,0.2134
2.3010,-0.1972,1.0176,0.2195
2.3290,-0.1972,1.0176,0.2195
2.3300,-0.1972,1.0176,0.2195
2.3310,-0.1972,1.0176,0.2195
2.3330,-0.2006,1.0201,0.2165
2.3380,-0.2006,1.0201,0.2165
2.3480,-0.2006,1.0201,0.2165
2.3490,-0.2006,1.0201,0.2165
2.3500,-0.2006,1.0201,0.2165
2.3510,-0.2050,1.0235,0.2126
2.3520,-0.2050,1.0235,0.2126
2.3820,-0.2050,1.0235,0.2126
2.3830,-0.2050,1.0235,0.2126
2.3840,-0.2050,1.0235,0.2126
2.3850,-0.2075,1.0240,0.2131
2.3870,-0.2109,1.0174,0.2151
2.4080,-0.2109,1.0174,0.2151
2.4090,-0.2109,1.0174,0.2151
2.4090,-0.2109,1.0174,0.2151
2.4100,-0.2092,1.0123,0.2160
2.4280,-0.2092,1.0123,0.2160
2.4290,-0.2092,1.0123,0.2160
2.4290,-0.2092,1.0123,0.2160
2.4300,-0.2087,1.0054,0.2121
2.4310,-0.2087,1.0054,0.2121
2.4570,-0.2087,1.0054,0.2121
2.4580,-0.2087,1.0054,0.2121
2.4580,-0.2087,1.0054,0.2121
2.4590,-0.2063,1.0098,0.2099
2.4600,-0.2087,1.0203,0.2136
2.4870,-0.2087,1.0203,0.2136
2.4870,-0.2087,1.0203,0.2136
2.4880,-0.2087,1.0203,0.2136
2.4880,-0.2075,1.0277,0.2185
2.5070,-0.2075,1.0277,0.2185
2.5070,-0.2075,1.0277,0.2185
2.5080,-0.2075,1.0277,0.2185
2.5080,-0.2060,1.0215,0.2156
2.5090,-0.2060,1.0215,0.2156
2.5260,-0.2060,1.0215,0.2156
2.5380,-0.2060,1.0215,0.2156
2.5400,-0.2060,1.0215,0.2156
2.5410,-0.2060,1.0215,0.2156
2.5420,-0.2024,1.0176,0.2148
2.5430,-0.2038,1.0108,0.2141
2.5670,-0.2038,1.0108,0.2141
2.5680,-0.2038,1.0108,0.2141
2.5690,-0.2038,1.0108,0.2141
2.5700,-0.2041,1.0032,0.2124
2.5900,-0.2041,1.0032,0.2124
2.5910,-0.2041,1.0032,0.2124
2.5920,-0.2041,1.0032,0.2124
2.5930,-0.2004,1.0076,0.2151
2.5940,-0.2004,1.0076,0.2151
2.6210,-0.2004,1.0076,0.2151
2.6220,-0.2004,1.0076,0.2151
2.6230,-0.2004,1.0076,0.2151
2.6240,-0.2026,1.0308,0.2224
2.6250,-0.2087,1.0374,0.2204
2.6480,-0.2087,1.0374,0.2204
2.6490,-0.2087,1.0374,0.2204
2.6490,-0.2087,1.0374,0.2204
2.6500,-0.2080,1.0215,0.2075
2.6690,-0.2080,1.0215,0.2075
2.6700,-0.2080,1.0215,0.2075
2.6710,-0.2080,1.0215,0.2075
2.6720,-0.2043,1.0125,0.2077
2.6730,-0.2043,1.0125,0.2077
2.6990,-0.2043,1.0125,0.2077
2.7160,-0.2043,1.0125,0.2077
2.7170,-0.2043,1.0125,0.2077
2.7190,-0.2099,1.0062,0.2085
2.7190,-0.2148,1.0054,0.2043
2.7280,-0.2148,1.0054,0.2043
2.7290,-0.2148,1.0054,0.2043
2.7300,-0.2148,1.0054,0.2043
2.7300,-0.2148,1.0054,0.2043
2.7310,-0.2202,1.0201,0.2092
2.7460,-0.2202,1.0201,0.2092
2.7470,-0.2202,1.0201,0.2092
2.7480,-0.2202,1.0201,0.2092
2.7490,-0.2258,1.0257,0.2094
2.7490,-0.2258,1.0257,0.2094
2.7810,-0.2258,1.0257,0.2094
2.7810,-0.2258,1.0257,0.2094
2.7820,-0.2258,1.0257,0.2094
2.7830,-0.2214,1.0220,0.2063
2.7840,-0.2151,1.0211,0.2082
2.8070,-0.2151,1.0211,0.2082
2.8070,-0.2151,1.0211,0.2082
2.8080,-0.2151,1.0211,0.2082
2.8090,-0.2146,1.0218,0.2109
2.8290,-0.2146,1.0218,0.2109
2.8320,-0.2146,1.0218,0.2109
2.8400,-0.2146,1.0218,0.2109
2.8410,-0.2153,1.0167,0.2156
2.8420,-0.2153,1.0167,0.2156
2.8570,-0.2153,1.0167,0.2156
2.8580,-0.2153,1.0167,0.2156
2.8580,-0.2153,1.0167,0.2156
2.8590,-0.2077,1.0132,0.2138
2.8600,-0.1984,1.0062,0.2124
2.8880,-0.1984,1.0062,0.2124
2.8890,-0.1984,1.0062,0.2124
2.8900,-0.1984,1.0062,0.2124
2.8910,-0.1940,1.0079,0.2136
2.9080,-0.1940,1.0079,0.2136
2.9090,-0.1940,1.0079,0.2136
2.9090,-0.1940,1.0079,0.2136
2.9120,-0.1950,1.0128,0.2185
2.9130,-0.1950,1.0128,0.2185
2.9250,-0.1950,1.0128,0.2185
2.9360,-0.1950,1.0128,0.2185
2.9390,-0.1950,1.0128,0.2185
2.9400,-0.1950,1.0128,0.2185
2.9410,-0.2019,1.0193,0.2197
2.9420,-0.2058,1.0196,0.2168
2.9660,-0.2058,1.0196,0.2168
2.9670,-0.2058,1.0196,0.2168
2.9680,-0.2058,1.0196,0.2168
2.9690,-0.2075,1.0181,0.2134
2.9890,-0.2075,1.0181,0.2134
2.9900,-0.2075,1.0181,0.2134
2.9900,-0.2075,1.0181,0.2134
2.9910,-0.2038,1.0196,0.2138
2.9920,-0.2038,1.0196,0.2138
3.0210,-0.2038,1.0196,0.2138
3.0220,-0.2038,1.0196,0.2138
3.0230,-0.2038,1.0196,0.2138
3.0240,-0.2024,1.0181,0.2141
3.0250,-0.2063,1.0179,0.2107
3.0480,-0.2063,1.0179,0.2107
3.0490,-0.2063,1.0179,0.2107
3.0490,-0.2063,1.0179,0.2107
3.0510,-0.2087,1.0101,0.2094
3.0700,-0.2087,1.0101,0.2094
3.0710,-0.2087,1.0101,0.2094
3.0710,-0.2087,1.0101,0.2094
3.0720,-0.2107,1.0128,0.2116
3.0720,-0.2107,1.0128,0.2116
3.0980,-0.2107,1.0128,0.2116
3.0990,-0.2107,1.0128,0.2116
3.1000,-0.2107,1.0128,0.2116
3.1000,-0.2121,1.0201,0.2134
3.1010,-0.2119,1.0125,0.2136
3.1290,-0.2119,1.0125,0.2136
3.1300,-0.2119,1.0125,0.2136
3.1310,-0.2119,1.0125,0.2136
3.1310,-0.2119,1.0125,0.2136
3.1320,-0.2097,1.0179,0.2160
3.1500,-0.2097,1.0179,0.2160
3.1500,-0.2097,1.0179,0.2160
3.1530,-0.2097,1.0179,0.2160
3.1570,-0.2107,1.0289,0.2163
3.1580,-0.2107,1.0289,0.2163
3.1770,-0.2107,1.0289,0.2163
3.1780,-0.2107,1.0289,0.2163
3.1790,-0.2107,1.0289,0.2163
3.1790,-0.2097,1.0255,0.2114
3.1800,-0.2087,1.0096,0.2077
3.2080,-0.2087,1.0096,0.2077
3.2080,-0.2087,1.0096,0.2077
3.2090,-0.2087,1.0096,0.2077
3.2090,-0.2033,1.0035,0.2124
3.2270,-0.2033,1.0035,0.2124
3.2280,-0.2033,1.0035,0.2124
3.2280,-0.2033,1.0035,0.2124
3.2340,-0.2026,1.0125,0.2146
3.2350,-0.2026,1.0125,0.2146
3.2560,-0.2026,1.0125,0.2146
3.2570,-0.2026,1.0125,0.2146
3.2570,-0.2026,1.0125,0.2146
3.2580,-0.2060,1.0181,0.2124
3.2580,-0.2024,1.0179,0.2129
3.2870,-0.2024,1.0179,0.2129
3.2870,-0.2024,1.0179,0.2129
3.2880,-0.2024,1.0179,0.2129
3.2880,-0.2014,1.0230,0.2168
3.3090,-0.2014,1.0230,0.2168
3.3100,-0.2014,1.0230,0.2168
3.3110,-0.2014,1.0230,0.2168
3.3120,-0.2050,1.0242,0.2170
3.3150,-0.2050,1.0242,0.2170
3.3270,-0.2050,1.0242,0.2170
3.3370,-0.2050,1.0242,0.2170
3.3390,-0.2050,1.0242,0.2170
3.3400,-0.2050,1.0242,0.2170
3.3400,-0.2060,1.0201,0.2146
3.3410,-0.2050,1.0167,0.2165
3.3700,-0.2050,1.0167,0.2165
3.3710,-0.2050,1.0167,0.2165
3.3720,-0.2050,1.0167,0.2165
3.3730,-0.2097,1.0154,0.2151
3.3880,-0.2097,1.0154,0.2151
3.3900,-0.2097,1.0154,0.2151
3.3900,-0.2097,1.0154,0.2151
3.3910,-0.2077,1.0172,0.2099
3.3910,-0.2077,1.0172,0.2099
3.4180,-0.2077,1.0172,0.2099
3.4190,-0.2077,1.0172,0.2099
3.4190,-0.2077,1.0172,0.2099
3.4200,-0.2082,1.0142,0.2099
3.4210,-0.2092,1.0125,0.2094
3.4490,-0.2092,1.0125,0.2094
3.4510,-0.2092,1.0125,0.2094
3.4530,-0.2092,1.0125,0.2094
3.4580,-0.2092,1.0157,0.2114
3.4680,-0.2092,1.0157,0.2114
3.4690,-0.2092,1.0157,0.2114
3.4700,-0.2092,1.0157,0.2114
3.4710,-0.2114,1.0184,0.2094
3.4710,-0.2114,1.0184,0.2094
3.4990,-0.2114,1.0184,0.2094
3.5000,-0.2114,1.0184,0.2094
3.5010,-0.2114,1.0184,0.2094
3.5030,-0.2124,1.0174,0.2097
3.5040,-0.2107,1.0142,0.2124
3.5330,-0.2107,1.0142,0.2124
3.5350,-0.2107,1.0142,0.2124
3.5360,-0.2107,1.0142,0.2124
3.5370,-0.2107,1.0142,0.2124
3.5380,-0.2063,1.0169,0.2129
3.5490,-0.2063,1.0169,0.2129
3.5500,-0.2063,1.0169,0.2129
3.5510,-0.2063,1.0169,0.2129
3.5530,-0.2031,1.0167,0.2153
3.5530,-0.2031,1.0167,0.2153
3.5780,-0.2031,1.0167,0.2153
3.5780,-0.2031,1.0167,0.2153
3.5790,-0.2031,1.0167,0.2153
3.5800,-0.2016,1.0172,0.2143
3.5810,-0.2028,1.0157,0.2131
3.6080,-0.2028,1.0157,0.2131
3.6080,-0.2028,1.0157,0.2131
3.6090,-0.2028,1.0157,0.2131
3.6090,-0.2046,1.0167,0.2121
3.6280,-0.2046,1.0167,0.2121
3.6290,-0.2046,1.0167,0.2121
3.6300,-0.2046,1.0167,0.2121
3.6340,-0.2114,1.0147,0.2116
3.6350,-0.2114,1.0147,0.2116
3.6570,-0.2114,1.0147,0.2116
3.6580,-0.2114,1.0147,0.2116
3.6590,-0.2114,1.0147,0.2116
3.6600,-0.2109,1.0150,0.2131
3.6600,-0.2085,1.0150,0.2124
3.6880,-0.2085,1.0150,0.2124
3.6890,-0.2085,1.0150,0.2124
3.6900,-0.2085,1.0150,0.2124
3.6900,-0.2085,1.0174,0.2114
3.7100,-0.2085,1.0174,0.2114
3.7100,-0.2085,1.0174,0.2114
3.7110,-0.2085,1.0174,0.2114
3.7110,-0.2094,1.0206,0.2119
3.7130,-0.2094,1.0206,0.2119
3.7260,-0.2094,1.0206,0.2119
3.7380,-0.2094,1.0206,0.2119
3.7390,-0.2094,1.0206,0.2119
3.7400,-0.2094,1.0206,0.2119
3.7400,-0.2114,1.0196,0.2158
3.7410,-0.2070,1.0157,0.2104
3.7680,-0.2070,1.0157,0.2104
3.7690,-0.2070,1.0157,0.2104
3.7700,-0.2070,1.0157,0.2104
3.7710,-0.2053,1.0137,0.2097
3.7890,-0.2053,1.0137,0.2097
3.7900,-0.2053,1.0137,0.2097
3.7900,-0.2053,1.0137,0.2097
3.7910,-0.2004,1.0179,0.2068
3.8100,-0.2004,1.0179,0.2068
3.8190,-0.2004,1.0179,0.2068
3.8190,-0.2004,1.0179,0.2068
3.8200,-0.2004,1.0179,0.2068
3.8210,-0.1994,1.0201,0.2119
3.8220,-0.2036,1.0201,0.2195
3.8470,-0.2036,1.0201,0.2195
3.8480,-0.2036,1.0201,0.2195
3.8490,-0.2036,1.0201,0.2195
3.8490,-0.2065,1.0203,0.2163
3.8680,-0.2065,1.0203,0.2163
3.8690,-0.2065,1.0203,0.2163
3.8690,-0.2065,1.0203,0.2163
3.8700,-0.2041,1.0184,0.2146
3.8700,-0.2041,1.0184,0.2146
3.9030,-0.2041,1.0184,0.2146
3.9040,-0.2041,1.0184,0.2146
3.9050,-0.2041,1.0184,0.2146
3.9060,-0.2038,1.0128,0.2126
3.9070,-0.2026,1.0167,0.2146
3.9290,-0.2026,1.0167,0.2146
3.9300,-0.2026,1.0167,0.2146
3.9300,-0.2026,1.0167,0.2146
3.9310,-0.2026,1.0167,0.2146
3.9310,-0.1984,1.0208,0.2109
3.9490,-0.1984,1.0208,0.2109
3.9500,-0.1984,1.0208,0.2109
3.9510,-0.1984,1.0208,0.2109
3.9520,-0.2014,1.0208,0.2121
3.9520,-0.2014,1.0208,0.2121
3.9790,-0.2014,1.0208,0.2121
3.9810,-0.2014,1.0208,0.2121
3.9840,-0.2014,1.0208,0.2121
3.9850,-0.2068,1.0196,0.2138
3.9860,-0.2077,1.0181,0.2148
4.0080,-0.2077,1.0181,0.2148
4.0090,-0.2077,1.0181,0.2148
4.0090,-0.2077,1.0181,0.2148
4.0100,-0.2075,1.0218,0.2143
4.0280,-0.2075,1.0218,0.2143
4.0310,-0.2075,1.0218,0.2143
4.0320,-0.2075,1.0218,0.2143
4.0340,-0.2090,1.0225,0.2107
4.0350,-0.2090,1.0225,0.2107
4.0580,-0.2090,1.0225,0.2107
4.0590,-0.2090,1.0225,0.2107
4.0590,-0.2090,1.0225,0.2107
4.0600,-0.2090,1.0191,0.2090
4.0610,-0.2097,1.0164,0.2099
4.0950,-0.2097,1.0164,0.2099
4.0950,-0.2097,1.0164,0.2099
4.0970,-0.2097,1.0164,0.2099
4.0970,-0.2065,1.0154,0.2114
4.1090,-0.2065,1.0154,0.2114
4.1090,-0.2065,1.0154,0.2114
4.1090,-0.2065,1.0154,0.2114
4.1090,-0.2055,1.0179,0.2075
4.1100,-0.2055,1.0179,0.2075
4.1280,-0.2055,1.0179,0.2075
4.1380,-0.2055,1.0179,0.2075
4.1380,-0.2055,1.0179,0.2075
4.1380,-0.2055,1.0179,0.2075
4.1390,-0.2104,1.0162,0.2065
4.1390,-0.2163,1.0135,0.2070
4.1670,-0.2163,1.0135,0.2070
4.1670,-0.2163,1.0135,0.2070
4.1680,-0.2163,1.0135,0.2070
4.1680,-0.2138,1.0140,0.2060
4.1900,-0.2138,1.0140,0.2060
4.1900,-0.2138,1.0140,0.2060
4.1910,-0.2138,1.0140,0.2060
4.1910,-0.2143,1.0193,0.2070
4.1910,-0.2143,1.0193,0.2070
4.2190,-0.2143,1.0193,0.2070
4.2190,-0.2143,1.0193,0.2070
4.2190,-0.2143,1.0193,0.2070
4.2200,-0.2141,1.0193,0.2087
4.2200,-0.2141,1.0164,0.2077
4.2480,-0.2141,1.0164,0.2077
4.2490,-0.2141,1.0164,0.2077
4.2490,-0.2141,1.0164,0.2077
4.2490,-0.2092,1.0162,0.2019
4.2690,-0.2092,1.0162,0.2019
4.2690,-0.2092,1.0162,0.2019
4.2700,-0.2092,1.0162,0.2019
4.2710,-0.2041,1.0128,0.2009
4.2710,-0.2041,1.0128,0.2009
4.3000,-0.2041,1.0128,0.2009
4.3010,-0.2041,1.0128,0.2009
4.3010,-0.2041,1.0128,0.2009
4.3010,-0.2072,1.0110,0.2043
4.3020,-0.2087,1.0132,0.2087
4.3280,-0.2087,1.0132,0.2087
4.3290,-0.2087,1.0132,0.2087
4.3290,-0.2087,1.0132,0.2087
4.3300,-0.2087,1.0132,0.2087
4.3300,-0.2075,1.0191,0.2094
4.3490,-0.2075,1.0191,0.2094
4.3500,-0.2075,1.0191,0.2094
4.3500,-0.2075,1.0191,0.2094
4.3640,-0.2087,1.0184,0.2087
4.3650,-0.2087,1.0184,0.2087
4.3780,-0.2087,1.0184,0.2087
4.3780,-0.2087,1.0184,0.2087
4.3790,-0.2087,1.0184,0.2087
4.3790,-0.2124,1.0164,0.2102
4.3790,-0.2170,1.0135,0.2065
4.4080,-0.2170,1.0135,0.2065
4.4080,-0.2170,1.0135,0.2065
4.4080,-0.2170,1.0135,0.2065
4.4090,-0.2165,1.0115,0.2058
4.4300,-0.2165,1.0115,0.2058
4.4300,-0.2165,1.0115,0.2058
4.4300,-0.2165,1.0115,0.2058
4.4310,-0.2182,1.0189,0.2036
4.4310,-0.2182,1.0189,0.2036
4.4580,-0.2182,1.0189,0.2036
4.4590,-0.2182,1.0189,0.2036
4.4590,-0.2182,1.0189,0.2036
4.4590,-0.2168,1.0201,0.2063
4.4600,-0.2136,1.0135,0.2085
4.4900,-0.2136,1.0135,0.2085
4.4910,-0.2136,1.0135,0.2085
4.4910,-0.2136,1.0135,0.2085
4.4910,-0.2082,1.0150,0.2094
4.5090,-0.2082,1.0150,0.2094
4.5090,-0.2082,1.0150,0.2094
4.5090,-0.2082,1.0150,0.2094
4.5130,-0.2104,1.0135,0.2102
4.5130,-0.2104,1.0135,0.2102
4.5270,-0.2104,1.0135,0.2102
4.5410,-0.2104,1.0135,0.2102
4.5410,-0.2104,1.0135,0.2102
4.5410,-0.2104,1.0135,0.2102
4.5410,-0.2151,1.0142,0.2109
4.5420,-0.2158,1.0191,0.2085
4.5690,-0.2158,1.0191,0.2085
4.5690,-0.2158,1.0191,0.2085
4.5690,-0.2158,1.0191,0.2085
4.5700,-0.2131,1.0196,0.2046
4.5910,-0.2131,1.0196,0.2046
4.5910,-0.2131,1.0196,0.2046
4.5910,-0.2131,1.0196,0.2046
4.5910,-0.2099,1.0184,0.2072
4.5920,-0.2099,1.0184,0.2072
4.6200,-0.2099,1.0184,0.2072
4.6200,-0.2099,1.0184,0.2072
4.6200,-0.2099,1.0184,0.2072
4.6210,-0.2053,1.0186,0.2141
4.6210,-0.2055,1.0193,0.2134
4.6490,-0.2055,1.0193,0.2134
4.6490,-0.2055,1.0193,0.2134
4.6500,-0.2055,1.0193,0.2134
4.6500,-0.2068,1.0193,0.2082
4.6700,-0.2068,1.0193,0.2082
4.6710,-0.2068,1.0193,0.2082
4.6710,-0.2068,1.0193,0.2082
4.6710,-0.2112,1.0186,0.2058
4.6720,-0.2112,1.0186,0.2058
4.7010,-0.2112,1.0186,0.2058
4.7010,-0.2112,1.0186,0.2058
4.7020,-0.2112,1.0186,0.2058
4.7020,-0.2156,1.0189,0.2063
4.7020,-0.2195,1.0193,0.2082
4.7270,-0.2195,1.0193,0.2082
4.7280,-0.2195,1.0193,0.2082
4.7280,-0.2195,1.0193,0.2082
4.7290,-0.2195,1.0193,0.2082
4.7290,-0.2207,1.0198,0.2107
4.7510,-0.2207,1.0198,0.2107
4.7510,-0.2207,1.0198,0.2107
4.7510,-0.2207,1.0198,0.2107
4.7520,-0.2141,1.0167,0.2104
4.7520,-0.2141,1.0167,0.2104
4.7790,-0.2141,1.0167,0.2104
4.7800,-0.2141,1.0167,0.2104
4.7800,-0.2141,1.0167,0.2104
4.7800,-0.2087,1.0203,0.2048
4.7810,-0.2033,1.0215,0.2075
4.8100,-0.2033,1.0215,0.2075
4.8100,-0.2033,1.0215,0.2075
4.8100,-0.2033,1.0215,0.2075
4.8110,-0.2021,1.0196,0.2160
4.8310,-0.2021,1.0196,0.2160
4.8320,-0.2021,1.0196,0.2160
4.8320,-0.2021,1.0196,0.2160
4.8320,-0.2009,1.0162,0.2180
4.8330,-0.2009,1.0162,0.2180
4.8590,-0.2009,1.0162,0.2180
4.8600,-0.2009,1.0162,0.2180
4.8600,-0.2009,1.0162,0.2180
4.8610,-0.2011,1.0088,0.2158
4.8610,-0.2048,1.0115,0.2082
4.8900,-0.2048,1.0115,0.2082
4.8910,-0.2048,1.0115,0.2082
4.8910,-0.2048,1.0115,0.2082
4.8920,-0.2072,1.0167,0.2046
4.9110,-0.2072,1.0167,0.2046
4.9120,-0.2072,1.0167,0.2046
4.9120,-0.2072,1.0167,0.2046
4.9340,-0.2168,1.0115,0.1943
4.9340,-0.2168,1.0115,0.1943
4.9340,-0.2168,1.0115,0.1943
4.9390,-0.2168,1.0115,0.1943
4.9390,-0.2168,1.0115,0.1943
4.9390,-0.2168,1.0115,0.1943
4.9390,-0.2212,1.0164,0.1909
4.9400,-0.2146,1.0181,0.2075
4.9700,-0.2146,1.0181,0.2075
4.9700,-0.2146,1.0181,0.2075
4.9700,-0.2146,1.0181,0.2075
4.9700,-0.2024,1.0191,0.2187
4.9900,-0.2024,1.0191,0.2187
4.9900,-0.2024,1.0191,0.2187
4.9910,-0.2024,1.0191,0.2187
4.9910,-0.2006,1.0167,0.2138
4.9920,-0.2006,1.0167,0.2138
5.0180,-0.2006,1.0167,0.2138
5.0190,-0.2006,1.0167,0.2138
5.0190,-0.2006,1.0167,0.2138
5.0200,-0.2038,1.0142,0.2077
5.0200,-0.2011,1.0118,0.2060
5.0510,-0.2011,1.0118,0.2060
5.0520,-0.2011,1.0118,0.2060
5.0520,-0.2011,1.0118,0.2060
5.0520,-0.2009,1.0159,0.2075
5.0710,-0.2009,1.0159,0.2075
5.0710,-0.2009,1.0159,0.2075
5.0720,-0.2009,1.0159,0.2075
5.0720,-0.2090,1.0201,0.2072
5.0730,-0.2090,1.0201,0.2072
5.1010,-0.2090,1.0201,0.2072
5.1010,-0.2090,1.0201,0.2072
5.1020,-0.2090,1.0201,0.2072
5.1020,-0.2138,1.0225,0.2060
5.1020,-0.2136,1.0213,0.2043
5.1270,-0.2136,1.0213,0.2043
5.1320,-0.2136,1.0213,0.2043
5.1320,-0.2136,1.0213,0.2043
5.1330,-0.2136,1.0213,0.2043
5.1330,-0.2141,1.0189,0.2097
5.1530,-0.2141,1.0189,0.2097
5.1540,-0.2141,1.0189,0.2097
5.1540,-0.2141,1.0189,0.2097
5.1540,-0.2114,1.0176,0.2063
5.1550,-0.2114,1.0176,0.2063
5.1800,-0.2114,1.0176,0.2063
5.1810,-0.2114,1.0176,0.2063
5.1810,-0.2114,1.0176,0.2063
5.1810,-0.2109,1.0159,0.2048
5.1820,-0.2146,1.0172,0.2041
5.2110,-0.2146,1.0172,0.2041
5.2110,-0.2146,1.0172,0.2041
5.2110,-0.2146,1.0172,0.2041
5.2120,-0.2151,1.0157,0.2094
5.2320,-0.2151,1.0157,0.2094
5.2330,-0.2151,1.0157,0.2094
5.2330,-0.2151,1.0157,0.2094
5.2340,-0.2138,1.0201,0.2080
5.2340,-0.2138,1.0201,0.2080
5.2610,-0.2138,1.0201,0.2080
5.2610,-0.2138,1.0201,0.2080
5.2610,-0.2138,1.0201,0.2080
5.2620,-0.2124,1.0203,0.2094
5.2620,-0.2092,1.0179,0.2077
5.2910,-0.2092,1.0179,0.2077
5.2910,-0.2092,1.0179,0.2077
5.2920,-0.2092,1.0179,0.2077
5.2920,-0.2099,1.0147,0.2055
5.3110,-0.2099,1.0147,0.2055
5.3110,-0.2099,1.0147,0.2055
5.3120,-0.2099,1.0147,0.2055
5.3120,-0.2068,1.0176,0.2077
5.3130,-0.2068,1.0176,0.2077
5.3270,-0.2068,1.0176,0.2077
5.3410,-0.2068,1.0176,0.2077
5.3410,-0.2068,1.0176,0.2077
5.3420,-0.2068,1.0176,0.2077
5.3420,-0.2080,1.0189,0.2048
5.3430,-0.2099,1.0228,0.2082
5.3710,-0.2099,1.0228,0.2082
5.3710,-0.2099,1.0228,0.2082
5.3720,-0.2099,1.0228,0.2082
5.3720,-0.2082,1.0228,0.2097
5.3920,-0.2082,1.0228,0.2097
5.3930,-0.2082,1.0228,0.2097
5.3930,-0.2082,1.0228,0.2097
5.3940,-0.2063,1.0179,0.2072
5.3940,-0.2063,1.0179,0.2072
5.4210,-0.2063,1.0179,0.2072
5.4220,-0.2063,1.0179,0.2072
5.4220,-0.2063,1.0179,0.2072
5.4230,-0.2041,1.0130,0.2041
5.4230,-0.2102,1.0142,0.2053
5.4520,-0.2102,1.0142,0.2053
5.4530,-0.2102,1.0142,0.2053
5.4530,-0.2102,1.0142,0.2053
5.4540,-0.2136,1.0132,0.2072
5.4720,-0.2136,1.0132,0.2072
5.4730,-0.2136,1.0132,0.2072
5.4900,-0.2136,1.0132,0.2072
5.4910,-0.2114,1.0096,0.2072
5.4910,-0.2114,1.0096,0.2072
5.5010,-0.2114,1.0096,0.2072
5.5010,-0.2114,1.0096,0.2072
5.5020,-0.2114,1.0096,0.2072
5.5040,-0.2094,1.0123,0.2080
5.5040,-0.2075,1.0179,0.2068
5.5270,-0.2075,1.0179,0.2068
5.5300,-0.2075,1.0179,0.2068
5.5300,-0.2075,1.0179,0.2068
5.5310,-0.2075,1.0179,0.2068
5.5310,-0.2090,1.0257,0.2063
5.5520,-0.2090,1.0257,0.2063
5.5520,-0.2090,1.0257,0.2063
5.5520,-0.2090,1.0257,0.2063
5.5530,-0.2116,1.0218,0.2058
5.5530,-0.2116,1.0218,0.2058
5.5810,-0.2116,1.0218,0.2058
5.5810,-0.2116,1.0218,0.2058
5.5820,-0.2116,1.0218,0.2058
5.5820,-0.2090,1.0167,0.2090
5.5830,-0.2092,1.0145,0.2077
5.6110,-0.2092,1.0145,0.2077
5.6110,-0.2092,1.0145,0.2077
5.6120,-0.2092,1.0145,0.2077
5.6120,-0.2099,1.0132,0.2068
5.6310,-0.2099,1.0132,0.2068
5.6320,-0.2099,1.0132,0.2068
5.6320,-0.2099,1.0132,0.2068
5.6330,-0.2075,1.0157,0.2063
5.6330,-0.2075,1.0157,0.2063
5.6640,-0.2075,1.0157,0.2063
5.6640,-0.2075,1.0157,0.2063
5.6650,-0.2075,1.0157,0.2063
5.6650,-0.2050,1.0169,0.2112
5.6660,-0.2068,1.0169,0.2107
5.6920,-0.2068,1.0169,0.2107
5.6920,-0.2068,1.0169,0.2107
5.6930,-0.2068,1.0169,0.2107
5.6930,-0.2080,1.0184,0.2102
5.7130,-0.2080,1.0184,0.2102
5.7140,-0.2080,1.0184,0.2102
5.7140,-0.2080,1.0184,0.2102
5.7150,-0.2129,1.0228,0.2112
5.7150,-0.2129,1.0228,0.2112
5.7290,-0.2129,1.0228,0.2112
5.7430,-0.2129,1.0228,0.2112
5.7440,-0.2129,1.0228,0.2112
5.7440,-0.2129,1.0228,0.2112
5.7440,-0.2190,1.0245,0.2077
5.7440,-0.2214,1.0135,0.2060
5.7710,-0.2214,1.0135,0.2060
5.7720,-0.2214,1.0135,0.2060
5.7720,-0.2214,1.0135,0.2060
5.7720,-0.2165,1.0118,0.2031
5.7930,-0.2165,1.0118,0.2031
5.7930,-0.2165,1.0118,0.2031
5.7940,-0.2165,1.0118,0.2031
5.7940,-0.2119,1.0172,0.2070
5.7940,-0.2119,1.0172,0.2070
5.8210,-0.2119,1.0172,0.2070
5.8220,-0.2119,1.0172,0.2070
5.8220,-0.2119,1.0172,0.2070
5.8230,-0.2094,1.0189,0.2065
5.8230,-0.2082,1.0203,0.2055
5.8520,-0.2082,1.0203,0.2055
5.8530,-0.2082,1.0203,0.2055
5.8530,-0.2082,1.0203,0.2055
5.8540,-0.2031,1.0203,0.2060
5.8740,-0.2031,1.0203,0.2060
5.8740,-0.2031,1.0203,0.2060
5.8750,-0.2031,1.0203,0.2060
5.8750,-0.2036,1.0193,0.2107
5.8750,-0.2036,1.0193,0.2107
5.9020,-0.2036,1.0193,0.2107
5.9030,-0.2036,1.0193,0.2107
5.9030,-0.2036,1.0193,0.2107
5.9030,-0.2038,1.0211,0.2097
5.9040,-0.2072,1.0176,0.2063
5.9290,-0.2072,1.0176,0.2063
5.9400,-0.2072,1.0176,0.2063
5.9400,-0.2072,1.0176,0.2063
5.9410,-0.2072,1.0176,0.2063
5.9410,-0.2124,1.0159,0.2077
5.9540,-0.2124,1.0159,0.2077
5.9540,-0.2124,1.0159,0.2077
5.9550,-0.2124,1.0159,0.2077
5.9550,-0.2090,1.0162,0.2114
5.9560,-0.2090,1.0162,0.2114
5.9820,-0.2090,1.0162,0.2114
5.9820,-0.2090,1.0162,0.2114
5.9820,-0.2090,1.0162,0.2114
5.9820,-0.2031,1.0189,0.2116
5.9830,-0.2060,1.0167,0.2055
6.0120,-0.2060,1.0167,0.2055
6.0130,-0.2060,1.0167,0.2055
6.0130,-0.2060,1.0167,0.2055
6.0130,-0.2099,1.0120,0.2021
6.0330,-0.2099,1.0120,0.2021
6.0500,-0.2099,1.0120,0.2021
6.0510,-0.2099,1.0120,0.2021
6.0510,-0.2114,1.0145,0.2046
6.0510,-0.2114,1.0145,0.2046
6.0660,-0.2114,1.0145,0.2046
6.0670,-0.2114,1.0145,0.2046
6.0670,-0.2114,1.0145,0.2046
6.0670,-0.2136,1.0193,0.2104
6.0680,-0.2112,1.0167,0.2097
6.0910,-0.2112,1.0167,0.2097
6.0910,-0.2112,1.0167,0.2097
6.0910,-0.2112,1.0167,0.2097
6.0910,-0.2087,1.0115,0.2116
6.1120,-0.2087,1.0115,0.2116
6.1160,-0.2087,1.0115,0.2116
6.1160,-0.2087,1.0115,0.2116
6.1160,-0.2041,1.0118,0.2124
6.1160,-0.2041,1.0118,0.2124
6.1260,-0.2041,1.0118,0.2124
6.1410,-0.2041,1.0118,0.2124
6.1410,-0.2041,1.0118,0.2124
6.1410,-0.2041,1.0118,0.2124
6.1410,-0.2043,1.0142,0.2114
6.1410,-0.2107,1.0164,0.2124
6.1760,-0.2107,1.0164,0.2124
6.1760,-0.2107,1.0164,0.2124
6.1770,-0.2107,1.0164,0.2124
6.1770,-0.2107,1.0169,0.2126
6.1940,-0.2107,1.0169,0.2126
6.1940,-0.2107,1.0169,0.2126
6.1950,-0.2107,1.0169,0.2126
6.1950,-0.2058,1.0172,0.2097
6.1950,-0.2058,1.0172,0.2097
6.2220,-0.2058,1.0172,0.2097
6.2220,-0.2058,1.0172,0.2097
6.2230,-0.2058,1.0172,0.2097
6.2230,-0.2070,1.0206,0.2053
6.2240,-0.2109,1.0215,0.2031
6.2520,-0.2109,1.0215,0.2031
6.2530,-0.2109,1.0215,0.2031
6.2530,-0.2109,1.0215,0.2031
6.2540,-0.2092,1.0218,0.2048
6.2730,-0.2092,1.0218,0.2048
6.2730,-0.2092,1.0218,0.2048
6.2730,-0.2092,1.0218,0.2048
6.2740,-0.2097,1.0189,0.2102
6.2740,-0.2097,1.0189,0.2102
6.3030,-0.2097,1.0189,0.2102
6.3030,-0.2097,1.0189,0.2102
6.3040,-0.2097,1.0189,0.2102
6.3040,-0.2075,1.0150,0.2102
6.3040,-0.2068,1.0176,0.2085
6.3280,-0.2068,1.0176,0.2085
6.3370,-0.2068,1.0176,0.2085
6.3370,-0.2068,1.0176,0.2085
6.3380,-0.2068,1.0176,0.2085
6.3380,-0.2082,1.0137,0.2072
6.3540,-0.2082,1.0137,0.2072
6.3540,-0.2082,1.0137,0.2072
6.3550,-0.2082,1.0137,0.2072
6.3550,-0.2116,1.0128,0.2085
6.3550,-0.2116,1.0128,0.2085
6.3820,-0.2116,1.0128,0.2085
6.3830,-0.2116,1.0128,0.2085
6.3830,-0.2116,1.0128,0.2085
6.3840,-0.2124,1.0203,0.2068
6.3840,-0.2168,1.0137,0.2050
6.4130,-0.2168,1.0137,0.2050
6.4140,-0.2168,1.0137,0.2050
6.4140,-0.2168,1.0137,0.2050
6.4150,-0.2197,1.0069,0.2075
6.4360,-0.2197,1.0069,0.2075
6.4360,-0.2197,1.0069,0.2075
6.4370,-0.2197,1.0069,0.2075
6.4370,-0.2158,1.0152,0.2102
6.4370,-0.2158,1.0152,0.2102
6.4630,-0.2158,1.0152,0.2102
6.4630,-0.2158,1.0152,0.2102
6.4640,-0.2158,1.0152,0.2102
6.4640,-0.2094,1.0179,0.2092
6.4650,-0.2075,1.0179,0.2065
6.4930,-0.2075,1.0179,0.2065
6.4940,-0.2075,1.0179,0.2065
6.4940,-0.2075,1.0179,0.2065
6.4950,-0.2080,1.0179,0.2043
6.5140,-0.2080,1.0179,0.2043
6.5140,-0.2080,1.0179,0.2043
6.5150,-0.2080,1.0179,0.2043
6.5150,-0.2080,1.0174,0.2102
6.5160,-0.2080,1.0174,0.2102
6.5290,-0.2080,1.0174,0.2102
6.5430,-0.2080,1.0174,0.2102
6.5430,-0.2080,1.0174,0.2102
6.5440,-0.2080,1.0174,0.2102
6.5440,-0.2031,1.0211,0.2175
6.5440,-0.2004,1.0181,0.2114
6.5730,-0.2004,1.0181,0.2114
6.5740,-0.2004,1.0181,0.2114
6.5740,-0.2004,1.0181,0.2114
6.5750,-0.1972,1.0167,0.2060
6.5930,-0.1972,1.0167,0.2060
6.5930,-0.1972,1.0167,0.2060
6.5940,-0.1972,1.0167,0.2060
6.5940,-0.1992,1.0211,0.2112
6.5940,-0.1992,1.0211,0.2112
6.6220,-0.1992,1.0211,0.2112
6.6220,-0.1992,1.0211,0.2112
6.6220,-0.1992,1.0211,0.2112
6.6220,-0.2004,1.0213,0.2126
6.6230,-0.2021,1.0211,0.2053
6.6530,-0.2021,1.0211,0.2053
6.6540,-0.2021,1.0211,0.2053
6.6540,-0.2021,1.0211,0.2053
6.6540,-0.2072,1.0193,0.1999
6.6740,-0.2072,1.0193,0.1999
6.6740,-0.2072,1.0193,0.1999
6.6750,-0.2072,1.0193,0.1999
6.6750,-0.2151,1.0147,0.2063
6.6760,-0.2151,1.0147,0.2063
6.7010,-0.2151,1.0147,0.2063
6.7020,-0.2151,1.0147,0.2063
6.7020,-0.2151,1.0147,0.2063
6.7020,-0.2182,1.0145,0.2138
6.7030,-0.2153,1.0189,0.2109
6.7260,-0.2153,1.0189,0.2109
6.7360,-0.2153,1.0189,0.2109
6.7360,-0.2153,1.0189,0.2109
6.7370,-0.2153,1.0189,0.2109
6.7370,-0.2136,1.0152,0.2053
6.7550,-0.2136,1.0152,0.2053
6.7550,-0.2136,1.0152,0.2053
6.7550,-0.2136,1.0152,0.2053
6.7560,-0.2075,1.0098,0.2053
6.7570,-0.2075,1.0098,0.2053
6.7820,-0.2075,1.0098,0.2053
6.7830,-0.2075,1.0098,0.2053
6.7830,-0.2075,1.0098,0.2053
6.7840,-0.2050,1.0137,0.2112
6.7840,-0.2077,1.0142,0.2160
6.8140,-0.2077,1.0142,0.2160
6.8140,-0.2077,1.0142,0.2160
6.8150,-0.2077,1.0142,0.2160
6.8150,-0.2099,1.0174,0.2085
6.8370,-0.2099,1.0174,0.2085
6.8370,-0.2099,1.0174,0.2085
6.8380,-0.2099,1.0174,0.2085
6.8380,-0.2119,1.0172,0.2058
6.8380,-0.2119,1.0172,0.2058
6.8630,-0.2119,1.0172,0.2058
6.8630,-0.2119,1.0172,0.2058
6.8640,-0.2119,1.0172,0.2058
6.8640,-0.2134,1.0137,0.2055
6.8640,-0.2160,1.0118,0.2121
6.8940,-0.2160,1.0118,0.2121
6.8940,-0.2160,1.0118,0.2121
6.8940,-0.2160,1.0118,0.2121
6.8950,-0.2156,1.0164,0.2156
6.9210,-0.2156,1.0164,0.2156
6.9210,-0.2156,1.0164,0.2156
6.9210,-0.2156,1.0164,0.2156
6.9220,-0.2097,1.0198,0.2136
6.9220,-0.2097,1.0198,0.2136
6.9290,-0.2097,1.0198,0.2136
6.9430,-0.2097,1.0198,0.2136
6.9430,-0.2097,1.0198,0.2136
6.9440,-0.2097,1.0198,0.2136
6.9440,-0.2068,1.0179,0.2099
6.9440,-0.2016,1.0169,0.2107
6.9740,-0.2016,1.0169,0.2107
6.9740,-0.2016,1.0169,0.2107
6.9740,-0.2016,1.0169,0.2107
6.9740,-0.2014,1.0206,0.2107
6.9950,-0.2014,1.0206,0.2107
6.9950,-0.2014,1.0206,0.2107
6.9960,-0.2014,1.0206,0.2107
6.9960,-0.2068,1.0186,0.2104
6.9960,-0.2068,1.0186,0.2104
7.0240,-0.2068,1.0186,0.2104
7.0240,-0.2068,1.0186,0.2104
7.0250,-0.2068,1.0186,0.2104
7.0250,-0.2102,1.0191,0.2119
7.0250,-0.2053,1.0189,0.2102
7.0560,-0.2053,1.0189,0.2102
7.0560,-0.2053,1.0189,0.2102
7.0570,-0.2053,1.0189,0.2102
7.0570,-0.1970,1.0181,0.2107
7.0760,-0.1970,1.0181,0.2107
7.0770,-0.1970,1.0181,0.2107
7.0770,-0.1970,1.0181,0.2107
7.0780,-0.1982,1.0189,0.2087
7.0780,-0.1982,1.0189,0.2087
7.1040,-0.1982,1.0189,0.2087
7.1040,-0.1982,1.0189,0.2087
7.1050,-0.1982,1.0189,0.2087
7.1050,-0.2087,1.0218,0.2097
7.1060,-0.2185,1.0215,0.2136
7.1280,-0.2185,1.0215,0.2136
7.1370,-0.2185,1.0215,0.2136
7.1380,-0.2185,1.0215,0.2136
7.1380,-0.2185,1.0215,0.2136
7.1590,-0.2219,1.0159,0.2092
7.1610,-0.2219,1.0159,0.2092
7.1610,-0.2219,1.0159,0.2092
7.1620,-0.2219,1.0159,0.2092
7.1620,-0.2173,1.0145,0.2048
7.1620,-0.2173,1.0145,0.2048
7.1820,-0.2173,1.0145,0.2048
7.1820,-0.2173,1.0145,0.2048
7.1820,-0.2173,1.0145,0.2048
7.1830,-0.2151,1.0123,0.2011
7.1830,-0.2182,1.0130,0.2024
7.2130,-0.2182,1.0130,0.2024
7.2130,-0.2182,1.0130,0.2024
7.2140,-0.2182,1.0130,0.2024
7.2140,-0.2226,1.0176,0.2077
7.2350,-0.2226,1.0176,0.2077
7.2350,-0.2226,1.0176,0.2077
7.2350,-0.2226,1.0176,0.2077
7.2350,-0.2224,1.0252,0.2058
7.2360,-0.2224,1.0252,0.2058
7.2630,-0.2224,1.0252,0.2058
7.2630,-0.2224,1.0252,0.2058
7.2630,-0.2224,1.0252,0.2058
7.2630,-0.2148,1.0262,0.2094
7.2630,-0.2068,1.0201,0.2092
7.2930,-0.2068,1.0201,0.2092
7.2930,-0.2068,1.0201,0.2092
7.2940,-0.2068,1.0201,0.2092
7.2940,-0.2016,1.0147,0.2102
7.3180,-0.2016,1.0147,0.2102
7.3180,-0.2016,1.0147,0.2102
7.3180,-0.2016,1.0147,0.2102
7.3190,-0.1989,1.0108,0.2107
7.3220,-0.1989,1.0108,0.2107
7.3280,-0.1989,1.0108,0.2107
7.3440,-0.1989,1.0108,0.2107
7.3450,-0.1989,1.0108,0.2107
7.3450,-0.1989,1.0108,0.2107
7.3460,-0.1965,1.0123,0.2124
7.3460,-0.1977,1.0167,0.2131
7.3740,-0.1977,1.0167,0.2131
7.3740,-0.1977,1.0167,0.2131
7.3750,-0.1977,1.0167,0.2131
7.3750,-0.2028,1.0130,0.2121
7.3960,-0.2028,1.0130,0.2121
7.3960,-0.2028,1.0130,0.2121
7.3970,-0.2028,1.0130,0.2121
7.3970,-0.2077,1.0076,0.2097
7.3980,-0.2077,1.0076,0.2097
7.4240,-0.2077,1.0076,0.2097
7.4240,-0.2077,1.0076,0.2097
7.4250,-0.2077,1.0076,0.2097
7.4250,-0.2104,1.0108,0.2090
7.4250,-0.2107,1.0142,0.2070
7.4550,-0.2107,1.0142,0.2070
7.4560,-0.2107,1.0142,0.2070
7.4560,-0.2107,1.0142,0.2070
7.4560,-0.2065,1.0145,0.2080
7.4780,-0.2065,1.0145,0.2080
7.4790,-0.2065,1.0145,0.2080
7.4790,-0.2065,1.0145,0.2080
7.4800,-0.2058,1.0203,0.2082
7.4800,-0.2058,1.0203,0.2082
7.5040,-0.2058,1.0203,0.2082
7.5040,-0.2058,1.0203,0.2082
7.5050,-0.2058,1.0203,0.2082
7.5050,-0.2026,1.0291,0.2090
7.5060,-0.2009,1.0262,0.2124
7.5270,-0.2009,1.0262,0.2124
7.5390,-0.2009,1.0262,0.2124
7.5390,-0.2009,1.0262,0.2124
7.5400,-0.2009,1.0262,0.2124
7.5400,-0.2019,1.0172,0.2102
7.5550,-0.2019,1.0172,0.2102
7.5560,-0.2019,1.0172,0.2102
7.5560,-0.2019,1.0172,0.2102
7.5570,-0.2099,1.0106,0.2121
7.5570,-0.2099,1.0106,0.2121
7.5840,-0.2099,1.0106,0.2121
7.5850,-0.2099,1.0106,0.2121
7.5850,-0.2099,1.0106,0.2121
7.5850,-0.2156,1.0181,0.2158
7.5860,-0.2192,1.0223,0.2153
7.6160,-0.2192,1.0223,0.2153
7.6160,-0.2192,1.0223,0.2153
7.6160,-0.2192,1.0223,0.2153
7.6170,-0.2207,1.0201,0.2112
7.6350,-0.2207,1.0201,0.2112
7.6350,-0.2207,1.0201,0.2112
7.6360,-0.2207,1.0201,0.2112
7.6360,-0.2153,1.0147,0.1999
7.6360,-0.2153,1.0147,0.1999
7.6640,-0.2153,1.0147,0.1999
7.6640,-0.2153,1.0147,0.1999
7.6650,-0.2153,1.0147,0.1999
7.6650,-0.2116,1.0123,0.2038
7.6650,-0.2114,1.0125,0.2060
7.6960,-0.2114,1.0125,0.2060
7.6970,-0.2114,1.0125,0.2060
7.6970,-0.2114,1.0125,0.2060
7.7140,-0.2121,1.0120,0.2102
7.7170,-0.2121,1.0120,0.2102
7.7180,-0.2121,1.0120,0.2102
7.7180,-0.2121,1.0120,0.2102
7.7180,-0.2124,1.0159,0.2138
7.7180,-0.2124,1.0159,0.2138
7.7280,-0.2124,1.0159,0.2138
7.7440,-0.2124,1.0159,0.2138
7.7440,-0.2124,1.0159,0.2138
7.7440,-0.2124,1.0159,0.2138
7.7440,-0.2112,1.0225,0.2129
7.7440,-0.2104,1.0181,0.2053
7.7730,-0.2104,1.0181,0.2053
7.7730,-0.2104,1.0181,0.2053
7.7730,-0.2104,1.0181,0.2053
7.7740,-0.2119,1.0132,0.2065
7.7980,-0.2119,1.0132,0.2065
7.7980,-0.2119,1.0132,0.2065
7.7980,-0.2119,1.0132,0.2065
7.7990,-0.2153,1.0118,0.2085
7.7990,-0.2153,1.0118,0.2085
7.8240,-0.2153,1.0118,0.2085
7.8240,-0.2153,1.0118,0.2085
7.8250,-0.2153,1.0118,0.2085
7.8250,-0.2178,1.0142,0.2156
7.8260,-0.2192,1.0135,0.2107
7.8540,-0.2192,1.0135,0.2107
7.8550,-0.2192,1.0135,0.2107
7.8550,-0.2192,1.0135,0.2107
7.8560,-0.2097,1.0159,0.2031
7.8790,-0.2097,1.0159,0.2031
7.8810,-0.2097,1.0159,0.2031
7.8820,-0.2097,1.0159,0.2031
7.8820,-0.2014,1.0223,0.2063
7.8820,-0.2014,1.0223,0.2063
7.9040,-0.2014,1.0223,0.2063
7.9040,-0.2014,1.0223,0.2063
7.9050,-0.2014,1.0223,0.2063
7.9050,-0.1965,1.0281,0.2090
7.9050,-0.1980,1.0269,0.2077
7.9280,-0.1980,1.0269,0.2077
7.9360,-0.1980,1.0269,0.2077
7.9360,-0.1980,1.0269,0.2077
7.9360,-0.1980,1.0269,0.2077
7.9370,-0.2092,1.0174,0.2063
7.9550,-0.2092,1.0174,0.2063
7.9550,-0.2092,1.0174,0.2063
7.9560,-0.2092,1.0174,0.2063
7.9560,-0.2158,1.0113,0.2114
7.9560,-0.2158,1.0113,0.2114
7.9850,-0.2158,1.0113,0.2114
7.9850,-0.2158,1.0113,0.2114
7.9860,-0.2158,1.0113,0.2114
7.9860,-0.2178,1.0115,0.2160
7.9860,-0.2192,1.0118,0.2102
8.0180,-0.2192,1.0118,0.2102
8.0180,-0.2192,1.0118,0.2102
8.0190,-0.2192,1.0118,0.2102
8.0190,-0.2222,1.0128,0.2055
8.0380,-0.2222,1.0128,0.2055
8.0380,-0.2222,1.0128,0.2055
8.0390,-0.2222,1.0128,0.2055
8.0390,-0.2231,1.0154,0.2038
8.0390,-0.2231,1.0154,0.2038
8.0640,-0.2231,1.0154,0.2038
8.0650,-0.2231,1.0154,0.2038
8.0650,-0.2231,1.0154,0.2038
8.0660,-0.2163,1.0191,0.2028
8.0660,-0.2072,1.0211,0.2009
8.0980,-0.2072,1.0211,0.2009
8.0980,-0.2072,1.0211,0.2009
8.0990,-0.2072,1.0211,0.2009
8.0990,-0.2024,1.0247,0.2026
8.1170,-0.2024,1.0247,0.2026
8.1180,-0.2024,1.0247,0.2026
8.1180,-0.2024,1.0247,0.2026
8.1180,-0.2068,1.0257,0.2134
8.1190,-0.2068,1.0257,0.2134
8.1280,-0.2068,1.0257,0.2134
8.1460,-0.2068,1.0257,0.2134
8.1460,-0.2068,1.0257,0.2134
8.1460,-0.2068,1.0257,0.2134
8.1470,-0.2119,1.0193,0.2136
8.1470,-0.2146,1.0137,0.2121
8.1770,-0.2146,1.0137,0.2121
8.1780,-0.2146,1.0137,0.2121
8.1780,-0.2146,1.0137,0.2121
8.1780,-0.2094,1.0159,0.2099
8.2000,-0.2094,1.0159,0.2099
8.2010,-0.2094,1.0159,0.2099
8.2010,-0.2094,1.0159,0.2099
8.2010,-0.2092,1.0184,0.2063
8.2010,-0.2092,1.0184,0.2063
8.2260,-0.2092,1.0184,0.2063
8.2270,-0.2092,1.0184,0.2063
8.2270,-0.2092,1.0184,0.2063
8.2270,-0.2129,1.0186,0.2038
8.2270,-0.2173,1.0172,0.2077
8.2550,-0.2173,1.0172,0.2077
8.2560,-0.2173,1.0172,0.2077
8.2720,-0.2173,1.0172,0.2077
8.2730,-0.2190,1.0167,0.2104
8.2750,-0.2190,1.0167,0.2104
8.2760,-0.2190,1.0167,0.2104
8.2760,-0.2190,1.0167,0.2104
8.2760,-0.2163,1.0152,0.2141
8.2800,-0.2163,1.0152,0.2141
8.3040,-0.2163,1.0152,0.2141
8.3040,-0.2163,1.0152,0.2141
8.3040,-0.2163,1.0152,0.2141
8.3040,-0.2121,1.0125,0.2129
8.3040,-0.2060,1.0140,0.2099
8.3270,-0.2060,1.0140,0.2099
8.3360,-0.2060,1.0140,0.2099
8.3360,-0.2060,1.0140,0.2099
8.3370,-0.2060,1.0140,0.2099
8.3370,-0.2070,1.0137,0.2151
8.3590,-0.2070,1.0137,0.2151
8.3600,-0.2070,1.0137,0.2151
8.3600,-0.2070,1.0137,0.2151
8.3600,-0.2094,1.0179,0.2170
8.3600,-0.2094,1.0179,0.2170
8.3850,-0.2094,1.0179,0.2170
8.3850,-0.2094,1.0179,0.2170
8.3850,-0.2094,1.0179,0.2170
8.3850,-0.2090,1.0150,0.2104
8.3860,-0.2099,1.0103,0.2036
8.4160,-0.2099,1.0103,0.2036
8.4160,-0.2099,1.0103,0.2036
8.4170,-0.2099,1.0103,0.2036
8.4170,-0.2156,1.0064,0.2065
8.4370,-0.2156,1.0064,0.2065
8.4370,-0.2156,1.0064,0.2065
8.4380,-0.2156,1.0064,0.2065
8.4380,-0.2219,1.0120,0.2116
8.4380,-0.2219,1.0120,0.2116
8.4650,-0.2219,1.0120,0.2116
8.4650,-0.2219,1.0120,0.2116
8.4650,-0.2219,1.0120,0.2116
8.4660,-0.2217,1.0201,0.2109
8.4660,-0.2182,1.0250,0.2097
8.4970,-0.2182,1.0250,0.2097
8.4980,-0.2182,1.0250,0.2097
8.4980,-0.2182,1.0250,0.2097
8.4980,-0.2080,1.0247,0.2075
8.5170,-0.2080,1.0247,0.2075
8.5170,-0.2080,1.0247,0.2075
8.5180,-0.2080,1.0247,0.2075
8.5180,-0.2002,1.0233,0.2075
8.5180,-0.2002,1.0233,0.2075
8.5280,-0.2002,1.0233,0.2075
8.5450,-0.2002,1.0233,0.2075
8.5460,-0.2002,1.0233,0.2075
8.5460,-0.2002,1.0233,0.2075
8.5460,-0.1936,1.0196,0.2141
8.5470,-0.1962,1.0162,0.2116
8.5810,-0.1962,1.0162,0.2116
8.5810,-0.1962,1.0162,0.2116
8.5820,-0.1962,1.0162,0.2116
8.5820,-0.2019,1.0103,0.2109
8.5970,-0.2019,1.0103,0.2109
8.5980,-0.2019,1.0103,0.2109
8.5980,-0.2019,1.0103,0.2109
8.5980,-0.2038,1.0059,0.2087
8.5990,-0.2038,1.0059,0.2087
8.6260,-0.2038,1.0059,0.2087
8.6270,-0.2038,1.0059,0.2087
8.6270,-0.2038,1.0059,0.2087
8.6280,-0.2077,1.0123,0.2134
8.6280,-0.2050,1.0193,0.2143
8.6610,-0.2050,1.0193,0.2143
8.6610,-0.2050,1.0193,0.2143
8.6620,-0.2050,1.0193,0.2143
8.6620,-0.2033,1.0235,0.2126
8.6780,-0.2033,1.0235,0.2126
8.6790,-0.2033,1.0235,0.2126
8.6790,-0.2033,1.0235,0.2126
8.6800,-0.2097,1.0240,0.2114
8.6800,-0.2097,1.0240,0.2114
8.7060,-0.2097,1.0240,0.2114
8.7060,-0.2097,1.0240,0.2114
8.7070,-0.2097,1.0240,0.2114
8.7070,-0.2143,1.0162,0.2080
8.7080,-0.2116,1.0101,0.2085
8.7280,-0.2116,1.0101,0.2085
8.7370,-0.2116,1.0101,0.2085
8.7370,-0.2116,1.0101,0.2085
8.7380,-0.2116,1.0101,0.2085
8.7380,-0.2060,1.0096,0.2136
8.7590,-0.2060,1.0096,0.2136
8.7590,-0.2060,1.0096,0.2136
8.7600,-0.2060,1.0096,0.2136
8.7600,-0.2065,1.0140,0.2121
8.7600,-0.2065,1.0140,0.2121
8.7870,-0.2065,1.0140,0.2121
8.7870,-0.2065,1.0140,0.2121
8.7880,-0.2065,1.0140,0.2121
8.7880,-0.2102,1.0159,0.2129
8.7880,-0.2138,1.0167,0.2146
8.8190,-0.2138,1.0167,0.2146
8.8360,-0.2138,1.0167,0.2146
8.8370,-0.2138,1.0167,0.2146
8.8370,-0.2141,1.0169,0.2156
8.8370,-0.2141,1.0169,0.2156
8.8380,-0.2141,1.0169,0.2156
8.8380,-0.2141,1.0169,0.2156
8.8380,-0.2119,1.0196,0.2156
8.8380,-0.2119,1.0196,0.2156
8.8650,-0.2119,1.0196,0.2156
8.8660,-0.2119,1.0196,0.2156
8.8660,-0.2119,1.0196,0.2156
8.8660,-0.2109,1.0208,0.2129
8.8660,-0.2097,1.0162,0.2080
8.8970,-0.2097,1.0162,0.2080
8.8970,-0.2097,1.0162,0.2080
8.8970,-0.2097,1.0162,0.2080
8.8970,-0.2072,1.0189,0.2087
8.9200,-0.2072,1.0189,0.2087
8.9200,-0.2072,1.0189,0.2087
8.9210,-0.2072,1.0189,0.2087
8.9210,-0.2036,1.0193,0.2107
8.9210,-0.2036,1.0193,0.2107
8.9290,-0.2036,1.0193,0.2107
8.9520,-0.2036,1.0193,0.2107
8.9520,-0.2036,1.0193,0.2107
8.9520,-0.2036,1.0193,0.2107
8.9520,-0.2043,1.0130,0.2107
8.9530,-0.2043,1.0123,0.2109
8.9760,-0.2043,1.0123,0.2109
8.9760,-0.2043,1.0123,0.2109
8.9760,-0.2043,1.0123,0.2109
8.9770,-0.2033,1.0167,0.2160
8.9980,-0.2033,1.0167,0.2160
8.9980,-0.2033,1.0167,0.2160
8.9980,-0.2033,1.0167,0.2160
8.9990,-0.2077,1.0174,0.2151
8.9990,-0.2077,1.0174,0.2151
9.0260,-0.2077,1.0174,0.2151
9.0260,-0.2077,1.0174,0.2151
9.0270,-0.2077,1.0174,0.2151
9.0270,-0.2124,1.0193,0.2134
9.0270,-0.2146,1.0159,0.2097
9.0560,-0.2146,1.0159,0.2097
9.0560,-0.2146,1.0159,0.2097
9.0570,-0.2146,1.0159,0.2097
9.0570,-0.2151,1.0145,0.2046
9.0780,-0.2151,1.0145,0.2046
9.0780,-0.2151,1.0145,0.2046
9.0790,-0.2151,1.0145,0.2046
9.0790,-0.2148,1.0140,0.2070
9.0790,-0.2148,1.0140,0.2070
9.1060,-0.2148,1.0140,0.2070
9.1070,-0.2148,1.0140,0.2070
9.1070,-0.2148,1.0140,0.2070
9.1070,-0.2138,1.0123,0.2090
9.1070,-0.2119,1.0164,0.2107
9.1290,-0.2119,1.0164,0.2107
9.1370,-0.2119,1.0164,0.2107
9.1380,-0.2119,1.0164,0.2107
9.1380,-0.2119,1.0164,0.2107
9.1390,-0.2028,1.0191,0.2148
9.1590,-0.2028,1.0191,0.2148
9.1600,-0.2028,1.0191,0.2148
9.1600,-0.2028,1.0191,0.2148
9.1600,-0.1989,1.0220,0.2148
9.1600,-0.1989,1.0220,0.2148
9.1870,-0.1989,1.0220,0.2148
9.1870,-0.1989,1.0220,0.2148
9.1880,-0.1989,1.0220,0.2148
9.1880,-0.2009,1.0242,0.2143
9.1890,-0.2116,1.0203,0.2094
9.2180,-0.2116,1.0203,0.2094
9.2190,-0.2116,1.0203,0.2094
9.2190,-0.2116,1.0203,0.2094
9.2190,-0.2129,1.0152,0.2065
9.2380,-0.2129,1.0152,0.2065
9.2380,-0.2129,1.0152,0.2065
9.2380,-0.2129,1.0152,0.2065
9.2390,-0.2138,1.0132,0.2048
9.2390,-0.2138,1.0132,0.2048
9.2660,-0.2138,1.0132,0.2048
9.2660,-0.2138,1.0132,0.2048
9.2670,-0.2138,1.0132,0.2048
9.2670,-0.2124,1.0162,0.2112
9.2670,-0.2024,1.0218,0.2070
9.2970,-0.2024,1.0218,0.2070
9.2970,-0.2024,1.0218,0.2070
9.2980,-0.2024,1.0218,0.2070
9.2980,-0.1994,1.0191,0.2102
9.3190,-0.1994,1.0191,0.2102
9.3190,-0.1994,1.0191,0.2102
9.3200,-0.1994,1.0191,0.2102
9.3200,-0.2019,1.0150,0.2131
9.3200,-0.2019,1.0150,0.2131
9.3290,-0.2019,1.0150,0.2131
9.3470,-0.2019,1.0150,0.2131
9.3470,-0.2019,1.0150,0.2131
9.3470,-0.2019,1.0150,0.2131
9.3470,-0.2068,1.0203,0.2143
9.3480,-0.2165,1.0172,0.2107
9.3800,-0.2165,1.0172,0.2107
9.3800,-0.2165,1.0172,0.2107
9.3810,-0.2165,1.0172,0.2107
9.3810,-0.2126,1.0132,0.2097
9.3960,-0.2126,1.0132,0.2097
9.3970,-0.2126,1.0132,0.2097
9.3970,-0.2126,1.0132,0.2097
9.3970,-0.2092,1.0201,0.2134
9.3970,-0.2092,1.0201,0.2134
9.4250,-0.2092,1.0201,0.2134
9.4260,-0.2092,1.0201,0.2134
9.4260,-0.2092,1.0201,0.2134
9.4260,-0.2087,1.0198,0.2058
9.4260,-0.2046,1.0150,0.2080
9.4560,-0.2046,1.0150,0.2080
9.4560,-0.2046,1.0150,0.2080
9.4560,-0.2046,1.0150,0.2080
9.4560,-0.2011,1.0130,0.2143
9.4780,-0.2011,1.0130,0.2143
9.4780,-0.2011,1.0130,0.2143
9.4790,-0.2011,1.0130,0.2143
9.4790,-0.2041,1.0103,0.2146
9.4790,-0.2041,1.0103,0.2146
9.5070,-0.2041,1.0103,0.2146
9.5070,-0.2041,1.0103,0.2146
9.5080,-0.2041,1.0103,0.2146
9.5080,-0.2090,1.0093,0.2141
9.5080,-0.2124,1.0135,0.2092
9.5270,-0.2124,1.0135,0.2092
9.5380,-0.2124,1.0135,0.2092
9.5390,-0.2124,1.0135,0.2092
9.5390,-0.2124,1.0135,0.2092
9.5400,-0.2151,1.0218,0.2131
9.5580,-0.2151,1.0218,0.2131
9.5590,-0.2151,1.0218,0.2131
9.5590,-0.2151,1.0218,0.2131
9.5590,-0.2187,1.0277,0.2075
9.5600,-0.2187,1.0277,0.2075
9.5880,-0.2187,1.0277,0.2075
9.5890,-0.2187,1.0277,0.2075
9.5890,-0.2187,1.0277,0.2075
9.5900,-0.2136,1.0247,0.2058
9.5900,-0.2090,1.0218,0.2104
9.6200,-0.2090,1.0218,0.2104
9.6210,-0.2090,1.0218,0.2104
9.6210,-0.2090,1.0218,0.2104
9.6210,-0.2068,1.0162,0.2085
9.6400,-0.2068,1.0162,0.2085
9.6410,-0.2068,1.0162,0.2085
9.6410,-0.2068,1.0162,0.2085
9.6410,-0.2048,1.0125,0.2065
9.6410,-0.2048,1.0125,0.2065
9.6670,-0.2048,1.0125,0.2065
9.6670,-0.2048,1.0125,0.2065
9.6670,-0.2048,1.0125,0.2065
9.6670,-0.2041,1.0101,0.2075
9.6680,-0.2075,1.0084,0.2131
9.6970,-0.2075,1.0084,0.2131
9.6970,-0.2075,1.0084,0.2131
9.6980,-0.2075,1.0084,0.2131
9.6980,-0.2136,1.0088,0.2134
9.7200,-0.2136,1.0088,0.2134
9.7200,-0.2136,1.0088,0.2134
9.7210,-0.2136,1.0088,0.2134
9.7210,-0.2200,1.0174,0.2075
9.7220,-0.2200,1.0174,0.2075
9.7290,-0.2200,1.0174,0.2075
9.7480,-0.2200,1.0174,0.2075
9.7480,-0.2200,1.0174,0.2075
9.7490,-0.2200,1.0174,0.2075
9.7490,-0.2224,1.0247,0.2080
9.7490,-0.2190,1.0264,0.2058
9.7780,-0.2190,1.0264,0.2058
9.7790,-0.2190,1.0264,0.2058
9.7790,-0.2190,1.0264,0.2058
9.7800,-0.2109,1.0259,0.2043
9.7990,-0.2109,1.0259,0.2043
9.8000,-0.2109,1.0259,0.2043
9.8000,-0.2109,1.0259,0.2043
9.8000,-0.1989,1.0237,0.2104
9.8010,-0.1989,1.0237,0.2104
9.8290,-0.1989,1.0237,0.2104
9.8290,-0.1989,1.0237,0.2104
9.8300,-0.1989,1.0237,0.2104
9.8300,-0.1936,1.0201,0.2185
9.8300,-0.1943,1.0130,0.2185
9.8600,-0.1943,1.0130,0.2185
9.8600,-0.1943,1.0130,0.2185
9.8600,-0.1943,1.0130,0.2185
9.8610,-0.1933,1.0079,0.2168
9.8790,-0.1933,1.0079,0.2168
9.8800,-0.1933,1.0079,0.2168
9.8800,-0.1933,1.0079,0.2168
9.8810,-0.1972,1.0057,0.2175
9.8810,-0.1972,1.0057,0.2175
9.9080,-0.1972,1.0057,0.2175
9.9080,-0.1972,1.0057,0.2175
9.9090,-0.1972,1.0057,0.2175
9.9090,-0.2028,1.0162,0.2178
9.9100,-0.2065,1.0228,0.2151
9.9270,-0.2065,1.0228,0.2151
9.9380,-0.2065,1.0228,0.2151
9.9390,-0.2065,1.0228,0.2151
9.9390,-0.2065,1.0228,0.2151
9.9390,-0.2129,1.0201,0.2070
9.9570,-0.2129,1.0201,0.2070
9.9570,-0.2129,1.0201,0.2070
9.9570,-0.2129,1.0201,0.2070
9.9570,-0.2112,1.0115,0.2009
9.9570,-0.2112,1.0115,0.2009
9.9880,-0.2112,1.0115,0.2009
9.9890,-0.2112,1.0115,0.2009
9.9890,-0.2112,1.0115,0.2009
9.9900,-0.2009,1.0069,0.2092
9.9900,-0.1977,1.0301,0.2239
10.0200,-0.1977,1.0301,0.2239
10.0200,-0.1977,1.0301,0.2239
10.0200,-0.1977,1.0301,0.2239
10.0210,-0.2024,1.0350,0.2187
10.0360,-0.2024,1.0350,0.2187
10.0370,-0.2024,1.0350,0.2187
10.0370,-0.2024,1.0350,0.2187
10.0370,-0.2009,1.0250,0.2107
10.0380,-0.2009,1.0250,0.2107
10.0680,-0.2009,1.0250,0.2107
10.0680,-0.2009,1.0250,0.2107
10.0680,-0.2009,1.0250,0.2107
10.0690,-0.2038,1.0347,0.2200
10.0690,-0.2119,1.0150,0.2099
10.0990,-0.2119,1.0150,0.2099
10.0990,-0.2119,1.0150,0.2099
10.1000,-0.2119,1.0150,0.2099
10.1000,-0.2046,1.0018,0.2082
10.1200,-0.2046,1.0018,0.2082
10.1210,-0.2046,1.0018,0.2082
10.1210,-0.2046,1.0018,0.2082
10.1210,-0.2038,1.0088,0.2080
10.1220,-0.2038,1.0088,0.2080
10.1290,-0.2038,1.0088,0.2080
10.1480,-0.2038,1.0088,0.2080
10.1490,-0.2038,1.0088,0.2080
10.1490,-0.2038,1.0088,0.2080
10.1500,-0.2082,1.0108,0.2080
10.1500,-0.2082,1.0152,0.2148
10.1790,-0.2082,1.0152,0.2148
10.1790,-0.2082,1.0152,0.2148
10.1800,-0.2082,1.0152,0.2148
10.1800,-0.2014,1.0140,0.2107
10.1980,-0.2014,1.0140,0.2107
10.1990,-0.2014,1.0140,0.2107
10.1990,-0.2014,1.0140,0.2107
10.2000,-0.1980,1.0152,0.2148
10.2000,-0.1980,1.0152,0.2148
10.2300,-0.1980,1.0152,0.2148
10.2300,-0.1980,1.0152,0.2148
10.2310,-0.1980,1.0152,0.2148
10.2310,-0.1972,1.0223,0.2185
10.2310,-0.1984,1.0279,0.2190
10.2590,-0.1984,1.0279,0.2190
10.2600,-0.1984,1.0279,0.2190
10.2600,-0.1984,1.0279,0.2190
10.2610,-0.2021,1.0252,0.2217
10.2800,-0.2021,1.0252,0.2217
10.2810,-0.2021,1.0252,0.2217
10.2810,-0.2021,1.0252,0.2217
10.2820,-0.2006,1.0179,0.2138
10.2820,-0.2006,1.0179,0.2138
10.3080,-0.2006,1.0179,0.2138
10.3080,-0.2006,1.0179,0.2138
10.3090,-0.2006,1.0179,0.2138
10.3090,-0.1982,1.0147,0.2094
10.3090,-0.2002,1.0108,0.2143
10.3290,-0.2002,1.0108,0.2143
10.3380,-0.2002,1.0108,0.2143
10.3380,-0.2002,1.0108,0.2143
10.3390,-0.2002,1.0108,0.2143
10.3390,-0.2082,1.0152,0.2170
10.3620,-0.2082,1.0152,0.2170
10.3630,-0.2082,1.0152,0.2170
10.3630,-0.2082,1.0152,0.2170
10.3630,-0.2124,1.0174,0.2158
10.3640,-0.2124,1.0174,0.2158
10.3890,-0.2124,1.0174,0.2158
10.3890,-0.2124,1.0174,0.2158
10.3900,-0.2124,1.0174,0.2158
10.3900,-0.2097,1.0145,0.2153
10.3900,-0.2063,1.0159,0.2121
10.4220,-0.2063,1.0159,0.2121
10.4220,-0.2063,1.0159,0.2121
10.4220,-0.2063,1.0159,0.2121
10.4230,-0.2058,1.0176,0.2099
10.4420,-0.2058,1.0176,0.2099
10.4430,-0.2058,1.0176,0.2099
10.4430,-0.2058,1.0176,0.2099
10.4430,-0.2107,1.0203,0.2143
10.4440,-0.2107,1.0203,0.2143
10.4690,-0.2107,1.0203,0.2143
10.4690,-0.2107,1.0203,0.2143
10.4690,-0.2107,1.0203,0.2143
10.4700,-0.2134,1.0215,0.2143
10.4910,-0.2119,1.0233,0.2107
10.4970,-0.2119,1.0233,0.2107
10.4980,-0.2119,1.0233,0.2107
10.4980,-0.2119,1.0233,0.2107
10.4990,-0.2048,1.0191,0.2146
10.5170,-0.2048,1.0191,0.2146
10.5170,-0.2048,1.0191,0.2146
10.5170,-0.2048,1.0191,0.2146
10.5170,-0.2021,1.0169,0.2187
10.5180,-0.2021,1.0169,0.2187
10.5260,-0.2021,1.0169,0.2187
10.5470,-0.2021,1.0169,0.2187
10.5470,-0.2021,1.0169,0.2187
10.5470,-0.2021,1.0169,0.2187
10.5480,-0.2011,1.0110,0.2178
10.5480,-0.2009,1.0123,0.2158
10.5770,-0.2009,1.0123,0.2158
10.5770,-0.2009,1.0123,0.2158
10.5770,-0.2009,1.0123,0.2158
10.5770,-0.2031,1.0145,0.2151
10.5980,-0.2031,1.0145,0.2151
10.5980,-0.2031,1.0145,0.2151
10.5980,-0.2031,1.0145,0.2151
10.5990,-0.2068,1.0174,0.2121
10.5990,-0.2068,1.0174,0.2121
10.6280,-0.2068,1.0174,0.2121
10.6290,-0.2068,1.0174,0.2121
10.6290,-0.2068,1.0174,0.2121
10.6300,-0.2075,1.0150,0.2116
10.6300,-0.2094,1.0184,0.2119
10.6580,-0.2094,1.0184,0.2119
10.6590,-0.2094,1.0184,0.2119
10.6590,-0.2094,1.0184,0.2119
10.6590,-0.2077,1.0193,0.2136
10.6810,-0.2077,1.0193,0.2136
10.6820,-0.2077,1.0193,0.2136
10.6820,-0.2077,1.0193,0.2136
10.6820,-0.2065,1.0154,0.2129
10.6820,-0.2065,1.0154,0.2129
10.7090,-0.2065,1.0154,0.2129
10.7100,-0.2065,1.0154,0.2129
10.7100,-0.2065,1.0154,0.2129
10.7100,-0.2085,1.0150,0.2148
10.7110,-0.2063,1.0135,0.2143
10.7300,-0.2063,1.0135,0.2143
10.7380,-0.2063,1.0135,0.2143
10.7390,-0.2063,1.0135,0.2143
10.7390,-0.2063,1.0135,0.2143
10.7390,-0.2016,1.0115,0.2124
10.7590,-0.2016,1.0115,0.2124
10.7600,-0.2016,1.0115,0.2124
10.7600,-0.2016,1.0115,0.2124
10.7600,-0.2006,1.0128,0.2131
10.7610,-0.2006,1.0128,0.2131
10.7890,-0.2006,1.0128,0.2131
10.7890,-0.2006,1.0128,0.2131
10.7900,-0.2006,1.0128,0.2131
10.7900,-0.2038,1.0157,0.2116
10.7910,-0.2060,1.0113,0.2099
10.8200,-0.2060,1.0113,0.2099
10.8210,-0.2060,1.0113,0.2099
10.8210,-0.2060,1.0113,0.2099
10.8210,-0.2060,1.0113,0.2136
10.8420,-0.2060,1.0113,0.2136
10.8420,-0.2060,1.0113,0.2136
10.8420,-0.2060,1.0113,0.2136
10.8430,-0.2092,1.0252,0.2170
10.8430,-0.2092,1.0252,0.2170
10.8700,-0.2092,1.0252,0.2170
10.8700,-0.2092,1.0252,0.2170
10.8700,-0.2092,1.0252,0.2170
10.8710,-0.2124,1.0230,0.2129
10.8710,-0.2092,1.0250,0.2131
10.9010,-0.2092,1.0250,0.2131
10.9010,-0.2092,1.0250,0.2131
10.9020,-0.2092,1.0250,0.2131
10.9020,-0.2055,1.0401,0.2224
10.9200,-0.2055,1.0401,0.2224
10.9200,-0.2055,1.0401,0.2224
10.9210,-0.2055,1.0401,0.2224
10.9210,-0.2072,1.0350,0.2178
10.9210,-0.2072,1.0350,0.2178
10.9290,-0.2072,1.0350,0.2178
10.9490,-0.2072,1.0350,0.2178
10.9500,-0.2072,1.0350,0.2178
10.9500,-0.2072,1.0350,0.2178
10.9500,-0.2082,1.0157,0.2112
10.9510,-0.2031,1.0035,0.2090
10.9780,-0.2031,1.0035,0.2090
10.9780,-0.2031,1.0035,0.2090
10.9780,-0.2031,1.0035,0.2090
10.9790,-0.2043,0.9978,0.2124
11.0000,-0.2043,0.9978,0.2124
11.0000,-0.2043,0.9978,0.2124
11.0000,-0.2043,0.9978,0.2124
11.0010,-0.2038,1.0022,0.2163
11.0010,-0.2038,1.0022,0.2163
11.0300,-0.2038,1.0022,0.2163
11.0300,-0.2038,1.0022,0.2163
11.0300,-0.2038,1.0022,0.2163
11.0490,-0.2009,1.0103,0.2178
11.0490,-0.2041,1.0167,0.2158
11.0570,-0.2041,1.0167,0.2158
11.0570,-0.2041,1.0167,0.2158
11.0570,-0.2041,1.0167,0.2158
11.0570,-0.2090,1.0220,0.2143
11.0780,-0.2090,1.0220,0.2143
11.0780,-0.2090,1.0220,0.2143
11.0780,-0.2090,1.0220,0.2143
11.0790,-0.2102,1.0303,0.2104
11.0790,-0.2102,1.0303,0.2104
11.1100,-0.2102,1.0303,0.2104
11.1100,-0.2102,1.0303,0.2104
11.1100,-0.2102,1.0303,0.2104
11.1110,-0.2187,1.0321,0.2104
11.1110,-0.2197,1.0237,0.2109
11.1280,-0.2197,1.0237,0.2109
11.1400,-0.2197,1.0237,0.2109
11.1400,-0.2197,1.0237,0.2109
11.1410,-0.2197,1.0237,0.2109
11.1410,-0.2097,1.0223,0.2124
11.1590,-0.2097,1.0223,0.2124
11.1590,-0.2097,1.0223,0.2124
11.1600,-0.2097,1.0223,0.2124
11.1600,-0.1992,1.0203,0.2136
11.1610,-0.1992,1.0203,0.2136
11.1870,-0.1992,1.0203,0.2136
11.1870,-0.1992,1.0203,0.2136
11.1880,-0.1992,1.0203,0.2136
11.1880,-0.1975,1.0137,0.2090
11.1880,-0.2016,1.0057,0.2112
11.2200,-0.2016,1.0057,0.2112
11.2200,-0.2016,1.0057,0.2112
11.2200,-0.2016,1.0057,0.2112
11.2210,-0.2072,1.0025,0.2131
11.2430,-0.2072,1.0025,0.2131
11.2430,-0.2072,1.0025,0.2131
11.2440,-0.2072,1.0025,0.2131
11.2440,-0.2099,1.0059,0.2116
11.2450,-0.2099,1.0059,0.2116
11.2690,-0.2099,1.0059,0.2116
11.2700,-0.2099,1.0059,0.2116
11.2700,-0.2099,1.0059,0.2116
11.2710,-0.2070,1.0115,0.2109
11.2710,-0.2048,1.0198,0.2102
11.3020,-0.2048,1.0198,0.2102
11.3030,-0.2048,1.0198,0.2102
11.3030,-0.2048,1.0198,0.2102
11.3040,-0.2043,1.0257,0.2104
11.3240,-0.2043,1.0257,0.2104
11.3250,-0.2043,1.0257,0.2104
11.3250,-0.2043,1.0257,0.2104
11.3250,-0.2072,1.0272,0.2070
11.3260,-0.2072,1.0272,0.2070
11.3300,-0.2072,1.0272,0.2070
11.3510,-0.2072,1.0272,0.2070
11.3520,-0.2072,1.0272,0.2070
11.3520,-0.2072,1.0272,0.2070
11.3520,-0.2116,1.0176,0.2063
11.3520,-0.2124,1.0091,0.2065
11.3790,-0.2124,1.0091,0.2065
11.3790,-0.2124,1.0091,0.2065
11.3800,-0.2124,1.0091,0.2065
11.3800,-0.2129,1.0091,0.2090
11.4000,-0.2129,1.0091,0.2090
11.4010,-0.2129,1.0091,0.2090
11.4010,-0.2129,1.0091,0.2090
11.4020,-0.2112,1.0162,0.2136
11.4020,-0.2112,1.0162,0.2136
11.4300,-0.2112,1.0162,0.2136
11.4300,-0.2112,1.0162,0.2136
11.4300,-0.2112,1.0162,0.2136
11.4310,-0.2072,1.0247,0.2129
11.4310,-0.2021,1.0240,0.2114
11.4590,-0.2021,1.0240,0.2114
11.4600,-0.2021,1.0240,0.2114
11.4610,-0.2021,1.0240,0.2114
11.4610,-0.1948,1.0235,0.2131
11.4820,-0.1948,1.0235,0.2131
11.4820,-0.1948,1.0235,0.2131
11.4820,-0.1948,1.0235,0.2131
11.4830,-0.1953,1.0242,0.2168
11.4830,-0.1953,1.0242,0.2168
11.5090,-0.1953,1.0242,0.2168
11.5100,-0.1953,1.0242,0.2168
11.5100,-0.1953,1.0242,0.2168
11.5100,-0.1982,1.0154,0.2204
11.5110,-0.1970,1.0101,0.2222
11.5270,-0.1970,1.0101,0.2222
11.5390,-0.1970,1.0101,0.2222
11.5390,-0.1970,1.0101,0.2222
11.5400,-0.1970,1.0101,0.2222
11.5400,-0.1918,1.0125,0.2226
11.5610,-0.1918,1.0125,0.2226
11.5610,-0.1918,1.0125,0.2226
11.5620,-0.1918,1.0125,0.2226
11.5620,-0.1938,1.0125,0.2190
11.5620,-0.1938,1.0125,0.2190
11.5890,-0.1938,1.0125,0.2190
11.5900,-0.1938,1.0125,0.2190
11.6070,-0.1938,1.0125,0.2190
11.6070,-0.1984,1.0120,0.2151
11.6070,-0.2016,1.0230,0.2119
11.6170,-0.2016,1.0230,0.2119
11.6170,-0.2016,1.0230,0.2119
11.6180,-0.2016,1.0230,0.2119
11.6180,-0.2050,1.0233,0.2136
11.6380,-0.2050,1.0233,0.2136
11.6400,-0.2050,1.0233,0.2136
11.6400,-0.2050,1.0233,0.2136
11.6400,-0.2104,1.0208,0.2121
11.6400,-0.2104,1.0208,0.2121
11.6680,-0.2104,1.0208,0.2121
11.6680,-0.2104,1.0208,0.2121
11.6690,-0.2104,1.0208,0.2121
11.6690,-0.2114,1.0206,0.2158
11.6690,-0.2099,1.0206,0.2180
11.7000,-0.2099,1.0206,0.2180
11.7010,-0.2099,1.0206,0.2180
11.7010,-0.2099,1.0206,0.2180
11.7010,-0.2060,1.0164,0.2195
11.7210,-0.2060,1.0164,0.2195
11.7210,-0.2060,1.0164,0.2195
11.7210,-0.2060,1.0164,0.2195
11.7240,-0.2026,1.0125,0.2158
11.7240,-0.2026,1.0125,0.2158
11.7290,-0.2026,1.0125,0.2158
11.7490,-0.2026,1.0125,0.2158
11.7500,-0.2026,1.0125,0.2158
11.7500,-0.2026,1.0125,0.2158
11.7500,-0.2021,1.0159,0.2151
11.7500,-0.2053,1.0159,0.2163
11.7780,-0.2053,1.0159,0.2163
11.7790,-0.2053,1.0159,0.2163
11.7790,-0.2053,1.0159,0.2163
11.7790,-0.2046,1.0147,0.2131
11.8010,-0.2046,1.0147,0.2131
11.8010,-0.2046,1.0147,0.2131
11.8020,-0.2046,1.0147,0.2131
11.8020,-0.2053,1.0196,0.2129
11.8020,-0.2053,1.0196,0.2129
11.8300,-0.2053,1.0196,0.2129
11.8300,-0.2053,1.0196,0.2129
11.8310,-0.2053,1.0196,0.2129
11.8310,-0.2038,1.0225,0.2151
11.8310,-0.2011,1.0176,0.2146
11.8590,-0.2011,1.0176,0.2146
11.8600,-0.2011,1.0176,0.2146
11.8600,-0.2011,1.0176,0.2146
11.8600,-0.2002,1.0164,0.2175
11.8820,-0.2002,1.0164,0.2175
11.8830,-0.2002,1.0164,0.2175
11.8830,-0.2002,1.0164,0.2175
11.8830,-0.1994,1.0174,0.2190
11.8840,-0.1994,1.0174,0.2190
11.9090,-0.1994,1.0174,0.2190
11.9090,-0.1994,1.0174,0.2190
11.9090,-0.1994,1.0174,0.2190
11.9100,-0.2014,1.0130,0.2148
11.9100,-0.2053,1.0118,0.2109
11.9270,-0.2053,1.0118,0.2109
11.9400,-0.2053,1.0118,0.2109
11.9400,-0.2053,1.0118,0.2109
11.9410,-0.2053,1.0118,0.2109
11.9410,-0.2063,1.0147,0.2131
11.9610,-0.2063,1.0147,0.2131
11.9620,-0.2063,1.0147,0.2131
11.9620,-0.2063,1.0147,0.2131
11.9630,-0.2046,1.0213,0.2131
11.9630,-0.2046,1.0213,0.2131
11.9890,-0.2046,1.0213,0.2131
11.9900,-0.2046,1.0213,0.2131
11.9900,-0.2046,1.0213,0.2131
11.9900,-0.2053,1.0228,0.2134
11.9910,-0.2041,1.0233,0.2153
12.0200,-0.2041,1.0233,0.2153
12.0210,-0.2041,1.0233,0.2153
12.0210,-0.2041,1.0233,0.2153
12.0210,-0.2031,1.0223,0.2136
12.0410,-0.2031,1.0223,0.2136
12.0420,-0.2031,1.0223,0.2136
12.0420,-0.2031,1.0223,0.2136
12.0420,-0.2036,1.0150,0.2156
12.0430,-0.2036,1.0150,0.2156
12.0710,-0.2036,1.0150,0.2156
12.0720,-0.2036,1.0150,0.2156
12.0720,-0.2036,1.0150,0.2156
12.0730,-0.2031,1.0113,0.2173
12.0730,-0.2055,1.0132,0.2178
12.1020,-0.2055,1.0132,0.2178
12.1020,-0.2055,1.0132,0.2178
12.1030,-0.2055,1.0132,0.2178
12.1030,-0.2107,1.0164,0.2163
12.1230,-0.2107,1.0164,0.2163
12.1230,-0.2107,1.0164,0.2163
12.1240,-0.2107,1.0164,0.2163
12.1240,-0.2094,1.0189,0.2094
12.1240,-0.2094,1.0189,0.2094
12.1280,-0.2094,1.0189,0.2094
12.1510,-0.2094,1.0189,0.2094
12.1650,-0.2094,1.0189,0.2094
12.1660,-0.2094,1.0189,0.2094
12.1660,-0.2028,1.0218,0.2107
12.1670,-0.2004,1.0223,0.2097
12.1790,-0.2004,1.0223,0.2097
12.1790,-0.2004,1.0223,0.2097
12.1800,-0.2004,1.0223,0.2097
12.1800,-0.1962,1.0181,0.2114
12.2000,-0.1962,1.0181,0.2114
12.2000,-0.1962,1.0181,0.2114
12.2000,-0.1962,1.0181,0.2114
12.2010,-0.1906,1.0230,0.2192
12.2010,-0.1906,1.0230,0.2192
12.2290,-0.1906,1.0230,0.2192
12.2300,-0.1906,1.0230,0.2192
12.2300,-0.1906,1.0230,0.2192
12.2310,-0.1894,1.0240,0.2200
12.2310,-0.1923,1.0172,0.2143
12.2590,-0.1923,1.0172,0.2143
12.2600,-0.1923,1.0172,0.2143
12.2600,-0.1923,1.0172,0.2143
12.2610,-0.1982,1.0108,0.2134
12.2800,-0.1982,1.0108,0.2134
12.2810,-0.1982,1.0108,0.2134
12.2810,-0.1982,1.0108,0.2134
12.2820,-0.2038,1.0098,0.2160
12.2820,-0.2038,1.0098,0.2160
12.3100,-0.2038,1.0098,0.2160
12.3100,-0.2038,1.0098,0.2160
12.3110,-0.2038,1.0098,0.2160
12.3110,-0.2068,1.0162,0.2170
12.3110,-0.2107,1.0211,0.2182
12.3280,-0.2107,1.0211,0.2182
12.3400,-0.2107,1.0211,0.2182
12.3400,-0.2107,1.0211,0.2182
12.3410,-0.2107,1.0211,0.2182
12.3410,-0.2124,1.0250,0.2180
12.3620,-0.2124,1.0250,0.2180
12.3630,-0.2124,1.0250,0.2180
12.3630,-0.2124,1.0250,0.2180
12.3640,-0.2085,1.0267,0.2160
12.3640,-0.2085,1.0267,0.2160
12.3890,-0.2085,1.0267,0.2160
12.3890,-0.2085,1.0267,0.2160
12.3900,-0.2085,1.0267,0.2160
12.3900,-0.2097,1.0230,0.2126
12.3910,-0.2170,1.0142,0.2134
12.4210,-0.2170,1.0142,0.2134
12.4210,-0.2170,1.0142,0.2134
12.4210,-0.2170,1.0142,0.2134
12.4220,-0.2226,1.0081,0.2241
12.4430,-0.2226,1.0081,0.2241
12.4440,-0.2226,1.0081,0.2241
12.4440,-0.2226,1.0081,0.2241
12.4440,-0.2292,1.0042,0.2275
12.4450,-0.2292,1.0042,0.2275
12.4720,-0.2292,1.0042,0.2275
12.4720,-0.2292,1.0042,0.2275
12.4720,-0.2292,1.0042,0.2275
12.4730,-0.2339,1.0047,0.2190
12.4740,-0.2327,1.0074,0.2163
12.5000,-0.2327,1.0074,0.2163
12.5010,-0.2327,1.0074,0.2163
12.5010,-0.2327,1.0074,0.2163
12.5020,-0.2270,1.0091,0.2148
12.5220,-0.2270,1.0091,0.2148
12.5230,-0.2270,1.0091,0.2148
12.5230,-0.2270,1.0091,0.2148
12.5240,-0.2207,1.0157,0.2204
12.5240,-0.2207,1.0157,0.2204
12.5270,-0.2207,1.0157,0.2204
12.5510,-0.2207,1.0157,0.2204
12.5510,-0.2207,1.0157,0.2204
12.5520,-0.2207,1.0157,0.2204
12.5520,-0.2143,1.0184,0.2253
12.5530,-0.2016,1.0150,0.2217
12.5810,-0.2016,1.0150,0.2217
12.5810,-0.2016,1.0150,0.2217
12.5820,-0.2016,1.0150,0.2217
12.5820,-0.1896,1.0152,0.2141
12.6010,-0.1896,1.0152,0.2141
12.6020,-0.1896,1.0152,0.2141
12.6020,-0.1896,1.0152,0.2141
12.6030,-0.1821,1.0152,0.2107
12.6030,-0.1821,1.0152,0.2107
12.6310,-0.1821,1.0152,0.2107
12.6320,-0.1821,1.0152,0.2107
12.6320,-0.1821,1.0152,0.2107
12.6320,-0.1843,1.0132,0.2146
12.6330,-0.1926,1.0213,0.2143
12.6630,-0.1926,1.0213,0.2143
12.6640,-0.1926,1.0213,0.2143
12.6640,-0.1926,1.0213,0.2143
12.6650,-0.2046,1.0250,0.2134
12.6840,-0.2046,1.0250,0.2134
12.6840,-0.2046,1.0250,0.2134
12.6850,-0.2046,1.0250,0.2134
12.6850,-0.2182,1.0162,0.2099
12.6860,-0.2182,1.0162,0.2099
12.7120,-0.2182,1.0162,0.2099
12.7290,-0.2182,1.0162,0.2099
12.7300,-0.2182,1.0162,0.2099
12.7310,-0.2268,1.0128,0.2102
12.7310,-0.2263,1.0128,0.2146
12.7310,-0.2263,1.0128,0.2146
12.7340,-0.2263,1.0128,0.2146
12.7390,-0.2263,1.0128,0.2146
12.7390,-0.2263,1.0128,0.2146
12.7390,-0.2263,1.0128,0.2146
12.7400,-0.2231,1.0174,0.2156
12.7600,-0.2231,1.0174,0.2156
12.7600,-0.2231,1.0174,0.2156
12.7600,-0.2231,1.0174,0.2156
12.7610,-0.2202,1.0167,0.2148
12.7610,-0.2202,1.0167,0.2148
12.7890,-0.2202,1.0167,0.2148
12.7890,-0.2202,1.0167,0.2148
12.7890,-0.2202,1.0167,0.2148
12.7890,-0.2158,1.0140,0.2163
12.7890,-0.2107,1.0137,0.2163
12.8190,-0.2107,1.0137,0.2163
12.8190,-0.2107,1.0137,0.2163
12.8190,-0.2107,1.0137,0.2163
12.8200,-0.2104,1.0140,0.2160
12.8410,-0.2104,1.0140,0.2160
12.8410,-0.2104,1.0140,0.2160
12.8420,-0.2104,1.0140,0.2160
12.8420,-0.2136,1.0142,0.2163
12.8420,-0.2136,1.0142,0.2163
12.8700,-0.2136,1.0142,0.2163
12.8700,-0.2136,1.0142,0.2163
12.8700,-0.2136,1.0142,0.2163
12.8710,-0.2170,1.0110,0.2141
12.8710,-0.2153,1.0110,0.2116
12.9000,-0.2153,1.0110,0.2116
12.9000,-0.2153,1.0110,0.2116
12.9000,-0.2153,1.0110,0.2116
12.9010,-0.2124,1.0110,0.2158
12.9210,-0.2124,1.0110,0.2158
12.9210,-0.2124,1.0110,0.2158
12.9220,-0.2124,1.0110,0.2158
12.9260,-0.2112,1.0130,0.2163
12.9270,-0.2112,1.0130,0.2163
12.9300,-0.2112,1.0130,0.2163
12.9510,-0.2112,1.0130,0.2163
12.9510,-0.2112,1.0130,0.2163
12.9520,-0.2112,1.0130,0.2163
12.9520,-0.2080,1.0162,0.2141
12.9530,-0.2063,1.0203,0.2107
12.9810,-0.2063,1.0203,0.2107
12.9820,-0.2063,1.0203,0.2107
12.9820,-0.2063,1.0203,0.2107
12.9830,-0.2036,1.0198,0.2151
13.0020,-0.2036,1.0198,0.2151
13.0030,-0.2036,1.0198,0.2151
13.0040,-0.2036,1.0198,0.2151
13.0040,-0.2046,1.0186,0.2190
13.0040,-0.2046,1.0186,0.2190
13.0320,-0.2046,1.0186,0.2190
13.0320,-0.2046,1.0186,0.2190
13.0330,-0.2046,1.0186,0.2190
13.0330,-0.2053,1.0162,0.2156
13.0340,-0.2119,1.0088,0.2121
13.0610,-0.2119,1.0088,0.2121
13.0620,-0.2119,1.0088,0.2121
13.0620,-0.2119,1.0088,0.2121
13.0620,-0.2160,1.0096,0.2143
13.0810,-0.2160,1.0096,0.2143
13.0820,-0.2160,1.0096,0.2143
13.0820,-0.2160,1.0096,0.2143
13.0820,-0.2192,1.0125,0.2202
13.0820,-0.2192,1.0125,0.2202
13.1130,-0.2192,1.0125,0.2202
13.1130,-0.2192,1.0125,0.2202
13.1130,-0.2192,1.0125,0.2202
13.1140,-0.2190,1.0147,0.2170
13.1140,-0.2148,1.0211,0.2143
13.1300,-0.2148,1.0211,0.2143
13.1420,-0.2148,1.0211,0.2143
13.1420,-0.2148,1.0211,0.2143
13.1430,-0.2148,1.0211,0.2143
13.1430,-0.2109,1.0208,0.2129
13.1630,-0.2109,1.0208,0.2129
13.1630,-0.2109,1.0208,0.2129
13.1640,-0.2109,1.0208,0.2129
13.1640,-0.2065,1.0172,0.2109
13.1650,-0.2065,1.0172,0.2109
13.1930,-0.2065,1.0172,0.2109
13.1940,-0.2065,1.0172,0.2109
13.1940,-0.2065,1.0172,0.2109
13.1940,-0.2082,1.0162,0.2138
13.1940,-0.2112,1.0186,0.2138
13.2210,-0.2112,1.0186,0.2138
13.2220,-0.2112,1.0186,0.2138
13.2220,-0.2112,1.0186,0.2138
13.2230,-0.2136,1.0172,0.2102
13.2440,-0.2136,1.0172,0.2102
13.2440,-0.2136,1.0172,0.2102
13.2450,-0.2136,1.0172,0.2102
13.2450,-0.2124,1.0159,0.2107
13.2650,-0.2124,1.0159,0.2107
13.2700,-0.2124,1.0159,0.2107
13.2700,-0.2124,1.0159,0.2107
13.2700,-0.2124,1.0159,0.2107
13.2700,-0.2112,1.0125,0.2163
13.2700,-0.2109,1.0115,0.2185
13.3000,-0.2109,1.0115,0.2185
13.3000,-0.2109,1.0115,0.2185
13.3000,-0.2109,1.0115,0.2185
13.3010,-0.2104,1.0110,0.2200
13.3220,-0.2104,1.0110,0.2200
13.3220,-0.2104,1.0110,0.2200
13.3230,-0.2104,1.0110,0.2200
13.3250,-0.2087,1.0128,0.2214
13.3260,-0.2087,1.0128,0.2214
13.3260,-0.2087,1.0128,0.2214
13.3350,-0.2087,1.0128,0.2214
13.3520,-0.2087,1.0128,0.2214
13.3520,-0.2087,1.0128,0.2214
13.3520,-0.2087,1.0128,0.2214
13.3530,-0.2097,1.0147,0.2146
13.3530,-0.2107,1.0135,0.2109
13.3810,-0.2107,1.0135,0.2109
13.3810,-0.2107,1.0135,0.2109
13.3810,-0.2107,1.0135,0.2109
13.3810,-0.2099,1.0140,0.2160
13.4020,-0.2099,1.0140,0.2160
13.4020,-0.2099,1.0140,0.2160
13.4030,-0.2099,1.0140,0.2160
13.4030,-0.2104,1.0164,0.2173
13.4030,-0.2104,1.0164,0.2173
13.4330,-0.2104,1.0164,0.2173
13.4330,-0.2104,1.0164,0.2173
13.4340,-0.2104,1.0164,0.2173
13.4340,-0.2099,1.0176,0.2158
13.4340,-0.2107,1.0215,0.2119
13.4630,-0.2107,1.0215,0.2119
13.4630,-0.2107,1.0215,0.2119
13.4640,-0.2107,1.0215,0.2119
13.4640,-0.2102,1.0223,0.2090
13.4830,-0.2102,1.0223,0.2090
13.4830,-0.2102,1.0223,0.2090
13.4830,-0.2102,1.0223,0.2090
13.4840,-0.2116,1.0176,0.2077
13.4840,-0.2116,1.0176,0.2077
13.5130,-0.2116,1.0176,0.2077
13.5140,-0.2116,1.0176,0.2077
13.5140,-0.2116,1.0176,0.2077
13.5140,-0.2163,1.0154,0.2146
13.5150,-0.2146,1.0152,0.2185
13.5280,-0.2146,1.0152,0.2185
13.5420,-0.2146,1.0152,0.2185
13.5420,-0.2146,1.0152,0.2185
13.5420,-0.2146,1.0152,0.2185
13.5430,-0.2087,1.0125,0.2163
13.5620,-0.2087,1.0125,0.2163
13.5630,-0.2087,1.0125,0.2163
13.5630,-0.2087,1.0125,0.2163
13.5630,-0.2063,1.0150,0.2180
13.5640,-0.2063,1.0150,0.2180
13.5920,-0.2063,1.0150,0.2180
13.5930,-0.2063,1.0150,0.2180
13.5930,-0.2063,1.0150,0.2180
13.5930,-0.2070,1.0157,0.2204
13.5930,-0.2116,1.0130,0.2168
13.6220,-0.2116,1.0130,0.2168
13.6230,-0.2116,1.0130,0.2168
13.6230,-0.2116,1.0130,0.2168
13.6230,-0.2134,1.0120,0.2148
13.6440,-0.2134,1.0120,0.2148
13.6440,-0.2134,1.0120,0.2148
13.6440,-0.2134,1.0120,0.2148
13.6440,-0.2134,1.0159,0.2129
13.6450,-0.2134,1.0159,0.2129
13.6720,-0.2134,1.0159,0.2129
13.6730,-0.2134,1.0159,0.2129
13.6730,-0.2134,1.0159,0.2129
13.6740,-0.2107,1.0193,0.2119
13.6740,-0.2109,1.0230,0.2104
13.7030,-0.2109,1.0230,0.2104
13.7030,-0.2109,1.0230,0.2104
13.7040,-0.2109,1.0230,0.2104
13.7040,-0.2107,1.0184,0.2102
13.7230,-0.2107,1.0184,0.2102
13.7240,-0.2107,1.0184,0.2102
13.7240,-0.2107,1.0184,0.2102
13.7240,-0.2109,1.0142,0.2119
13.7250,-0.2109,1.0142,0.2119
13.7280,-0.2109,1.0142,0.2119
13.7530,-0.2109,1.0142,0.2119
13.7530,-0.2109,1.0142,0.2119
13.7540,-0.2109,1.0142,0.2119
13.7540,-0.2107,1.0152,0.2163
13.7550,-0.2112,1.0123,0.2178
13.7820,-0.2112,1.0123,0.2178
13.7820,-0.2112,1.0123,0.2178
13.7830,-0.2112,1.0123,0.2178
13.7830,-0.2094,1.0108,0.2129
13.8030,-0.2094,1.0108,0.2129
13.8030,-0.2094,1.0108,0.2129
13.8200,-0.2094,1.0108,0.2129
13.8210,-0.2116,1.0108,0.2099
13.8210,-0.2116,1.0108,0.2099
13.8370,-0.2116,1.0108,0.2099
13.8370,-0.2116,1.0108,0.2099
13.8370,-0.2116,1.0108,0.2099
13.8380,-0.2160,1.0152,0.2156
13.8380,-0.2102,1.0218,0.2158
13.8620,-0.2102,1.0218,0.2158
13.8620,-0.2102,1.0218,0.2158
13.8620,-0.2102,1.0218,0.2158
13.8620,-0.2041,1.0228,0.2134
13.8830,-0.2041,1.0228,0.2134
13.8840,-0.2041,1.0228,0.2134
13.8840,-0.2041,1.0228,0.2134
13.8850,-0.2019,1.0220,0.2148
13.8860,-0.2019,1.0220,0.2148
13.9110,-0.2019,1.0220,0.2148
13.9120,-0.2019,1.0220,0.2148
13.9120,-0.2019,1.0220,0.2148
13.9120,-0.2024,1.0228,0.2104
13.9120,-0.2068,1.0152,0.2134
13.9270,-0.2068,1.0152,0.2134
13.9440,-0.2068,1.0152,0.2134
13.9440,-0.2068,1.0152,0.2134
13.9440,-0.2068,1.0152,0.2134
13.9450,-0.2116,1.0076,0.2178
13.9620,-0.2116,1.0076,0.2178
13.9630,-0.2116,1.0076,0.2178
13.9630,-0.2116,1.0076,0.2178
13.9630,-0.2085,1.0086,0.2202
13.9640,-0.2085,1.0086,0.2202
13.9910,-0.2085,1.0086,0.2202
13.9910,-0.2085,1.0086,0.2202
13.9920,-0.2085,1.0086,0.2202
13.9920,-0.2036,1.0159,0.2178
13.9920,-0.2031,1.0225,0.2129
14.0210,-0.2031,1.0225,0.2129
14.0220,-0.2031,1.0225,0.2129
14.0220,-0.2031,1.0225,0.2129
14.0230,-0.2050,1.0247,0.2053
14.0440,-0.2050,1.0247,0.2053
14.0440,-0.2050,1.0247,0.2053
14.0440,-0.2050,1.0247,0.2053
14.0450,-0.2043,1.0237,0.2055
14.0450,-0.2043,1.0237,0.2055
14.0730,-0.2043,1.0237,0.2055
14.0740,-0.2043,1.0237,0.2055
14.0740,-0.2043,1.0237,0.2055
14.0750,-0.2107,1.0218,0.2107
14.0750,-0.2200,1.0157,0.2170
14.1020,-0.2200,1.0157,0.2170
14.1020,-0.2200,1.0157,0.2170
14.1030,-0.2200,1.0157,0.2170
14.1030,-0.2278,1.0113,0.2202
14.1240,-0.2278,1.0113,0.2202
14.1240,-0.2278,1.0113,0.2202
14.1250,-0.2278,1.0113,0.2202
14.1250,-0.2287,1.0088,0.2151
14.1260,-0.2287,1.0088,0.2151
14.1260,-0.2287,1.0088,0.2151
14.1540,-0.2287,1.0088,0.2151
14.1550,-0.2287,1.0088,0.2151
14.1550,-0.2287,1.0088,0.2151
14.1550,-0.2243,1.0064,0.2129
14.1560,-0.2146,1.0096,0.2163
14.1830,-0.2146,1.0096,0.2163
14.1830,-0.2146,1.0096,0.2163
14.1830,-0.2146,1.0096,0.2163
14.1840,-0.2126,1.0125,0.2153
14.2040,-0.2126,1.0125,0.2153
14.2050,-0.2126,1.0125,0.2153
14.2050,-0.2126,1.0125,0.2153
14.2060,-0.2165,1.0135,0.2185
14.2060,-0.2165,1.0135,0.2185
14.2340,-0.2165,1.0135,0.2185
14.2340,-0.2165,1.0135,0.2185
14.2350,-0.2165,1.0135,0.2185
14.2350,-0.2207,1.0137,0.2173
14.2360,-0.2192,1.0130,0.2160
14.2630,-0.2192,1.0130,0.2160
14.2630,-0.2192,1.0130,0.2160
14.2640,-0.2192,1.0130,0.2160
14.2640,-0.2156,1.0125,0.2121
14.2850,-0.2156,1.0125,0.2121
14.2860,-0.2156,1.0125,0.2121
14.2860,-0.2156,1.0125,0.2121
14.2870,-0.2104,1.0132,0.2077
14.2870,-0.2104,1.0132,0.2077
14.3140,-0.2104,1.0132,0.2077
14.3140,-0.2104,1.0132,0.2077
14.3150,-0.2104,1.0132,0.2077
14.3150,-0.2080,1.0135,0.2085
14.3150,-0.2082,1.0179,0.2143
14.3290,-0.2082,1.0179,0.2143
14.3440,-0.2082,1.0179,0.2143
14.3440,-0.2082,1.0179,0.2143
14.3450,-0.2082,1.0179,0.2143
14.3450,-0.2090,1.0196,0.2168
14.3650,-0.2090,1.0196,0.2168
14.3830,-0.2090,1.0196,0.2168
14.3840,-0.2090,1.0196,0.2168
14.3840,-0.2082,1.0167,0.2141
14.3850,-0.2082,1.0167,0.2141
14.3930,-0.2082,1.0167,0.2141
14.3930,-0.2082,1.0167,0.2141
14.3940,-0.2082,1.0167,0.2141
14.3940,-0.2050,1.0142,0.2070
14.3940,-0.2090,1.0150,0.2114
14.4230,-0.2090,1.0150,0.2114
14.4230,-0.2090,1.0150,0.2114
14.4230,-0.2090,1.0150,0.2114
14.4230,-0.2107,1.0189,0.2124
14.4440,-0.2107,1.0189,0.2124
14.4450,-0.2107,1.0189,0.2124
14.4450,-0.2107,1.0189,0.2124
14.4460,-0.2119,1.0223,0.2124
14.4460,-0.2119,1.0223,0.2124
14.4730,-0.2119,1.0223,0.2124
14.4740,-0.2119,1.0223,0.2124
14.4740,-0.2119,1.0223,0.2124
14.4740,-0.2116,1.0159,0.2134
14.4750,-0.2104,1.0103,0.2165
14.5030,-0.2104,1.0103,0.2165
14.5040,-0.2104,1.0103,0.2165
14.5040,-0.2104,1.0103,0.2165
14.5040,-0.2112,1.0106,0.2168
14.5240,-0.2112,1.0106,0.2168
14.5240,-0.2112,1.0106,0.2168
14.5240,-0.2112,1.0106,0.2168
14.5240,-0.2114,1.0091,0.2163
14.5250,-0.2114,1.0091,0.2163
14.5270,-0.2114,1.0091,0.2163
14.5550,-0.2114,1.0091,0.2163
14.5550,-0.2114,1.0091,0.2163
14.5550,-0.2114,1.0091,0.2163
14.5560,-0.2134,1.0125,0.2131
14.5560,-0.2151,1.0157,0.2131
14.5830,-0.2151,1.0157,0.2131
14.5830,-0.2151,1.0157,0.2131
14.5840,-0.2151,1.0157,0.2131
14.5840,-0.2134,1.0167,0.2099
14.6040,-0.2134,1.0167,0.2099
14.6050,-0.2134,1.0167,0.2099
14.6050,-0.2134,1.0167,0.2099
14.6050,-0.2114,1.0208,0.2094
14.6050,-0.2114,1.0208,0.2094
14.6340,-0.2114,1.0208,0.2094
14.6340,-0.2114,1.0208,0.2094
14.6340,-0.2114,1.0208,0.2094
14.6350,-0.2141,1.0198,0.2112
14.6350,-0.2134,1.0211,0.2151
14.6640,-0.2134,1.0211,0.2151
14.6640,-0.2134,1.0211,0.2151
14.6640,-0.2134,1.0211,0.2151
14.6650,-0.2080,1.0220,0.2173
14.6840,-0.2080,1.0220,0.2173
14.6850,-0.2080,1.0220,0.2173
14.6850,-0.2080,1.0220,0.2173
14.6860,-0.2092,1.0193,0.2138
14.6860,-0.2092,1.0193,0.2138
14.7150,-0.2092,1.0193,0.2138
14.7160,-0.2092,1.0193,0.2138
14.7160,-0.2092,1.0193,0.2138
14.7170,-0.2104,1.0169,0.2119
14.7170,-0.2112,1.0184,0.2046
14.7290,-0.2112,1.0184,0.2046
14.7440,-0.2112,1.0184,0.2046
14.7440,-0.2112,1.0184,0.2046
14.7450,-0.2112,1.0184,0.2046
14.7450,-0.2156,1.0176,0.2070
14.7650,-0.2156,1.0176,0.2070
14.7650,-0.2156,1.0176,0.2070
14.7650,-0.2156,1.0176,0.2070
14.7660,-0.2146,1.0142,0.2099
14.7660,-0.2146,1.0142,0.2099
14.7940,-0.2146,1.0142,0.2099
14.7940,-0.2146,1.0142,0.2099
14.7940,-0.2146,1.0142,0.2099
14.7950,-0.2082,1.0167,0.2109
14.7950,-0.2072,1.0162,0.2090
14.8240,-0.2072,1.0162,0.2090
14.8240,-0.2072,1.0162,0.2090
14.8250,-0.2072,1.0162,0.2090
14.8250,-0.2053,1.0130,0.2075
14.8460,-0.2053,1.0130,0.2075
14.8470,-0.2053,1.0130,0.2075
14.8470,-0.2053,1.0130,0.2075
14.8470,-0.2038,1.0125,0.2112
14.8480,-0.2038,1.0125,0.2112
14.8770,-0.2038,1.0125,0.2112
14.8770,-0.2038,1.0125,0.2112
14.8780,-0.2038,1.0125,0.2112
14.8780,-0.2070,1.0142,0.2126
14.8790,-0.2143,1.0132,0.2114
14.9040,-0.2143,1.0132,0.2114
14.9040,-0.2143,1.0132,0.2114
14.9050,-0.2143,1.0132,0.2114
14.9050,-0.2163,1.0123,0.2021
14.9270,-0.2163,1.0123,0.2021
14.9450,-0.2163,1.0123,0.2021
14.9450,-0.2163,1.0123,0.2021
14.9450,-0.2165,1.0132,0.1982
14.9450,-0.2165,1.0132,0.1982
14.9460,-0.2165,1.0132,0.1982
14.9610,-0.2165,1.0132,0.1982
14.9610,-0.2165,1.0132,0.1982
14.9620,-0.2165,1.0132,0.1982
14.9620,-0.2141,1.0135,0.2036
14.9620,-0.2158,1.0213,0.2114
14.9830,-0.2158,1.0213,0.2114
14.9830,-0.2158,1.0213,0.2114
14.9830,-0.2158,1.0213,0.2114
14.9830,-0.2151,1.0189,0.2119
15.0040,-0.2151,1.0189,0.2119
15.0040,-0.2151,1.0189,0.2119
15.0040,-0.2151,1.0189,0.2119
15.0040,-0.2146,1.0150,0.2090
15.0050,-0.2146,1.0150,0.2090
15.0320,-0.2146,1.0150,0.2090
15.0330,-0.2146,1.0150,0.2090
15.0330,-0.2146,1.0150,0.2090
15.0330,-0.2170,1.0118,0.2075
15.0330,-0.2207,1.0164,0.2126
15.0650,-0.2207,1.0164,0.2126
15.0650,-0.2207,1.0164,0.2126
15.0660,-0.2207,1.0164,0.2126
15.0660,-0.2248,1.0215,0.2214
15.0850,-0.2248,1.0215,0.2214
15.0850,-0.2248,1.0215,0.2214
15.0850,-0.2248,1.0215,0.2214
15.0860,-0.2217,1.0198,0.2214
15.0860,-0.2217,1.0198,0.2214
15.1140,-0.2217,1.0198,0.2214
15.1140,-0.2217,1.0198,0.2214
15.1150,-0.2217,1.0198,0.2214
15.1150,-0.2158,1.0103,0.2200
15.1160,-0.2107,1.0069,0.2156
15.1280,-0.2107,1.0069,0.2156
15.1430,-0.2107,1.0069,0.2156
15.1440,-0.2107,1.0069,0.2156
15.1440,-0.2107,1.0069,0.2156
15.1440,-0.2195,1.0101,0.2082
15.1660,-0.2195,1.0101,0.2082
15.1670,-0.2195,1.0101,0.2082
15.1670,-0.2195,1.0101,0.2082
15.1680,-0.2207,1.0208,0.1982
15.1680,-0.2207,1.0208,0.1982
15.1950,-0.2207,1.0208,0.1982
15.1960,-0.2207,1.0208,0.1982
15.1960,-0.2207,1.0208,0.1982
15.1970,-0.2116,1.0267,0.1911
15.1970,-0.2090,1.0313,0.1914
15.2240,-0.2090,1.0313,0.1914
15.2240,-0.2090,1.0313,0.1914
15.2240,-0.2090,1.0313,0.1914
15.2250,-0.2070,1.0277,0.2053
15.2450,-0.2070,1.0277,0.2053
15.2450,-0.2070,1.0277,0.2053
15.2460,-0.2070,1.0277,0.2053
15.2460,-0.2024,1.0220,0.2102
15.2470,-0.2024,1.0220,0.2102
15.2780,-0.2024,1.0220,0.2102
15.2780,-0.2024,1.0220,0.2102
15.2780,-0.2024,1.0220,0.2102
15.2790,-0.2038,1.0154,0.2116
15.2790,-0.2121,1.0076,0.2168
15.3050,-0.2121,1.0076,0.2168
15.3050,-0.2121,1.0076,0.2168
15.3060,-0.2121,1.0076,0.2168
15.3060,-0.2209,1.0040,0.2119
15.3270,-0.2209,1.0040,0.2119
15.3270,-0.2209,1.0040,0.2119
15.3270,-0.2209,1.0040,0.2119
15.3280,-0.2190,1.0113,0.2087
15.3280,-0.2190,1.0113,0.2087
15.3290,-0.2190,1.0113,0.2087
15.3600,-0.2190,1.0113,0.2087
15.3610,-0.2190,1.0113,0.2087
15.3610,-0.2190,1.0113,0.2087
15.3610,-0.2143,1.0189,0.2009
15.3620,-0.2129,1.0176,0.2002
15.3850,-0.2129,1.0176,0.2002
15.3850,-0.2129,1.0176,0.2002
15.3860,-0.2129,1.0176,0.2002
15.3870,-0.2107,1.0225,0.2055
15.4060,-0.2107,1.0225,0.2055
15.4070,-0.2107,1.0225,0.2055
15.4070,-0.2107,1.0225,0.2055
15.4080,-0.2077,1.0208,0.2070
15.4080,-0.2077,1.0208,0.2070
15.4390,-0.2077,1.0208,0.2070
15.4390,-0.2077,1.0208,0.2070
15.4400,-0.2077,1.0208,0.2070
15.4400,-0.2041,1.0159,0.2077
15.4400,-0.2046,1.0128,0.2055
15.4660,-0.2046,1.0128,0.2055
15.4660,-0.2046,1.0128,0.2055
15.4670,-0.2046,1.0128,0.2055
15.4670,-0.2060,1.0154,0.2026
15.4860,-0.2060,1.0154,0.2026
15.4860,-0.2060,1.0154,0.2026
15.4860,-0.2060,1.0154,0.2026
15.4870,-0.2136,1.0179,0.2006
15.4870,-0.2136,1.0179,0.2006
15.5140,-0.2136,1.0179,0.2006
15.5140,-0.2136,1.0179,0.2006
15.5140,-0.2136,1.0179,0.2006
15.5150,-0.2204,1.0201,0.1938
15.5150,-0.2212,1.0189,0.1984
15.5260,-0.2212,1.0189,0.1984
15.5460,-0.2212,1.0189,0.1984
15.5470,-0.2212,1.0189,0.1984
15.5470,-0.2212,1.0189,0.1984
15.5480,-0.2182,1.0176,0.2014
15.5670,-0.2182,1.0176,0.2014
15.5670,-0.2182,1.0176,0.2014
15.5680,-0.2182,1.0176,0.2014
15.5680,-0.2097,1.0193,0.2016
15.5690,-0.2097,1.0193,0.2016
15.5950,-0.2097,1.0193,0.2016
15.5950,-0.2097,1.0193,0.2016
15.5960,-0.2097,1.0193,0.2016
15.5960,-0.2070,1.0203,0.2031
15.5970,-0.2102,1.0215,0.2104
15.6240,-0.2102,1.0215,0.2104
15.6250,-0.2102,1.0215,0.2104
15.6250,-0.2102,1.0215,0.2104
15.6260,-0.2190,1.0169,0.2114
15.6470,-0.2190,1.0169,0.2114
15.6470,-0.2190,1.0169,0.2114
15.6480,-0.2190,1.0169,0.2114
15.6480,-0.2138,1.0106,0.2063
15.6480,-0.2138,1.0106,0.2063
15.6770,-0.2138,1.0106,0.2063
15.6780,-0.2138,1.0106,0.2063
15.6780,-0.2138,1.0106,0.2063
15.6790,-0.2043,1.0135,0.2070
15.6790,-0.2065,1.0145,0.2077
15.7060,-0.2065,1.0145,0.2077
15.7060,-0.2065,1.0145,0.2077
15.7070,-0.2065,1.0145,0.2077
15.7070,-0.2146,1.0162,0.2075
15.7270,-0.2146,1.0162,0.2075
15.7280,-0.2146,1.0162,0.2075
15.7280,-0.2146,1.0162,0.2075
15.7290,-0.2178,1.0184,0.2058
15.7290,-0.2178,1.0184,0.2058
15.7300,-0.2178,1.0184,0.2058
15.7560,-0.2178,1.0184,0.2058
15.7570,-0.2178,1.0184,0.2058
15.7570,-0.2178,1.0184,0.2058
15.7580,-0.2185,1.0176,0.2038
15.7580,-0.2160,1.0196,0.2009
15.7840,-0.2160,1.0196,0.2009
15.7850,-0.2160,1.0196,0.2009
15.7850,-0.2160,1.0196,0.2009
15.7860,-0.2207,1.0228,0.2028
15.8070,-0.2207,1.0228,0.2028
15.8070,-0.2207,1.0228,0.2028
15.8080,-0.2207,1.0228,0.2028
15.8080,-0.2307,1.0211,0.2075
15.8080,-0.2307,1.0211,0.2075
15.8400,-0.2307,1.0211,0.2075
15.8410,-0.2307,1.0211,0.2075
15.8410,-0.2307,1.0211,0.2075
15.8410,-0.2329,1.0169,0.2092
15.8420,-0.2305,1.0120,0.2102
15.8660,-0.2305,1.0120,0.2102
15.8660,-0.2305,1.0120,0.2102
15.8670,-0.2305,1.0120,0.2102
15.8670,-0.2270,1.0088,0.2092
15.8870,-0.2270,1.0088,0.2092
15.8870,-0.2270,1.0088,0.2092
15.8870,-0.2270,1.0088,0.2092
15.8870,-0.2273,1.0125,0.2031
15.8880,-0.2273,1.0125,0.2031
15.9170,-0.2273,1.0125,0.2031
15.9170,-0.2273,1.0125,0.2031
15.9180,-0.2273,1.0125,0.2031
15.9180,-0.2322,1.0128,0.2016
15.9190,-0.2287,1.0115,0.2055
15.9290,-0.2287,1.0115,0.2055
15.9470,-0.2287,1.0115,0.2055
15.9470,-0.2287,1.0115,0.2055
15.9480,-0.2287,1.0115,0.2055
15.9480,-0.2207,1.0128,0.2099
15.9660,-0.2207,1.0128,0.2099
15.9670,-0.2207,1.0128,0.2099
15.9670,-0.2207,1.0128,0.2099
15.9680,-0.2180,1.0140,0.2077
15.9680,-0.2180,1.0140,0.2077
15.9960,-0.2180,1.0140,0.2077
15.9970,-0.2180,1.0140,0.2077
15.9970,-0.2180,1.0140,0.2077
15.9970,-0.2148,1.0145,0.2116
15.9980,-0.2131,1.0184,0.2129
16.0260,-0.2131,1.0184,0.2129
16.0270,-0.2131,1.0184,0.2129
16.0270,-0.2131,1.0184,0.2129
16.0540,-0.2124,1.0201,0.2077
16.0540,-0.2124,1.0201,0.2077
16.0550,-0.2124,1.0201,0.2077
16.0550,-0.2124,1.0201,0.2077
16.0570,-0.2143,1.0150,0.1987
16.0580,-0.2143,1.0150,0.1987
16.0730,-0.2143,1.0150,0.1987
16.0740,-0.2143,1.0150,0.1987
16.0740,-0.2143,1.0150,0.1987
16.0740,-0.2185,1.0152,0.1989
16.0740,-0.2248,1.0128,0.2004
16.1040,-0.2248,1.0128,0.2004
16.1050,-0.2248,1.0128,0.2004
16.1050,-0.2248,1.0128,0.2004
16.1050,-0.2270,1.0135,0.1994
16.1260,-0.2270,1.0135,0.1994
16.1260,-0.2270,1.0135,0.1994
16.1270,-0.2270,1.0135,0.1994
16.1270,-0.2261,1.0201,0.1994
16.1280,-0.2261,1.0201,0.1994
16.1300,-0.2261,1.0201,0.1994
16.1560,-0.2261,1.0201,0.1994
16.1570,-0.2261,1.0201,0.1994
16.1570,-0.2261,1.0201,0.1994
16.1580,-0.2226,1.0198,0.1975
16.1580,-0.2204,1.0162,0.2006
16.1850,-0.2204,1.0162,0.2006
16.1860,-0.2204,1.0162,0.2006
16.1860,-0.2204,1.0162,0.2006
16.1870,-0.2243,1.0132,0.2041
16.2060,-0.2243,1.0132,0.2041
16.2070,-0.2243,1.0132,0.2041
16.2070,-0.2243,1.0132,0.2041
16.2080,-0.2268,1.0147,0.2060
16.2080,-0.2268,1.0147,0.2060
16.2370,-0.2268,1.0147,0.2060
16.2380,-0.2268,1.0147,0.2060
16.2380,-0.2268,1.0147,0.2060
16.2390,-0.2263,1.0172,0.2019
16.2390,-0.2236,1.0157,0.2011
16.2670,-0.2236,1.0157,0.2011
16.2680,-0.2236,1.0157,0.2011
16.2680,-0.2236,1.0157,0.2011
16.2680,-0.2229,1.0169,0.2041
16.2870,-0.2229,1.0169,0.2041
16.2880,-0.2229,1.0169,0.2041
16.2880,-0.2229,1.0169,0.2041
16.2880,-0.2251,1.0193,0.2026
16.2890,-0.2251,1.0193,0.2026
16.3160,-0.2251,1.0193,0.2026
16.3170,-0.2251,1.0193,0.2026
16.3170,-0.2251,1.0193,0.2026
16.3170,-0.2246,1.0174,0.2026
16.3180,-0.2202,1.0181,0.2024
16.3270,-0.2202,1.0181,0.2024
16.3450,-0.2202,1.0181,0.2024
16.3450,-0.2202,1.0181,0.2024
16.3460,-0.2202,1.0181,0.2024
16.3460,-0.2173,1.0172,0.1989
16.3670,-0.2173,1.0172,0.1989
16.3680,-0.2173,1.0172,0.1989
16.3680,-0.2173,1.0172,0.1989
16.3690,-0.2156,1.0176,0.1977
16.3690,-0.2156,1.0176,0.1977
16.3960,-0.2156,1.0176,0.1977
16.3970,-0.2156,1.0176,0.1977
16.3970,-0.2156,1.0176,0.1977
16.3970,-0.2217,1.0145,0.1965
16.3980,-0.2309,1.0132,0.2002
16.4270,-0.2309,1.0132,0.2002
16.4280,-0.2309,1.0132,0.2002
16.4280,-0.2309,1.0132,0.2002
16.4280,-0.2341,1.0154,0.2004
16.4470,-0.2341,1.0154,0.2004
16.4470,-0.2341,1.0154,0.2004
16.4470,-0.2341,1.0154,0.2004
16.4480,-0.2317,1.0115,0.1984
16.4480,-0.2317,1.0115,0.1984
16.4790,-0.2317,1.0115,0.1984
16.4800,-0.2317,1.0115,0.1984
16.4800,-0.2317,1.0115,0.1984
16.4800,-0.2319,1.0137,0.2004
16.4810,-0.2305,1.0198,0.1958
16.5070,-0.2305,1.0198,0.1958
16.5070,-0.2305,1.0198,0.1958
16.5080,-0.2305,1.0198,0.1958
16.5080,-0.2322,1.0184,0.1958
16.5270,-0.2322,1.0184,0.1958
16.5270,-0.2322,1.0184,0.1958
16.5280,-0.2322,1.0184,0.1958
16.5280,-0.2358,1.0132,0.2016
16.5280,-0.2358,1.0132,0.2016
16.5280,-0.2358,1.0132,0.2016
16.5560,-0.2358,1.0132,0.2016
16.5570,-0.2358,1.0132,0.2016
16.5570,-0.2358,1.0132,0.2016
16.5580,-0.2324,1.0128,0.2014
16.5580,-0.2285,1.0159,0.1999
16.5880,-0.2285,1.0159,0.1999
16.5880,-0.2285,1.0159,0.1999
16.6050,-0.2285,1.0159,0.1999
16.6060,-0.2297,1.0164,0.2028
16.6070,-0.2297,1.0164,0.2028
16.6070,-0.2297,1.0164,0.2028
16.6070,-0.2297,1.0164,0.2028
16.6080,-0.2353,1.0167,0.2004
16.6080,-0.2353,1.0167,0.2004
16.6350,-0.2353,1.0167,0.2004
16.6350,-0.2353,1.0167,0.2004
16.6350,-0.2353,1.0167,0.2004
16.6360,-0.2351,1.0137,0.1962
16.6360,-0.2280,1.0164,0.1914
16.6650,-0.2280,1.0164,0.1914
16.6660,-0.2280,1.0164,0.1914
16.6660,-0.2280,1.0164,0.1914
16.6670,-0.2251,1.0179,0.1943
16.6870,-0.2251,1.0179,0.1943
16.6880,-0.2251,1.0179,0.1943
16.6880,-0.2251,1.0179,0.1943
16.6880,-0.2236,1.0150,0.2002
16.6880,-0.2236,1.0150,0.2002
16.7160,-0.2236,1.0150,0.2002
16.7160,-0.2236,1.0150,0.2002
16.7170,-0.2236,1.0150,0.2002
16.7170,-0.2202,1.0118,0.2060
16.7170,-0.2226,1.0108,0.2031
16.7290,-0.2226,1.0108,0.2031
16.7470,-0.2226,1.0108,0.2031
16.7480,-0.2226,1.0108,0.2031
16.7480,-0.2226,1.0108,0.2031
16.7490,-0.2256,1.0147,0.2002
16.7680,-0.2256,1.0147,0.2002
16.7690,-0.2256,1.0147,0.2002
16.7690,-0.2256,1.0147,0.2002
16.7690,-0.2263,1.0154,0.1999
16.7700,-0.2263,1.0154,0.1999
16.7970,-0.2263,1.0154,0.1999
16.7980,-0.2263,1.0154,0.1999
16.7980,-0.2263,1.0154,0.1999
16.7980,-0.2251,1.0150,0.1997
16.7980,-0.2246,1.0181,0.1984
16.8260,-0.2246,1.0181,0.1984
16.8260,-0.2246,1.0181,0.1984
16.8260,-0.2246,1.0181,0.1984
16.8270,-0.2253,1.0191,0.1977
16.8470,-0.2253,1.0191,0.1977
16.8480,-0.2253,1.0191,0.1977
16.8480,-0.2253,1.0191,0.1977
16.8480,-0.2273,1.0132,0.1955
16.8480,-0.2273,1.0132,0.1955
16.8790,-0.2273,1.0132,0.1955
16.8790,-0.2273,1.0132,0.1955
16.8790,-0.2273,1.0132,0.1955
16.8800,-0.2302,1.0159,0.2031
16.8800,-0.2302,1.0135,0.2075
16.9070,-0.2302,1.0135,0.2075
16.9070,-0.2302,1.0135,0.2075
16.9080,-0.2302,1.0135,0.2075
16.9080,-0.2300,1.0096,0.2028
16.9310,-0.2300,1.0096,0.2028
16.9310,-0.2300,1.0096,0.2028
16.9310,-0.2300,1.0096,0.2028
16.9320,-0.2287,1.0113,0.1980
16.9320,-0.2287,1.0113,0.1980
16.9320,-0.2287,1.0113,0.1980
16.9600,-0.2287,1.0113,0.1980
16.9600,-0.2287,1.0113,0.1980
16.9600,-0.2287,1.0113,0.1980
16.9610,-0.2258,1.0152,0.1958
16.9610,-0.2273,1.0120,0.1992
16.9870,-0.2273,1.0120,0.1992
16.9870,-0.2273,1.0120,0.1992
16.9880,-0.2273,1.0120,0.1992
16.9880,-0.2307,1.0110,0.2019
17.0080,-0.2307,1.0110,0.2019
17.0080,-0.2307,1.0110,0.2019
17.0090,-0.2307,1.0110,0.2019
17.0090,-0.2305,1.0145,0.2050
17.0090,-0.2305,1.0145,0.2050
17.0390,-0.2305,1.0145,0.2050
17.0400,-0.2305,1.0145,0.2050
17.0400,-0.2305,1.0145,0.2050
17.0400,-0.2290,1.0174,0.2026
17.0410,-0.2307,1.0174,0.1972
17.0680,-0.2307,1.0174,0.1972
17.0680,-0.2307,1.0174,0.1972
17.0680,-0.2307,1.0174,0.1972
17.0690,-0.2327,1.0150,0.2006
17.0890,-0.2327,1.0150,0.2006
17.0890,-0.2327,1.0150,0.2006
17.0900,-0.2327,1.0150,0.2006
17.0900,-0.2285,1.0108,0.2021
17.0900,-0.2285,1.0108,0.2021
17.1200,-0.2285,1.0108,0.2021
17.1200,-0.2285,1.0108,0.2021
17.1210,-0.2285,1.0108,0.2021
17.1210,-0.2265,1.0110,0.1984
17.1220,-0.2246,1.0113,0.2021
17.1290,-0.2246,1.0113,0.2021
17.1470,-0.2246,1.0113,0.2021
17.1660,-0.2246,1.0113,0.2021
17.1670,-0.2246,1.0113,0.2021
17.1670,-0.2222,1.0145,0.2011
17.1680,-0.2222,1.0145,0.2011
17.1680,-0.2222,1.0145,0.2011
17.1690,-0.2222,1.0145,0.2011
17.1690,-0.2187,1.0196,0.1972
17.1710,-0.2187,1.0196,0.1972
17.1950,-0.2187,1.0196,0.1972
17.1950,-0.2187,1.0196,0.1972
17.1950,-0.2187,1.0196,0.1972
17.1960,-0.2222,1.0186,0.1992
17.1960,-0.2356,1.0164,0.1992
17.2250,-0.2356,1.0164,0.1992
17.2260,-0.2356,1.0164,0.1992
17.2260,-0.2356,1.0164,0.1992
17.2270,-0.2432,1.0135,0.1997
17.2470,-0.2432,1.0135,0.1997
17.2480,-0.2432,1.0135,0.1997
17.2480,-0.2432,1.0135,0.1997
17.2480,-0.2441,1.0125,0.2065
17.2490,-0.2441,1.0125,0.2065
17.2800,-0.2441,1.0125,0.2065
17.2810,-0.2441,1.0125,0.2065
17.2810,-0.2441,1.0125,0.2065
17.2820,-0.2405,1.0125,0.2041
17.2820,-0.2356,1.0159,0.1987
17.3060,-0.2356,1.0159,0.1987
17.3060,-0.2356,1.0159,0.1987
17.3060,-0.2356,1.0159,0.1987
17.3070,-0.2307,1.0213,0.1945
17.3280,-0.2307,1.0213,0.1945
17.3290,-0.2307,1.0213,0.1945
17.3290,-0.2307,1.0213,0.1945
17.3290,-0.2285,1.0201,0.1958
17.3290,-0.2285,1.0201,0.1958
17.3300,-0.2285,1.0201,0.1958
17.3570,-0.2285,1.0201,0.1958
17.3570,-0.2285,1.0201,0.1958
17.3570,-0.2285,1.0201,0.1958
17.3570,-0.2268,1.0191,0.1989
17.3580,-0.2234,1.0172,0.2043
17.3880,-0.2234,1.0172,0.2043
17.3880,-0.2234,1.0172,0.2043
17.3880,-0.2234,1.0172,0.2043
17.3880,-0.2283,1.0125,0.2048
17.4080,-0.2283,1.0125,0.2048
17.4090,-0.2283,1.0125,0.2048
17.4090,-0.2283,1.0125,0.2048
17.4090,-0.2312,1.0098,0.2048
17.4090,-0.2312,1.0098,0.2048
17.4380,-0.2312,1.0098,0.2048
17.4380,-0.2312,1.0098,0.2048
17.4390,-0.2312,1.0098,0.2048
17.4390,-0.2307,1.0130,0.2026
17.4400,-0.2305,1.0108,0.1984
17.4670,-0.2305,1.0108,0.1984
17.4670,-0.2305,1.0108,0.1984
17.4680,-0.2305,1.0108,0.1984
17.4680,-0.2300,1.0086,0.1921
17.4890,-0.2300,1.0086,0.1921
17.4890,-0.2300,1.0086,0.1921
17.4890,-0.2300,1.0086,0.1921
17.4900,-0.2353,1.0069,0.1958
17.4900,-0.2353,1.0069,0.1958
17.5170,-0.2353,1.0069,0.1958
17.5170,-0.2353,1.0069,0.1958
17.5180,-0.2353,1.0069,0.1958
17.5180,-0.2373,1.0081,0.1967
17.5180,-0.2351,1.0140,0.2014
17.5260,-0.2351,1.0140,0.2014
17.5460,-0.2351,1.0140,0.2014
17.5460,-0.2351,1.0140,0.2014
17.5470,-0.2351,1.0140,0.2014
17.5470,-0.2300,1.0128,0.2009
17.5670,-0.2300,1.0128,0.2009
17.5680,-0.2300,1.0128,0.2009
17.5680,-0.2300,1.0128,0.2009
17.5680,-0.2268,1.0120,0.1992
17.5690,-0.2268,1.0120,0.1992
17.5990,-0.2268,1.0120,0.1992
17.6000,-0.2268,1.0120,0.1992
17.6000,-0.2268,1.0120,0.1992
17.6000,-0.2290,1.0150,0.1992
17.6010,-0.2287,1.0176,0.1997
17.6270,-0.2287,1.0176,0.1997
17.6270,-0.2287,1.0176,0.1997
17.6280,-0.2287,1.0176,0.1997
17.6280,-0.2275,1.0198,0.1997
17.6480,-0.2275,1.0198,0.1997
17.6480,-0.2275,1.0198,0.1997
17.6480,-0.2275,1.0198,0.1997
17.6480,-0.2265,1.0179,0.2006
17.6490,-0.2265,1.0179,0.2006
17.6780,-0.2265,1.0179,0.2006
17.6780,-0.2265,1.0179,0.2006
17.6790,-0.2265,1.0179,0.2006
17.6790,-0.2268,1.0150,0.1997
17.6790,-0.2295,1.0118,0.1970
17.7070,-0.2295,1.0118,0.1970
17.7260,-0.2295,1.0118,0.1970
17.7260,-0.2295,1.0118,0.1970
17.7270,-0.2319,1.0132,0.1972
17.7270,-0.2319,1.0132,0.1972
17.7270,-0.2319,1.0132,0.1972
17.7280,-0.2319,1.0132,0.1972
17.7310,-0.2349,1.0174,0.1965
17.7320,-0.2349,1.0174,0.1965
17.7320,-0.2349,1.0174,0.1965
17.7560,-0.2349,1.0174,0.1965
17.7560,-0.2349,1.0174,0.1965
17.7560,-0.2349,1.0174,0.1965
17.7560,-0.2371,1.0179,0.1987
17.7570,-0.2356,1.0150,0.2016
17.7860,-0.2356,1.0150,0.2016
17.7870,-0.2356,1.0150,0.2016
17.7870,-0.2356,1.0150,0.2016
17.7870,-0.2368,1.0140,0.1997
17.8060,-0.2368,1.0140,0.1997
17.8060,-0.2368,1.0140,0.1997
17.8070,-0.2368,1.0140,0.1997
17.8090,-0.2336,1.0140,0.2014
17.8090,-0.2336,1.0140,0.2014
17.8380,-0.2336,1.0140,0.2014
17.8390,-0.2336,1.0140,0.2014
17.8390,-0.2336,1.0140,0.2014
17.8390,-0.2312,1.0169,0.1982
17.8400,-0.2285,1.0198,0.1967
17.8670,-0.2285,1.0198,0.1967
17.8680,-0.2285,1.0198,0.1967
17.8680,-0.2285,1.0198,0.1967
17.8680,-0.2302,1.0162,0.1923
17.8880,-0.2302,1.0162,0.1923
17.8890,-0.2302,1.0162,0.1923
17.8890,-0.2302,1.0162,0.1923
17.8890,-0.2322,1.0130,0.1931
17.8900,-0.2322,1.0130,0.1931
17.9190,-0.2322,1.0130,0.1931
17.9190,-0.2322,1.0130,0.1931
17.9190,-0.2322,1.0130,0.1931
17.9200,-0.2349,1.0157,0.2019
17.9200,-0.2351,1.0157,0.2053
17.9290,-0.2351,1.0157,0.2053
17.9470,-0.2351,1.0157,0.2053
17.9480,-0.2351,1.0157,0.2053
17.9480,-0.2351,1.0157,0.2053
17.9480,-0.2319,1.0154,0.2043
17.9690,-0.2319,1.0154,0.2043
17.9690,-0.2319,1.0154,0.2043
17.9700,-0.2319,1.0154,0.2043
17.9700,-0.2312,1.0167,0.2004
17.9710,-0.2312,1.0167,0.2004
17.9980,-0.2312,1.0167,0.2004
17.9990,-0.2312,1.0167,0.2004
17.9990,-0.2312,1.0167,0.2004
18.0000,-0.2285,1.0189,0.1901
18.0000,-0.2263,1.0176,0.1872
18.0280,-0.2263,1.0176,0.1872
18.0280,-0.2263,1.0176,0.1872
18.0280,-0.2263,1.0176,0.1872
18.0280,-0.2246,1.0157,0.1921
18.0490,-0.2246,1.0157,0.1921
18.0490,-0.2246,1.0157,0.1921
18.0490,-0.2246,1.0157,0.1921
18.0500,-0.2224,1.0120,0.1972
18.0500,-0.2224,1.0120,0.1972
18.0790,-0.2224,1.0120,0.1972
18.0800,-0.2224,1.0120,0.1972
18.0800,-0.2224,1.0120,0.1972
18.0800,-0.2253,1.0076,0.1987
18.0800,-0.2275,1.0084,0.1994
18.1080,-0.2275,1.0084,0.1994
18.1090,-0.2275,1.0084,0.1994
18.1090,-0.2275,1.0084,0.1994
18.1100,-0.2307,1.0125,0.2031
18.1300,-0.2307,1.0125,0.2031
18.1310,-0.2307,1.0125,0.2031
18.1310,-0.2307,1.0125,0.2031
18.1320,-0.2331,1.0157,0.1970
18.1320,-0.2331,1.0157,0.1970
18.1320,-0.2331,1.0157,0.1970
18.1600,-0.2331,1.0157,0.1970
18.1610,-0.2331,1.0157,0.1970
18.1610,-0.2331,1.0157,0.1970
18.1610,-0.2351,1.0176,0.1901
18.1610,-0.2287,1.0150,0.1901
18.1880,-0.2287,1.0150,0.1901
18.1880,-0.2287,1.0150,0.1901
18.1880,-0.2287,1.0150,0.1901
18.1890,-0.2265,1.0113,0.1950
18.2080,-0.2265,1.0113,0.1950
18.2090,-0.2265,1.0113,0.1950
18.2090,-0.2265,1.0113,0.1950
18.2090,-0.2302,1.0066,0.1958
18.2090,-0.2302,1.0066,0.1958
18.2380,-0.2302,1.0066,0.1958
18.2390,-0.2302,1.0066,0.1958
18.2390,-0.2302,1.0066,0.1958
18.2400,-0.2327,1.0106,0.1960
18.2400,-0.2353,1.0132,0.1950
18.2670,-0.2353,1.0132,0.1950
18.2680,-0.2353,1.0132,0.1950
18.2680,-0.2353,1.0132,0.1950
18.2680,-0.2319,1.0152,0.1921
18.2870,-0.2319,1.0152,0.1921
18.2870,-0.2319,1.0152,0.1921
18.2870,-0.2319,1.0152,0.1921
18.2870,-0.2246,1.0198,0.1967
18.2880,-0.2246,1.0198,0.1967
18.3160,-0.2246,1.0198,0.1967
18.3170,-0.2246,1.0198,0.1967
18.3170,-0.2246,1.0198,0.1967
18.3180,-0.2197,1.0186,0.1943
18.3180,-0.2153,1.0159,0.1936
18.3260,-0.2153,1.0159,0.1936
18.3470,-0.2153,1.0159,0.1936
18.3470,-0.2153,1.0159,0.1936
18.3480,-0.2153,1.0159,0.1936
18.3480,-0.2151,1.0135,0.1960
18.3690,-0.2151,1.0135,0.1960
18.3690,-0.2151,1.0135,0.1960
18.3700,-0.2151,1.0135,0.1960
18.3700,-0.2187,1.0079,0.1918
18.3710,-0.2187,1.0079,0.1918
18.3980,-0.2187,1.0079,0.1918
18.3990,-0.2187,1.0079,0.1918
18.3990,-0.2187,1.0079,0.1918
18.4000,-0.2258,1.0084,0.1923
18.4000,-0.2319,1.0162,0.1911
18.4290,-0.2319,1.0162,0.1911
18.4290,-0.2319,1.0162,0.1911
18.4290,-0.2319,1.0162,0.1911
18.4290,-0.2324,1.0167,0.1914
18.4490,-0.2324,1.0167,0.1914
18.4490,-0.2324,1.0167,0.1914
18.4500,-0.2324,1.0167,0.1914
18.4500,-0.2324,1.0167,0.1931
18.4500,-0.2324,1.0167,0.1931
18.4840,-0.2324,1.0167,0.1931
18.4840,-0.2324,1.0167,0.1931
18.4850,-0.2324,1.0167,0.1931
18.4850,-0.2324,1.0191,0.1943
18.4850,-0.2322,1.0159,0.1948
18.5100,-0.2322,1.0159,0.1948
18.5100,-0.2322,1.0159,0.1948
18.5100,-0.2322,1.0159,0.1948
18.5110,-0.2329,1.0159,0.1970
18.5290,-0.2329,1.0159,0.1970
18.5290,-0.2329,1.0159,0.1970
18.5300,-0.2329,1.0159,0.1970
18.5300,-0.2329,1.0159,0.1970
18.5330,-0.2380,1.0150,0.1999
18.5330,-0.2380,1.0150,0.1999
18.5630,-0.2380,1.0150,0.1999
18.5630,-0.2380,1.0150,0.1999
18.5630,-0.2380,1.0150,0.1999
18.5640,-0.2415,1.0128,0.1994
18.5640,-0.2441,1.0096,0.2016
18.5890,-0.2441,1.0096,0.2016
18.5900,-0.2441,1.0096,0.2016
18.5900,-0.2441,1.0096,0.2016
18.5910,-0.2441,1.0093,0.1992
18.6110,-0.2441,1.0093,0.1992
18.6110,-0.2441,1.0093,0.1992
18.6110,-0.2441,1.0093,0.1992
18.6120,-0.2422,1.0123,0.2011
18.6120,-0.2422,1.0123,0.2011
18.6400,-0.2422,1.0123,0.2011
18.6410,-0.2422,1.0123,0.2011
18.6410,-0.2422,1.0123,0.2011
18.6410,-0.2366,1.0176,0.1994
18.6410,-0.2319,1.0159,0.1970
18.6690,-0.2319,1.0159,0.1970
18.6690,-0.2319,1.0159,0.1970
18.6700,-0.2319,1.0159,0.1970
18.6700,-0.2285,1.0189,0.1967
18.6900,-0.2285,1.0189,0.1967
18.6900,-0.2285,1.0189,0.1967
18.6910,-0.2285,1.0189,0.1967
18.6910,-0.2273,1.0176,0.1982
18.6920,-0.2273,1.0176,0.1982
18.7190,-0.2273,1.0176,0.1982
18.7200,-0.2273,1.0176,0.1982
18.7200,-0.2273,1.0176,0.1982
18.7210,-0.2344,1.0142,0.1987
18.7210,-0.2336,1.0123,0.1999
18.7280,-0.2336,1.0123,0.1999
18.7490,-0.2336,1.0123,0.1999
18.7490,-0.2336,1.0123,0.1999
18.7490,-0.2336,1.0123,0.1999
18.7500,-0.2312,1.0115,0.2016
18.7700,-0.2312,1.0115,0.2016
18.7700,-0.2312,1.0115,0.2016
18.7700,-0.2312,1.0115,0.2016
18.7710,-0.2312,1.0135,0.1999
18.7710,-0.2312,1.0135,0.1999
18.7990,-0.2312,1.0135,0.1999
18.7990,-0.2312,1.0135,0.1999
18.7990,-0.2312,1.0135,0.1999
18.8000,-0.2300,1.0147,0.1970
18.8150,-0.2314,1.0152,0.1940
18.8290,-0.2314,1.0152,0.1940
18.8290,-0.2314,1.0152,0.1940
18.8300,-0.2314,1.0152,0.1940
18.8300,-0.2339,1.0189,0.1926
18.8500,-0.2339,1.0189,0.1926
18.8500,-0.2339,1.0189,0.1926
18.8500,-0.2339,1.0189,0.1926
18.8500,-0.2317,1.0211,0.1921
18.8510,-0.2317,1.0211,0.1921
18.8800,-0.2317,1.0211,0.1921
18.8800,-0.2317,1.0211,0.1921
18.8810,-0.2317,1.0211,0.1921
18.8810,-0.2319,1.0167,0.1962
18.8810,-0.2331,1.0128,0.1975
18.9100,-0.2331,1.0128,0.1975
18.9100,-0.2331,1.0128,0.1975
18.9110,-0.2331,1.0128,0.1975
18.9110,-0.2353,1.0076,0.1950
18.9300,-0.2353,1.0076,0.1950
18.9310,-0.2353,1.0076,0.1950
18.9310,-0.2353,1.0076,0.1950
18.9320,-0.2353,1.0076,0.1950
18.9320,-0.2349,1.0123,0.1967
18.9390,-0.2349,1.0123,0.1967
18.9590,-0.2349,1.0123,0.1967
18.9590,-0.2349,1.0123,0.1967
18.9590,-0.2349,1.0123,0.1967
18.9600,-0.2353,1.0164,0.1975
18.9600,-0.2358,1.0159,0.1960
18.9890,-0.2358,1.0159,0.1960
18.9900,-0.2358,1.0159,0.1960
18.9900,-0.2358,1.0159,0.1960
18.9900,-0.2341,1.0152,0.1945
19.0090,-0.2341,1.0152,0.1945
19.0090,-0.2341,1.0152,0.1945
19.0100,-0.2341,1.0152,0.1945
19.0100,-0.2324,1.0130,0.1943
19.0100,-0.2324,1.0130,0.1943
19.0410,-0.2324,1.0130,0.1943
19.0410,-0.2324,1.0130,0.1943
19.0420,-0.2324,1.0130,0.1943
19.0420,-0.2324,1.0135,0.1948
19.0420,-0.2322,1.0157,0.1972
19.0690,-0.2322,1.0157,0.1972
19.0700,-0.2322,1.0157,0.1972
19.0700,-0.2322,1.0157,0.1972
19.0700,-0.2300,1.0167,0.1943
19.0900,-0.2300,1.0167,0.1943
19.0900,-0.2300,1.0167,0.1943
19.0910,-0.2300,1.0167,0.1943
19.0910,-0.2334,1.0125,0.1916
19.0910,-0.2334,1.0125,0.1916
19.1220,-0.2334,1.0125,0.1916
19.1220,-0.2334,1.0125,0.1916
19.1230,-0.2334,1.0125,0.1916
19.1230,-0.2334,1.0079,0.1923
19.1240,-0.2305,1.0110,0.1960
19.1290,-0.2305,1.0110,0.1960
19.1500,-0.2305,1.0110,0.1960
19.1500,-0.2305,1.0110,0.1960
19.1510,-0.2305,1.0110,0.1960
19.1510,-0.2329,1.0147,0.2002
19.1710,-0.2329,1.0147,0.2002
19.1720,-0.2329,1.0147,0.2002
19.1720,-0.2329,1.0147,0.2002
19.1720,-0.2361,1.0128,0.1989
19.1720,-0.2361,1.0128,0.1989
19.2020,-0.2361,1.0128,0.1989
19.2020,-0.2361,1.0128,0.1989
19.2030,-0.2361,1.0128,0.1989
19.2030,-0.2361,1.0110,0.1953
19.2040,-0.2375,1.0147,0.1936
19.2300,-0.2375,1.0147,0.1936
19.2300,-0.2375,1.0147,0.1936
19.2310,-0.2375,1.0147,0.1936
19.2310,-0.2390,1.0154,0.1916
19.2510,-0.2390,1.0154,0.1916
19.2510,-0.2390,1.0154,0.1916
19.2520,-0.2390,1.0154,0.1916
19.2520,-0.2378,1.0147,0.1931
19.2530,-0.2378,1.0147,0.1931
19.2800,-0.2378,1.0147,0.1931
19.2800,-0.2378,1.0147,0.1931
19.2810,-0.2378,1.0147,0.1931
19.2810,-0.2334,1.0123,0.1980
19.2810,-0.2290,1.0101,0.1997
19.3090,-0.2290,1.0101,0.1997
19.3090,-0.2290,1.0101,0.1997
19.3100,-0.2290,1.0101,0.1997
19.3100,-0.2268,1.0093,0.1994
19.3290,-0.2268,1.0093,0.1994
19.3290,-0.2268,1.0093,0.1994
19.3300,-0.2268,1.0093,0.1994
19.3300,-0.2268,1.0093,0.1994
19.3310,-0.2268,1.0140,0.1970
19.3310,-0.2268,1.0140,0.1970
19.3590,-0.2268,1.0140,0.1970
19.3590,-0.2268,1.0140,0.1970
19.3600,-0.2268,1.0140,0.1970
19.3830,-0.2331,1.0172,0.1960
19.3830,-0.2397,1.0196,0.1950
19.3880,-0.2397,1.0196,0.1950
19.3880,-0.2397,1.0196,0.1950
19.3880,-0.2397,1.0196,0.1950
19.3890,-0.2383,1.0172,0.1916
19.4090,-0.2383,1.0172,0.1916
19.4090,-0.2383,1.0172,0.1916
19.4090,-0.2383,1.0172,0.1916
19.4100,-0.2375,1.0135,0.1916
19.4100,-0.2375,1.0135,0.1916
19.4380,-0.2375,1.0135,0.1916
19.4380,-0.2375,1.0135,0.1916
19.4390,-0.2375,1.0135,0.1916
19.4390,-0.2344,1.0130,0.1970
19.4390,-0.2317,1.0162,0.1989
19.4690,-0.2317,1.0162,0.1989
19.4690,-0.2317,1.0162,0.1989
19.4690,-0.2317,1.0162,0.1989
19.4690,-0.2341,1.0169,0.1984
19.4900,-0.2341,1.0169,0.1984
19.4900,-0.2341,1.0169,0.1984
19.4900,-0.2341,1.0169,0.1984
19.4900,-0.2349,1.0157,0.1982
19.4900,-0.2349,1.0157,0.1982
19.5200,-0.2349,1.0157,0.1982
19.5200,-0.2349,1.0157,0.1982
19.5210,-0.2349,1.0157,0.1982
19.5210,-0.2375,1.0132,0.1962
19.5210,-0.2395,1.0115,0.1933
19.5270,-0.2395,1.0115,0.1933
19.5480,-0.2395,1.0115,0.1933
19.5490,-0.2395,1.0115,0.1933
19.5490,-0.2395,1.0115,0.1933
19.5490,-0.2380,1.0108,0.1933
19.5710,-0.2380,1.0108,0.1933
19.5710,-0.2380,1.0108,0.1933
19.5710,-0.2380,1.0108,0.1933
19.5710,-0.2390,1.0125,0.1948
19.5720,-0.2390,1.0125,0.1948
19.6000,-0.2390,1.0125,0.1948
19.6000,-0.2390,1.0125,0.1948
19.6000,-0.2390,1.0125,0.1948
19.6010,-0.2397,1.0137,0.1938
19.6010,-0.2380,1.0150,0.1977
19.6280,-0.2380,1.0150,0.1977
19.6290,-0.2380,1.0150,0.1977
19.6290,-0.2380,1.0150,0.1977
19.6300,-0.2353,1.0169,0.2019
19.6500,-0.2353,1.0169,0.2019
19.6500,-0.2353,1.0169,0.2019
19.6500,-0.2353,1.0169,0.2019
19.6510,-0.2349,1.0130,0.1950
19.6510,-0.2349,1.0130,0.1950
19.6810,-0.2349,1.0130,0.1950
19.6810,-0.2349,1.0130,0.1950
19.6820,-0.2349,1.0130,0.1950
19.6820,-0.2371,1.0142,0.1916
19.6820,-0.2353,1.0181,0.1931
19.7090,-0.2353,1.0181,0.1931
19.7090,-0.2353,1.0181,0.1931
19.7100,-0.2353,1.0181,0.1931
19.7100,-0.2351,1.0162,0.1889
19.7280,-0.2351,1.0162,0.1889
19.7300,-0.2351,1.0162,0.1889
19.7310,-0.2351,1.0162,0.1889
19.7310,-0.2351,1.0162,0.1889
19.7320,-0.2356,1.0128,0.1928
19.7320,-0.2356,1.0128,0.1928
19.7590,-0.2356,1.0128,0.1928
19.7600,-0.2356,1.0128,0.1928
19.7600,-0.2356,1.0128,0.1928
19.7600,-0.2363,1.0091,0.1953
19.7600,-0.2356,1.0076,0.1958
19.7890,-0.2356,1.0076,0.1958
19.7900,-0.2356,1.0076,0.1958
19.7900,-0.2356,1.0076,0.1958
19.7900,-0.2314,1.0103,0.1950
19.8120,-0.2314,1.0103,0.1950
19.8130,-0.2314,1.0103,0.1950
19.8130,-0.2314,1.0103,0.1950
19.8130,-0.2263,1.0128,0.1967
19.8130,-0.2263,1.0128,0.1967
19.8390,-0.2263,1.0128,0.1967
19.8400,-0.2263,1.0128,0.1967
19.8400,-0.2263,1.0128,0.1967
19.8410,-0.2302,1.0137,0.1962
19.8410,-0.2344,1.0150,0.1943
19.8700,-0.2344,1.0150,0.1943
19.8700,-0.2344,1.0150,0.1943
19.8700,-0.2344,1.0150,0.1943
19.8700,-0.2383,1.0159,0.1945
19.8900,-0.2383,1.0159,0.1945
19.8900,-0.2383,1.0159,0.1945
19.8900,-0.2383,1.0159,0.1945
19.8910,-0.2395,1.0176,0.1904
19.8910,-0.2395,1.0176,0.1904
19.9190,-0.2395,1.0176,0.1904
19.9190,-0.2395,1.0176,0.1904
19.9190,-0.2395,1.0176,0.1904
19.9310,-0.2363,1.0193,0.1896
19.9320,-0.2314,1.0159,0.1945
19.9320,-0.2314,1.0159,0.1945
19.9490,-0.2314,1.0159,0.1945
19.9490,-0.2314,1.0159,0.1945
19.9500,-0.2314,1.0159,0.1945
19.9500,-0.2268,1.0130,0.1967
19.9700,-0.2268,1.0130,0.1967
19.9710,-0.2268,1.0130,0.1967
19.9710,-0.2268,1.0130,0.1967
19.9710,-0.2248,1.0137,0.1967
19.9710,-0.2248,1.0137,0.1967
20.0010,-0.2248,1.0137,0.1967
20.0010,-0.2248,1.0137,0.1967
20.0010,-0.2248,1.0137,0.1967
20.0020,-0.2256,1.0110,0.1923
20.0020,-0.2300,1.0142,0.1914
20.0290,-0.2300,1.0142,0.1914
20.0290,-0.2300,1.0142,0.1914
20.0290,-0.2300,1.0142,0.1914
20.0300,-0.2307,1.0130,0.1955
20.0510,-0.2307,1.0130,0.1955
20.0510,-0.2307,1.0130,0.1955
20.0510,-0.2307,1.0130,0.1955
20.0520,-0.2302,1.0154,0.1945
20.0520,-0.2302,1.0154,0.1945
20.0800,-0.2302,1.0154,0.1945
20.0800,-0.2302,1.0154,0.1945
20.0810,-0.2302,1.0154,0.1945
20.0810,-0.2344,1.0164,0.1906
20.0810,-0.2380,1.0132,0.1926
20.1100,-0.2380,1.0132,0.1926
20.1100,-0.2380,1.0132,0.1926
20.1100,-0.2380,1.0132,0.1926
20.1110,-0.2388,1.0110,0.1994
20.1290,-0.2388,1.0110,0.1994
20.1300,-0.2388,1.0110,0.1994
20.1300,-0.2388,1.0110,0.1994
20.1300,-0.2388,1.0110,0.1994
20.1320,-0.2388,1.0084,0.2028
20.1330,-0.2388,1.0084,0.2028
20.1600,-0.2388,1.0084,0.2028
20.1600,-0.2388,1.0084,0.2028
20.1600,-0.2388,1.0084,0.2028
20.1610,-0.2358,1.0086,0.1975
20.1610,-0.2349,1.0125,0.1977
20.1910,-0.2349,1.0125,0.1977
20.1910,-0.2349,1.0125,0.1977
20.1910,-0.2349,1.0125,0.1977
20.1910,-0.2358,1.0137,0.2009
20.2110,-0.2358,1.0137,0.2009
20.2120,-0.2358,1.0137,0.2009
20.2120,-0.2358,1.0137,0.2009
20.2130,-0.2368,1.0150,0.1945
20.2130,-0.2368,1.0150,0.1945
20.2410,-0.2368,1.0150,0.1945
20.2420,-0.2368,1.0150,0.1945
20.2420,-0.2368,1.0150,0.1945
20.2430,-0.2402,1.0140,0.1931
20.2430,-0.2427,1.0193,0.1950
20.2710,-0.2427,1.0193,0.1950
20.2720,-0.2427,1.0193,0.1950
20.2720,-0.2427,1.0193,0.1950
20.2720,-0.2393,1.0211,0.1965
20.2920,-0.2393,1.0211,0.1965
20.2930,-0.2393,1.0211,0.1965
20.2930,-0.2393,1.0211,0.1965
20.2940,-0.2400,1.0167,0.1992
20.2940,-0.2400,1.0167,0.1992
20.3210,-0.2400,1.0167,0.1992
20.3210,-0.2400,1.0167,0.1992
20.3220,-0.2400,1.0167,0.1992
20.3220,-0.2410,1.0135,0.1970
20.3220,-0.2378,1.0086,0.1984
20.3280,-0.2378,1.0086,0.1984
20.3510,-0.2378,1.0086,0.1984
20.3520,-0.2378,1.0086,0.1984
20.3520,-0.2378,1.0086,0.1984
20.3520,-0.2324,1.0076,0.1960
20.3720,-0.2324,1.0076,0.1960
20.3720,-0.2324,1.0076,0.1960
20.3730,-0.2324,1.0076,0.1960
20.3730,-0.2329,1.0088,0.1980
20.3730,-0.2329,1.0088,0.1980
20.4030,-0.2329,1.0088,0.1980
20.4040,-0.2329,1.0088,0.1980
20.4040,-0.2329,1.0088,0.1980
20.4040,-0.2295,1.0120,0.1980
20.4040,-0.2295,1.0159,0.1918
20.4310,-0.2295,1.0159,0.1918
20.4310,-0.2295,1.0159,0.1918
20.4320,-0.2295,1.0159,0.1918
20.4320,-0.2314,1.0172,0.1953
20.4530,-0.2314,1.0172,0.1953
20.4540,-0.2314,1.0172,0.1953
20.4540,-0.2314,1.0172,0.1953
20.4540,-0.2341,1.0150,0.1972
20.4540,-0.2341,1.0150,0.1972
20.4830,-0.2341,1.0150,0.1972
20.4840,-0.2341,1.0150,0.1972
20.5010,-0.2341,1.0150,0.1972
20.5020,-0.2366,1.0123,0.1948
20.5020,-0.2349,1.0113,0.1984
20.5080,-0.2349,1.0113,0.1984
20.5090,-0.2349,1.0113,0.1984
20.5090,-0.2349,1.0113,0.1984
20.5090,-0.2395,1.0088,0.1980
20.5260,-0.2395,1.0088,0.1980
20.5300,-0.2395,1.0088,0.1980
20.5300,-0.2395,1.0088,0.1980
20.5310,-0.2395,1.0088,0.1980
20.5310,-0.2429,1.0084,0.1936
20.5310,-0.2429,1.0084,0.1936
20.5610,-0.2429,1.0084,0.1936
20.5610,-0.2429,1.0084,0.1936
20.5610,-0.2429,1.0084,0.1936
20.5620,-0.2412,1.0140,0.1948
20.5620,-0.2378,1.0157,0.1953
20.5900,-0.2378,1.0157,0.1953
20.5900,-0.2378,1.0157,0.1953
20.5910,-0.2378,1.0157,0.1953
20.5910,-0.2366,1.0179,0.1936
20.6110,-0.2366,1.0179,0.1936
20.6110,-0.2366,1.0179,0.1936
20.6110,-0.2366,1.0179,0.1936
20.6140,-0.2385,1.0179,0.1933
20.6140,-0.2385,1.0179,0.1933
20.6400,-0.2385,1.0179,0.1933
20.6400,-0.2385,1.0179,0.1933
20.6400,-0.2385,1.0179,0.1933
20.6410,-0.2388,1.0164,0.1931
20.6410,-0.2371,1.0147,0.1948
20.6710,-0.2371,1.0147,0.1948
20.6710,-0.2371,1.0147,0.1948
20.6710,-0.2371,1.0147,0.1948
20.6710,-0.2366,1.0115,0.1972
20.6920,-0.2366,1.0115,0.1972
20.6920,-0.2366,1.0115,0.1972
20.6920,-0.2366,1.0115,0.1972
20.6930,-0.2356,1.0106,0.1960
20.6930,-0.2356,1.0106,0.1960
20.7220,-0.2356,1.0106,0.1960
20.7220,-0.2356,1.0106,0.1960
20.7220,-0.2356,1.0106,0.1960
20.7230,-0.2346,1.0145,0.1960
20.7230,-0.2351,1.0140,0.1953
20.7280,-0.2351,1.0140,0.1953
20.7510,-0.2351,1.0140,0.1953
20.7520,-0.2351,1.0140,0.1953
20.7520,-0.2351,1.0140,0.1953
20.7520,-0.2358,1.0142,0.1931
20.7730,-0.2358,1.0142,0.1931
20.7740,-0.2358,1.0142,0.1931
20.7740,-0.2358,1.0142,0.1931
20.7740,-0.2336,1.0152,0.1889
20.7740,-0.2336,1.0152,0.1889
20.8010,-0.2336,1.0152,0.1889
20.8010,-0.2336,1.0152,0.1889
20.8010,-0.2336,1.0152,0.1889
20.8010,-0.2361,1.0162,0.1909
20.8020,-0.2378,1.0169,0.1906
20.8310,-0.2378,1.0169,0.1906
20.8320,-0.2378,1.0169,0.1906
20.8320,-0.2378,1.0169,0.1906
20.8330,-0.2415,1.0115,0.1884
20.8530,-0.2415,1.0115,0.1884
20.8530,-0.2415,1.0115,0.1884
20.8540,-0.2415,1.0115,0.1884
20.8540,-0.2451,1.0108,0.1909
20.8550,-0.2451,1.0108,0.1909
20.8820,-0.2451,1.0108,0.1909
20.8820,-0.2451,1.0108,0.1909
20.8820,-0.2451,1.0108,0.1909
20.8830,-0.2444,1.0191,0.1955
20.8830,-0.2407,1.0189,0.1960
20.9110,-0.2407,1.0189,0.1960
20.9120,-0.2407,1.0189,0.1960
20.9120,-0.2407,1.0189,0.1960
20.9130,-0.2353,1.0135,0.1960
20.9280,-0.2353,1.0135,0.1960
20.9330,-0.2353,1.0135,0.1960
20.9330,-0.2353,1.0135,0.1960
20.9340,-0.2353,1.0135,0.1960
20.9340,-0.2353,1.0135,0.1967
20.9340,-0.2353,1.0135,0.1967
20.9620,-0.2353,1.0135,0.1967
20.9620,-0.2353,1.0135,0.1967
20.9620,-0.2353,1.0135,0.1967
20.9630,-0.2356,1.0108,0.1994
20.9630,-0.2341,1.0103,0.1926
20.9930,-0.2341,1.0103,0.1926
20.9930,-0.2341,1.0103,0.1926
20.9930,-0.2341,1.0103,0.1926
20.9940,-0.2378,1.0152,0.1916
21.0130,-0.2378,1.0152,0.1916
21.0140,-0.2378,1.0152,0.1916
21.0140,-0.2378,1.0152,0.1916
21.0140,-0.2393,1.0174,0.1945
21.0170,-0.2393,1.0174,0.1945
21.0440,-0.2393,1.0174,0.1945
21.0590,-0.2393,1.0174,0.1945
21.0590,-0.2393,1.0174,0.1945
21.0590,-0.2402,1.0189,0.1962
21.0600,-0.2422,1.0164,0.1933
21.0700,-0.2422,1.0164,0.1933
21.0700,-0.2422,1.0164,0.1933
21.0700,-0.2422,1.0164,0.1933
21.0700,-0.2446,1.0130,0.1928
21.0980,-0.2446,1.0130,0.1928
21.0980,-0.2446,1.0130,0.1928
21.0980,-0.2446,1.0130,0.1928
21.0980,-0.2417,1.0120,0.1906
21.0990,-0.2417,1.0120,0.1906
21.1220,-0.2417,1.0120,0.1906
21.1220,-0.2417,1.0120,0.1906
21.1220,-0.2417,1.0120,0.1906
21.1230,-0.2388,1.0135,0.1916
21.1230,-0.2395,1.0130,0.1955
21.1270,-0.2395,1.0130,0.1955
21.1520,-0.2395,1.0130,0.1955
21.1520,-0.2395,1.0130,0.1955
21.1530,-0.2395,1.0130,0.1955
21.1530,-0.2397,1.0150,0.1965
21.1730,-0.2397,1.0150,0.1965
21.1730,-0.2397,1.0150,0.1965
21.1730,-0.2397,1.0150,0.1965
21.1730,-0.2402,1.0157,0.1962
21.1740,-0.2402,1.0157,0.1962
21.2010,-0.2402,1.0157,0.1962
21.2020,-0.2402,1.0157,0.1962
21.2020,-0.2402,1.0157,0.1962
21.2020,-0.2422,1.0142,0.1967
21.2020,-0.2412,1.0137,0.1926
21.2320,-0.2412,1.0137,0.1926
21.2320,-0.2412,1.0137,0.1926
21.2320,-0.2412,1.0137,0.1926
21.2320,-0.2390,1.0137,0.1926
21.2530,-0.2390,1.0137,0.1926
21.2530,-0.2390,1.0137,0.1926
21.2540,-0.2390,1.0137,0.1926
21.2540,-0.2341,1.0110,0.1940
21.2540,-0.2341,1.0110,0.1940
21.2830,-0.2341,1.0110,0.1940
21.2830,-0.2341,1.0110,0.1940
21.2830,-0.2341,1.0110,0.1940
21.2840,-0.2336,1.0110,0.1960
21.2840,-0.2358,1.0132,0.1938
21.3170,-0.2358,1.0132,0.1938
21.3170,-0.2358,1.0132,0.1938
21.3170,-0.2358,1.0132,0.1938
21.3180,-0.2322,1.0147,0.1950
21.3300,-0.2322,1.0147,0.1950
21.3380,-0.2322,1.0147,0.1950
21.3380,-0.2322,1.0147,0.1950
21.3390,-0.2322,1.0147,0.1950
21.3390,-0.2329,1.0115,0.1965
21.3400,-0.2329,1.0115,0.1965
21.3620,-0.2329,1.0115,0.1965
21.3630,-0.2329,1.0115,0.1965
21.3630,-0.2329,1.0115,0.1965
21.3640,-0.2344,1.0108,0.1975
21.3640,-0.2378,1.0093,0.1962
21.3940,-0.2378,1.0093,0.1962
21.3940,-0.2378,1.0093,0.1962
21.3940,-0.2378,1.0093,0.1962
21.3950,-0.2388,1.0145,0.1904
21.4120,-0.2388,1.0145,0.1904
21.4130,-0.2388,1.0145,0.1904
21.4140,-0.2388,1.0145,0.1904
21.4140,-0.2353,1.0157,0.1862
21.4140,-0.2353,1.0157,0.1862
21.4430,-0.2353,1.0157,0.1862
21.4430,-0.2353,1.0157,0.1862
21.4440,-0.2353,1.0157,0.1862
21.4440,-0.2336,1.0159,0.1901
21.4440,-0.2329,1.0147,0.1940
21.4740,-0.2329,1.0147,0.1940
21.4740,-0.2329,1.0147,0.1940
21.4740,-0.2329,1.0147,0.1940
21.4750,-0.2305,1.0167,0.1962
21.4940,-0.2305,1.0167,0.1962
21.4940,-0.2305,1.0167,0.1962
21.4950,-0.2305,1.0167,0.1962
21.4950,-0.2344,1.0140,0.1928
21.4960,-0.2344,1.0140,0.1928
21.5230,-0.2344,1.0140,0.1928
21.5230,-0.2344,1.0140,0.1928
21.5240,-0.2344,1.0140,0.1928
21.5240,-0.2400,1.0113,0.1923
21.5240,-0.2373,1.0140,0.1943
21.5280,-0.2373,1.0140,0.1943
21.5530,-0.2373,1.0140,0.1943
21.5530,-0.2373,1.0140,0.1943
21.5530,-0.2373,1.0140,0.1943
21.5540,-0.2351,1.0159,0.1916
21.5730,-0.2351,1.0159,0.1916
21.5730,-0.2351,1.0159,0.1916
21.5740,-0.2351,1.0159,0.1916
21.5760,-0.2327,1.0176,0.1918
21.5770,-0.2327,1.0176,0.1918
21.6010,-0.2327,1.0176,0.1918
21.6020,-0.2327,1.0176,0.1918
21.6020,-0.2327,1.0176,0.1918
21.6040,-0.2302,1.0189,0.1940
21.6040,-0.2317,1.0140,0.1938
21.6320,-0.2317,1.0140,0.1938
21.6320,-0.2317,1.0140,0.1938
21.6320,-0.2317,1.0140,0.1938
21.6330,-0.2358,1.0110,0.1926
21.6530,-0.2358,1.0110,0.1926
21.6530,-0.2358,1.0110,0.1926
21.6540,-0.2358,1.0110,0.1926
21.6540,-0.2432,1.0147,0.1926
21.6540,-0.2432,1.0147,0.1926
21.6820,-0.2432,1.0147,0.1926
21.6820,-0.2432,1.0147,0.1926
21.6830,-0.2432,1.0147,0.1926
21.6830,-0.2466,1.0176,0.1943
21.6840,-0.2432,1.0147,0.1926
21.7120,-0.2432,1.0147,0.1926
21.7130,-0.2432,1.0147,0.1926
21.7130,-0.2432,1.0147,0.1926
21.7140,-0.2415,1.0118,0.1904
21.7280,-0.2415,1.0118,0.1904
21.7360,-0.2415,1.0118,0.1904
21.7360,-0.2415,1.0118,0.1904
21.7370,-0.2415,1.0118,0.1904
21.7370,-0.2366,1.0103,0.1958
21.7370,-0.2366,1.0103,0.1958
21.7620,-0.2366,1.0103,0.1958
21.7620,-0.2366,1.0103,0.1958
21.7630,-0.2366,1.0103,0.1958
21.7630,-0.2307,1.0137,0.1950
21.7630,-0.2317,1.0164,0.1933
21.7920,-0.2317,1.0164,0.1933
21.7930,-0.2317,1.0164,0.1933
21.7930,-0.2317,1.0164,0.1933
21.7930,-0.2373,1.0159,0.1938
21.8150,-0.2373,1.0159,0.1938
21.8150,-0.2373,1.0159,0.1938
21.8150,-0.2373,1.0159,0.1938
21.8160,-0.2410,1.0186,0.1918
21.8160,-0.2410,1.0186,0.1918
21.8430,-0.2410,1.0186,0.1918
21.8430,-0.2410,1.0186,0.1918
21.8430,-0.2410,1.0186,0.1918
21.8440,-0.2415,1.0152,0.1916
21.8440,-0.2415,1.0142,0.1940
21.8730,-0.2415,1.0142,0.1940
21.8730,-0.2415,1.0142,0.1940
21.8730,-0.2415,1.0142,0.1940
21.8740,-0.2393,1.0142,0.1948
21.8940,-0.2393,1.0142,0.1948
21.8950,-0.2393,1.0142,0.1948
21.8950,-0.2393,1.0142,0.1948
21.8950,-0.2410,1.0152,0.1945
21.8950,-0.2410,1.0152,0.1945
21.9240,-0.2410,1.0152,0.1945
21.9240,-0.2410,1.0152,0.1945
21.9250,-0.2410,1.0152,0.1945
21.9250,-0.2380,1.0140,0.1921
21.9250,-0.2336,1.0110,0.1916
21.9260,-0.2336,1.0110,0.1916
21.9530,-0.2336,1.0110,0.1916
21.9530,-0.2336,1.0110,0.1916
21.9540,-0.2336,1.0110,0.1916
21.9540,-0.2400,1.0140,0.1933
21.9750,-0.2400,1.0140,0.1933
21.9760,-0.2400,1.0140,0.1933
21.9760,-0.2400,1.0140,0.1933
21.9760,-0.2429,1.0147,0.1958
21.9760,-0.2429,1.0147,0.1958
22.0040,-0.2429,1.0147,0.1958
22.0040,-0.2429,1.0147,0.1958
22.0040,-0.2429,1.0147,0.1958
22.0050,-0.2441,1.0152,0.1906
22.0050,-0.2405,1.0142,0.1921
22.0350,-0.2405,1.0142,0.1921
22.0350,-0.2405,1.0142,0.1921
22.0350,-0.2405,1.0142,0.1921
22.0350,-0.2451,1.0137,0.1945
22.0540,-0.2451,1.0137,0.1945
22.0540,-0.2451,1.0137,0.1945
22.0550,-0.2451,1.0137,0.1945
22.0550,-0.2444,1.0159,0.1943
22.0550,-0.2444,1.0159,0.1943
22.0830,-0.2444,1.0159,0.1943
22.0830,-0.2444,1.0159,0.1943
22.0840,-0.2444,1.0159,0.1943
22.0840,-0.2407,1.0145,0.1940
22.0840,-0.2397,1.0157,0.1918
22.1140,-0.2397,1.0157,0.1918
22.1150,-0.2397,1.0157,0.1918
22.1150,-0.2397,1.0157,0.1918
22.1150,-0.2397,1.0147,0.1923
22.1300,-0.2397,1.0147,0.1923
22.1370,-0.2397,1.0147,0.1923
22.1380,-0.2397,1.0147,0.1923
22.1380,-0.2397,1.0147,0.1923
22.1380,-0.2419,1.0108,0.1909
22.1530,-0.2419,1.0108,0.1909
22.1630,-0.2419,1.0108,0.1909
22.1630,-0.2419,1.0108,0.1909
22.1630,-0.2419,1.0108,0.1909
22.1640,-0.2439,1.0120,0.1936
22.1640,-0.2415,1.0113,0.1950
22.1910,-0.2415,1.0113,0.1950
22.1920,-0.2415,1.0113,0.1950
22.1920,-0.2415,1.0113,0.1950
22.1920,-0.2378,1.0106,0.1931
22.2150,-0.2378,1.0106,0.1931
22.2150,-0.2378,1.0106,0.1931
22.2160,-0.2378,1.0106,0.1931
22.2160,-0.2373,1.0132,0.1909
22.2200,-0.2373,1.0132,0.1909
22.2420,-0.2373,1.0132,0.1909
22.2430,-0.2373,1.0132,0.1909
22.2430,-0.2373,1.0132,0.1909
22.2440,-0.2380,1.0115,0.1921
22.2440,-0.2395,1.0110,0.1950
22.2740,-0.2395,1.0110,0.1950
22.2750,-0.2395,1.0110,0.1950
22.2750,-0.2395,1.0110,0.1950
22.2750,-0.2371,1.0106,0.1945
22.2970,-0.2371,1.0106,0.1945
22.2970,-0.2371,1.0106,0.1945
22.2980,-0.2371,1.0106,0.1945
22.2980,-0.2339,1.0130,0.1940
22.2990,-0.2339,1.0130,0.1940
22.3240,-0.2339,1.0130,0.1940
22.3240,-0.2339,1.0130,0.1940
22.3250,-0.2339,1.0130,0.1940
22.3250,-0.2324,1.0159,0.1948
22.3250,-0.2312,1.0159,0.1926
22.3280,-0.2312,1.0159,0.1926
22.3530,-0.2312,1.0159,0.1926
22.3530,-0.2312,1.0159,0.1926
22.3540,-0.2312,1.0159,0.1926
22.3540,-0.2322,1.0176,0.1894
22.3770,-0.2322,1.0176,0.1894
22.3780,-0.2322,1.0176,0.1894
22.3780,-0.2322,1.0176,0.1894
22.3780,-0.2346,1.0164,0.1899
22.3790,-0.2346,1.0164,0.1899
22.4050,-0.2346,1.0164,0.1899
22.4050,-0.2346,1.0164,0.1899
22.4050,-0.2346,1.0164,0.1899
22.4060,-0.2346,1.0172,0.1906
22.4060,-0.2388,1.0154,0.1872
22.4340,-0.2388,1.0154,0.1872
22.4350,-0.2388,1.0154,0.1872
22.4350,-0.2388,1.0154,0.1872
22.4350,-0.2483,1.0132,0.1850
22.4570,-0.2483,1.0132,0.1850
22.4570,-0.2483,1.0132,0.1850
22.4580,-0.2483,1.0132,0.1850
22.4580,-0.2507,1.0142,0.1904
22.4590,-0.2507,1.0142,0.1904
22.4850,-0.2507,1.0142,0.1904
22.4860,-0.2507,1.0142,0.1904
22.4870,-0.2507,1.0142,0.1904
22.4870,-0.2495,1.0098,0.1950
22.4870,-0.2461,1.0069,0.1965
22.5120,-0.2461,1.0069,0.1965
22.5130,-0.2461,1.0069,0.1965
22.5130,-0.2461,1.0069,0.1965
22.5140,-0.2437,1.0066,0.1926
22.5270,-0.2437,1.0066,0.1926
22.5370,-0.2437,1.0066,0.1926
22.5380,-0.2437,1.0066,0.1926
22.5380,-0.2437,1.0066,0.1926
22.5390,-0.2456,1.0064,0.1921
22.5390,-0.2456,1.0064,0.1921
