
time,AccelerometerX,AccelerometerY,AccelerometerZ
0.1120,-0.2224,1.0306,0.1281
0.1120,-0.2224,1.0306,0.1281
0.1120,-0.2224,1.0306,0.1281
0.1120,-0.2265,1.0289,0.1317
0.1130,-0.2256,1.0308,0.1403
0.1130,-0.2256,1.0308,0.1403
0.1130,-0.2256,1.0308,0.1403
0.1130,-0.2256,1.0308,0.1403
0.1130,-0.2195,1.0223,0.1579
0.1140,-0.2195,1.0223,0.1579
0.1140,-0.2195,1.0223,0.1579
0.1140,-0.2195,1.0223,0.1579
0.1140,-0.2163,1.0154,0.1625
0.1140,-0.2163,1.0154,0.1625
0.1150,-0.2163,1.0154,0.1625
0.1150,-0.2163,1.0154,0.1625
0.1150,-0.2163,1.0154,0.1625
0.1150,-0.2195,1.0247,0.1483
0.1150,-0.2246,1.0230,0.1459
0.1160,-0.2246,1.0230,0.1459
0.1160,-0.2246,1.0230,0.1459
0.1160,-0.2246,1.0230,0.1459
0.1160,-0.2246,1.0230,0.1459
0.1160,-0.2283,1.0213,0.1391
0.1170,-0.2283,1.0213,0.1391
0.1170,-0.2283,1.0213,0.1391
0.1170,-0.2283,1.0213,0.1391
0.1170,-0.2339,1.0186,0.1415
0.1170,-0.2339,1.0186,0.1415
0.1170,-0.2339,1.0186,0.1415
0.1180,-0.2339,1.0186,0.1415
0.1180,-0.2339,1.0186,0.1415
0.1180,-0.2305,1.0150,0.1508
0.1180,-0.2229,1.0181,0.1447
0.1180,-0.2229,1.0181,0.1447
0.1190,-0.2229,1.0181,0.1447
0.1190,-0.2229,1.0181,0.1447
0.1190,-0.2217,1.0230,0.1398
0.1730,-0.2217,1.0230,0.1398
0.1730,-0.2217,1.0230,0.1398
0.1730,-0.2217,1.0230,0.1398
0.1740,-0.2217,1.0281,0.1395
0.1740,-0.2217,1.0281,0.1395
0.2540,-0.2217,1.0281,0.1395
0.2540,-0.2217,1.0281,0.1395
0.2550,-0.2217,1.0281,0.1395
0.2560,-0.2173,1.0316,0.1373
0.2560,-0.2185,1.0267,0.1371
0.2560,-0.2185,1.0267,0.1371
0.2560,-0.2185,1.0267,0.1371
0.2560,-0.2185,1.0267,0.1371
0.2560,-0.2178,1.0223,0.1344
0.2570,-0.2178,1.0223,0.1344
0.2570,-0.2178,1.0223,0.1344
0.2570,-0.2178,1.0223,0.1344
0.2570,-0.2153,1.0206,0.1315
0.2570,-0.2153,1.0206,0.1315
0.2570,-0.2153,1.0206,0.1315
0.2630,-0.2153,1.0206,0.1315
0.2630,-0.2153,1.0206,0.1315
0.2630,-0.2153,1.0206,0.1315
0.2640,-0.2182,1.0189,0.1378
0.2640,-0.2163,1.0203,0.1329
0.2800,-0.2163,1.0203,0.1329
0.2810,-0.2163,1.0203,0.1329
0.2810,-0.2163,1.0203,0.1329
0.2810,-0.2173,1.0225,0.1293
0.3110,-0.2173,1.0225,0.1293
0.3110,-0.2173,1.0225,0.1293
0.3120,-0.2173,1.0225,0.1293
0.3130,-0.2195,1.0250,0.1322
0.3130,-0.2195,1.0250,0.1322
0.3400,-0.2195,1.0250,0.1322
0.3410,-0.2195,1.0250,0.1322
0.3410,-0.2195,1.0250,0.1322
0.3420,-0.2178,1.0291,0.1320
0.3420,-0.2182,1.0333,0.1312
0.3610,-0.2182,1.0333,0.1312
0.3610,-0.2182,1.0333,0.1312
0.3620,-0.2182,1.0333,0.1312
0.3620,-0.2138,1.0311,0.1288
0.3910,-0.2138,1.0311,0.1288
0.3920,-0.2138,1.0311,0.1288
0.3920,-0.2138,1.0311,0.1288
0.3930,-0.2163,1.0279,0.1300
0.3930,-0.2163,1.0279,0.1300
0.4190,-0.2163,1.0279,0.1300
0.4200,-0.2163,1.0279,0.1300
0.4200,-0.2163,1.0279,0.1300
0.4200,-0.2217,1.0228,0.1369
0.4200,-0.2246,1.0233,0.1373
0.4320,-0.2246,1.0233,0.1373
0.4400,-0.2246,1.0233,0.1373
0.4420,-0.2246,1.0233,0.1373
0.4430,-0.2246,1.0233,0.1373
0.4430,-0.2234,1.0230,0.1325
0.4700,-0.2234,1.0230,0.1325
0.4710,-0.2234,1.0230,0.1325
0.4710,-0.2234,1.0230,0.1325
0.4720,-0.2285,1.0240,0.1251
0.4910,-0.2285,1.0240,0.1251
0.4990,-0.2285,1.0240,0.1251
0.4990,-0.2285,1.0240,0.1251
0.4990,-0.2285,1.0240,0.1251
0.5000,-0.2397,1.0291,0.1251
0.5000,-0.2380,1.0301,0.1307
0.5180,-0.2380,1.0301,0.1307
0.5180,-0.2380,1.0301,0.1307
0.5190,-0.2380,1.0301,0.1307
0.5190,-0.2334,1.0306,0.1332
0.5490,-0.2334,1.0306,0.1332
0.5490,-0.2334,1.0306,0.1332
0.5500,-0.2334,1.0306,0.1332
0.5510,-0.2290,1.0362,0.1420
0.5510,-0.2290,1.0362,0.1420
0.5790,-0.2290,1.0362,0.1420
0.5790,-0.2290,1.0362,0.1420
0.5790,-0.2290,1.0362,0.1420
0.5820,-0.2214,1.0301,0.1454
0.5820,-0.2112,1.0233,0.1454
0.5980,-0.2112,1.0233,0.1454
0.5990,-0.2112,1.0233,0.1454
0.5990,-0.2112,1.0233,0.1454
0.6000,-0.2109,1.0152,0.1452
0.6330,-0.2109,1.0152,0.1452
0.6340,-0.2109,1.0152,0.1452
0.6340,-0.2109,1.0152,0.1452
0.6350,-0.2163,1.0140,0.1405
0.6350,-0.2163,1.0140,0.1405
0.6360,-0.2163,1.0140,0.1405
0.6590,-0.2163,1.0140,0.1405
0.6600,-0.2163,1.0140,0.1405
0.6600,-0.2163,1.0140,0.1405
0.6600,-0.2261,1.0211,0.1322
0.6610,-0.2273,1.0230,0.1305
0.6790,-0.2273,1.0230,0.1305
0.6790,-0.2273,1.0230,0.1305
0.6790,-0.2273,1.0230,0.1305
0.6790,-0.2217,1.0291,0.1378
0.7090,-0.2217,1.0291,0.1378
0.7090,-0.2217,1.0291,0.1378
0.7100,-0.2217,1.0291,0.1378
0.7100,-0.2197,1.0355,0.1344
0.7110,-0.2197,1.0355,0.1344
0.7390,-0.2197,1.0355,0.1344
0.7390,-0.2197,1.0355,0.1344
0.7390,-0.2197,1.0355,0.1344
0.7400,-0.2168,1.0347,0.1332
0.7400,-0.2156,1.0318,0.1349
0.7590,-0.2156,1.0318,0.1349
0.7600,-0.2156,1.0318,0.1349
0.7600,-0.2156,1.0318,0.1349
0.7600,-0.2136,1.0323,0.1364
0.7890,-0.2136,1.0323,0.1364
0.7900,-0.2136,1.0323,0.1364
0.7900,-0.2136,1.0323,0.1364
0.7900,-0.2107,1.0303,0.1398
0.7910,-0.2107,1.0303,0.1398
0.8190,-0.2107,1.0303,0.1398
0.8190,-0.2107,1.0303,0.1398
0.8200,-0.2107,1.0303,0.1398
0.8200,-0.2063,1.0299,0.1452
0.8200,-0.2094,1.0240,0.1493
0.8310,-0.2094,1.0240,0.1493
0.8390,-0.2094,1.0240,0.1493
0.8390,-0.2094,1.0240,0.1493
0.8400,-0.2094,1.0240,0.1493
0.8400,-0.2085,1.0228,0.1532
0.8690,-0.2085,1.0228,0.1532
0.8700,-0.2085,1.0228,0.1532
0.8700,-0.2085,1.0228,0.1532
0.8700,-0.2124,1.0201,0.1432
0.8710,-0.2124,1.0201,0.1432
0.8990,-0.2124,1.0201,0.1432
0.8990,-0.2124,1.0201,0.1432
0.9000,-0.2124,1.0201,0.1432
0.9000,-0.2195,1.0259,0.1444
0.9000,-0.2236,1.0284,0.1449
0.9190,-0.2236,1.0284,0.1449
0.9190,-0.2236,1.0284,0.1449
0.9200,-0.2236,1.0284,0.1449
0.9200,-0.2241,1.0340,0.1386
0.9490,-0.2241,1.0340,0.1386
0.9490,-0.2241,1.0340,0.1386
0.9500,-0.2241,1.0340,0.1386
0.9500,-0.2178,1.0384,0.1305
0.9510,-0.2178,1.0384,0.1305
0.9790,-0.2178,1.0384,0.1305
0.9800,-0.2178,1.0384,0.1305
0.9800,-0.2178,1.0384,0.1305
0.9800,-0.2202,1.0316,0.1237
0.9810,-0.2243,1.0245,0.1263
0.9990,-0.2243,1.0245,0.1263
1.0000,-0.2243,1.0245,0.1263
1.0000,-0.2243,1.0245,0.1263
1.0010,-0.2212,1.0208,0.1334
1.0310,-0.2212,1.0208,0.1334
1.0320,-0.2212,1.0208,0.1334
1.0320,-0.2212,1.0208,0.1334
1.0330,-0.2119,1.0191,0.1337
1.0500,-0.2119,1.0191,0.1337
1.0510,-0.2119,1.0191,0.1337
1.0580,-0.2119,1.0191,0.1337
1.0590,-0.2119,1.0191,0.1337
1.0590,-0.2119,1.0191,0.1337
1.0600,-0.2097,1.0218,0.1298
1.0600,-0.2077,1.0257,0.1290
1.0800,-0.2077,1.0257,0.1290
1.0800,-0.2077,1.0257,0.1290
1.0800,-0.2077,1.0257,0.1290
1.0810,-0.2170,1.0264,0.1305
1.1090,-0.2170,1.0264,0.1305
1.1100,-0.2170,1.0264,0.1305
1.1100,-0.2170,1.0264,0.1305
1.1110,-0.2295,1.0264,0.1376
1.1110,-0.2295,1.0264,0.1376
1.1390,-0.2295,1.0264,0.1376
1.1400,-0.2295,1.0264,0.1376
1.1400,-0.2295,1.0264,0.1376
1.1410,-0.2358,1.0247,0.1329
1.1410,-0.2322,1.0220,0.1305
1.1590,-0.2322,1.0220,0.1305
1.1600,-0.2322,1.0220,0.1305
1.1600,-0.2322,1.0220,0.1305
1.1610,-0.2236,1.0252,0.1307
1.1900,-0.2236,1.0252,0.1307
1.1910,-0.2236,1.0252,0.1307
1.1910,-0.2236,1.0252,0.1307
1.1920,-0.2156,1.0301,0.1273
1.1920,-0.2156,1.0301,0.1273
1.2200,-0.2156,1.0301,0.1273
1.2200,-0.2156,1.0301,0.1273
1.2210,-0.2156,1.0301,0.1273
1.2210,-0.2046,1.0306,0.1234
1.2210,-0.2002,1.0340,0.1317
1.2300,-0.2002,1.0340,0.1317
1.2400,-0.2002,1.0340,0.1317
1.2400,-0.2002,1.0340,0.1317
1.2410,-0.2002,1.0340,0.1317
1.2410,-0.2038,1.0377,0.1354
1.2700,-0.2038,1.0377,0.1354
1.2700,-0.2038,1.0377,0.1354
1.2710,-0.2038,1.0377,0.1354
1.2710,-0.2131,1.0296,0.1320
1.2720,-0.2131,1.0296,0.1320
1.3000,-0.2131,1.0296,0.1320
1.3000,-0.2131,1.0296,0.1320
1.3010,-0.2131,1.0296,0.1320
1.3010,-0.2156,1.0255,0.1290
1.3020,-0.2148,1.0174,0.1215
1.3210,-0.2148,1.0174,0.1215
1.3210,-0.2148,1.0174,0.1215
1.3210,-0.2148,1.0174,0.1215
1.3220,-0.2192,1.0118,0.1205
1.3500,-0.2192,1.0118,0.1205
1.3510,-0.2192,1.0118,0.1205
1.3510,-0.2192,1.0118,0.1205
1.3510,-0.2195,1.0152,0.1207
1.3520,-0.2195,1.0152,0.1207
1.3810,-0.2195,1.0152,0.1207
1.3810,-0.2195,1.0152,0.1207
1.3820,-0.2195,1.0152,0.1207
1.3820,-0.2231,1.0215,0.1185
1.3820,-0.2226,1.0252,0.1156
1.4000,-0.2226,1.0252,0.1156
1.4010,-0.2226,1.0252,0.1156
1.4010,-0.2226,1.0252,0.1156
1.4040,-0.2239,1.0347,0.1217
1.4310,-0.2239,1.0347,0.1217
1.4320,-0.2239,1.0347,0.1217
1.4320,-0.2239,1.0347,0.1217
1.4330,-0.2236,1.0389,0.1281
1.4330,-0.2236,1.0389,0.1281
1.4330,-0.2236,1.0389,0.1281
1.4340,-0.2236,1.0389,0.1281
1.4600,-0.2236,1.0389,0.1281
1.4610,-0.2236,1.0389,0.1281
1.4610,-0.2236,1.0389,0.1281
1.4620,-0.2234,1.0296,0.1246
1.4620,-0.2224,1.0255,0.1149
1.4810,-0.2224,1.0255,0.1149
1.4810,-0.2224,1.0255,0.1149
1.4820,-0.2224,1.0255,0.1149
1.4820,-0.2251,1.0174,0.1166
1.5120,-0.2251,1.0174,0.1166
1.5120,-0.2251,1.0174,0.1166
1.5130,-0.2251,1.0174,0.1166
1.5130,-0.2241,1.0189,0.1254
1.5140,-0.2241,1.0189,0.1254
1.5410,-0.2241,1.0189,0.1254
1.5420,-0.2241,1.0189,0.1254
1.5420,-0.2241,1.0189,0.1254
1.5430,-0.2229,1.0233,0.1322
1.5430,-0.2185,1.0257,0.1281
1.5610,-0.2185,1.0257,0.1281
1.5610,-0.2185,1.0257,0.1281
1.5620,-0.2185,1.0257,0.1281
1.5620,-0.2190,1.0296,0.1244
1.5930,-0.2190,1.0296,0.1244
1.5930,-0.2190,1.0296,0.1244
1.6110,-0.2190,1.0296,0.1244
1.6110,-0.2239,1.0343,0.1202
1.6120,-0.2239,1.0343,0.1202
1.6210,-0.2239,1.0343,0.1202
1.6210,-0.2239,1.0343,0.1202
1.6210,-0.2239,1.0343,0.1202
1.6210,-0.2275,1.0208,0.1107
1.6210,-0.2214,1.0279,0.1068
1.6300,-0.2214,1.0279,0.1068
1.6400,-0.2214,1.0279,0.1068
1.6400,-0.2214,1.0279,0.1068
1.6400,-0.2214,1.0279,0.1068
1.6410,-0.2270,1.0335,0.1122
1.6750,-0.2270,1.0335,0.1122
1.6760,-0.2270,1.0335,0.1122
1.6760,-0.2270,1.0335,0.1122
1.6760,-0.2331,1.0272,0.1061
1.6770,-0.2331,1.0272,0.1061
1.7010,-0.2331,1.0272,0.1061
1.7010,-0.2331,1.0272,0.1061
1.7020,-0.2331,1.0272,0.1061
1.7020,-0.2322,1.0330,0.1124
1.7020,-0.2331,1.0281,0.1200
1.7210,-0.2331,1.0281,0.1200
1.7210,-0.2331,1.0281,0.1200
1.7210,-0.2331,1.0281,0.1200
1.7210,-0.2302,1.0150,0.1202
1.7510,-0.2302,1.0150,0.1202
1.7510,-0.2302,1.0150,0.1202
1.7520,-0.2302,1.0150,0.1202
1.7520,-0.2153,1.0140,0.1195
1.7520,-0.2153,1.0140,0.1195
1.7810,-0.2153,1.0140,0.1195
1.7810,-0.2153,1.0140,0.1195
1.7820,-0.2153,1.0140,0.1195
1.7820,-0.2131,1.0252,0.1176
1.7820,-0.2163,1.0296,0.1220
1.8010,-0.2163,1.0296,0.1220
1.8010,-0.2163,1.0296,0.1220
1.8010,-0.2163,1.0296,0.1220
1.8020,-0.2178,1.0281,0.1202
1.8300,-0.2178,1.0281,0.1202
1.8350,-0.2178,1.0281,0.1202
1.8350,-0.2178,1.0281,0.1202
1.8360,-0.2178,1.0281,0.1202
1.8360,-0.2178,1.0357,0.1107
1.8370,-0.2178,1.0357,0.1107
1.8620,-0.2178,1.0357,0.1107
1.8630,-0.2178,1.0357,0.1107
1.8630,-0.2178,1.0357,0.1107
1.8630,-0.2239,1.0428,0.1122
1.8640,-0.2322,1.0453,0.1127
1.8820,-0.2322,1.0453,0.1127
1.8820,-0.2322,1.0453,0.1127
1.8830,-0.2322,1.0453,0.1127
1.8830,-0.2366,1.0355,0.1039
1.9140,-0.2366,1.0355,0.1039
1.9150,-0.2366,1.0355,0.1039
1.9150,-0.2366,1.0355,0.1039
1.9160,-0.2373,1.0208,0.1017
1.9160,-0.2373,1.0208,0.1017
1.9430,-0.2373,1.0208,0.1017
1.9430,-0.2373,1.0208,0.1017
1.9440,-0.2373,1.0208,0.1017
1.9440,-0.2322,1.0125,0.1095
1.9450,-0.2275,1.0191,0.1149
1.9620,-0.2275,1.0191,0.1149
1.9630,-0.2275,1.0191,0.1149
1.9630,-0.2275,1.0191,0.1149
1.9640,-0.2251,1.0289,0.1207
1.9950,-0.2251,1.0289,0.1207
1.9950,-0.2251,1.0289,0.1207
1.9960,-0.2251,1.0289,0.1207
1.9960,-0.2209,1.0311,0.1215
1.9970,-0.2209,1.0311,0.1215
2.0240,-0.2209,1.0311,0.1215
2.0240,-0.2209,1.0311,0.1215
2.0250,-0.2209,1.0311,0.1215
2.0250,-0.2175,1.0274,0.1151
2.0260,-0.2170,1.0255,0.1066
2.0330,-0.2170,1.0255,0.1066
2.0430,-0.2170,1.0255,0.1066
2.0430,-0.2170,1.0255,0.1066
2.0440,-0.2170,1.0255,0.1066
2.0440,-0.2217,1.0242,0.1090
2.0730,-0.2217,1.0242,0.1090
2.0730,-0.2217,1.0242,0.1090
2.0740,-0.2217,1.0242,0.1090
2.0740,-0.2280,1.0240,0.1141
2.0740,-0.2280,1.0240,0.1141
2.1030,-0.2280,1.0240,0.1141
2.1030,-0.2280,1.0240,0.1141
2.1030,-0.2280,1.0240,0.1141
2.1040,-0.2256,1.0269,0.1171
2.1040,-0.2195,1.0284,0.1168
2.1230,-0.2195,1.0284,0.1168
2.1230,-0.2195,1.0284,0.1168
2.1240,-0.2195,1.0284,0.1168
2.1240,-0.2209,1.0296,0.1114
2.1530,-0.2209,1.0296,0.1114
2.1710,-0.2209,1.0296,0.1114
2.1720,-0.2209,1.0296,0.1114
2.1720,-0.2222,1.0367,0.1117
2.1730,-0.2222,1.0367,0.1117
2.1800,-0.2222,1.0367,0.1117
2.1800,-0.2222,1.0367,0.1117
2.1810,-0.2222,1.0367,0.1117
2.1810,-0.2239,1.0394,0.1158
2.1810,-0.2246,1.0325,0.1141
2.2010,-0.2246,1.0325,0.1141
2.2020,-0.2246,1.0325,0.1141
2.2020,-0.2246,1.0325,0.1141
2.2020,-0.2300,1.0228,0.1122
2.2310,-0.2300,1.0228,0.1122
2.2390,-0.2300,1.0228,0.1122
2.2390,-0.2300,1.0228,0.1122
2.2400,-0.2300,1.0228,0.1122
2.2400,-0.2295,1.0159,0.1134
2.2410,-0.2295,1.0159,0.1134
2.2610,-0.2295,1.0159,0.1134
2.2620,-0.2295,1.0159,0.1134
2.2620,-0.2295,1.0159,0.1134
2.2620,-0.2263,1.0179,0.1163
2.2620,-0.2283,1.0301,0.1088
2.2820,-0.2283,1.0301,0.1088
2.2820,-0.2283,1.0301,0.1088
2.2820,-0.2283,1.0301,0.1088
2.2830,-0.2275,1.0338,0.1124
2.3120,-0.2275,1.0338,0.1124
2.3120,-0.2275,1.0338,0.1124
2.3120,-0.2275,1.0338,0.1124
2.3130,-0.2263,1.0291,0.1105
2.3130,-0.2263,1.0291,0.1105
2.3420,-0.2263,1.0291,0.1105
2.3420,-0.2263,1.0291,0.1105
2.3420,-0.2263,1.0291,0.1105
2.3430,-0.2212,1.0296,0.1085
2.3430,-0.2212,1.0365,0.1168
2.3620,-0.2212,1.0365,0.1168
2.3620,-0.2212,1.0365,0.1168
2.3620,-0.2212,1.0365,0.1168
2.3630,-0.2231,1.0308,0.1166
2.3950,-0.2231,1.0308,0.1166
2.3950,-0.2231,1.0308,0.1166
2.3960,-0.2231,1.0308,0.1166
2.3960,-0.2195,1.0228,0.1146
2.3960,-0.2195,1.0228,0.1146
2.4230,-0.2195,1.0228,0.1146
2.4230,-0.2195,1.0228,0.1146
2.4240,-0.2195,1.0228,0.1146
2.4240,-0.2131,1.0228,0.1105
2.4240,-0.2090,1.0284,0.1063
2.4330,-0.2090,1.0284,0.1063
2.4430,-0.2090,1.0284,0.1063
2.4430,-0.2090,1.0284,0.1063
2.4440,-0.2090,1.0284,0.1063
2.4440,-0.2163,1.0308,0.1007
2.4730,-0.2163,1.0308,0.1007
2.4730,-0.2163,1.0308,0.1007
2.4740,-0.2163,1.0308,0.1007
2.4740,-0.2261,1.0289,0.1002
2.4740,-0.2261,1.0289,0.1002
2.5040,-0.2261,1.0289,0.1002
2.5050,-0.2261,1.0289,0.1002
2.5050,-0.2261,1.0289,0.1002
2.5060,-0.2356,1.0306,0.1110
2.5060,-0.2375,1.0289,0.1171
2.5240,-0.2375,1.0289,0.1171
2.5240,-0.2375,1.0289,0.1171
2.5250,-0.2375,1.0289,0.1171
2.5250,-0.2280,1.0303,0.1149
2.5540,-0.2280,1.0303,0.1149
2.5540,-0.2280,1.0303,0.1149
2.5550,-0.2280,1.0303,0.1149
2.5550,-0.2217,1.0299,0.1083
2.5550,-0.2217,1.0299,0.1083
2.5830,-0.2217,1.0299,0.1083
2.5840,-0.2217,1.0299,0.1083
2.5840,-0.2217,1.0299,0.1083
2.5850,-0.2163,1.0274,0.1022
2.5850,-0.2131,1.0257,0.1066
2.6050,-0.2131,1.0257,0.1066
2.6050,-0.2131,1.0257,0.1066
2.6060,-0.2131,1.0257,0.1066
2.6060,-0.2129,1.0291,0.1134
2.6350,-0.2129,1.0291,0.1134
2.6350,-0.2129,1.0291,0.1134
2.6360,-0.2129,1.0291,0.1134
2.6360,-0.2129,1.0291,0.1134
2.6360,-0.2182,1.0301,0.1161
2.6360,-0.2182,1.0301,0.1161
2.6630,-0.2182,1.0301,0.1161
2.6640,-0.2182,1.0301,0.1161
2.6640,-0.2182,1.0301,0.1161
2.6640,-0.2248,1.0267,0.1134
2.6650,-0.2258,1.0225,0.1107
2.6830,-0.2258,1.0225,0.1107
2.6840,-0.2258,1.0225,0.1107
2.6840,-0.2258,1.0225,0.1107
2.6840,-0.2234,1.0321,0.1066
2.7140,-0.2234,1.0321,0.1066
2.7140,-0.2234,1.0321,0.1066
2.7140,-0.2234,1.0321,0.1066
2.7150,-0.2219,1.0281,0.1019
2.7150,-0.2219,1.0281,0.1019
2.7420,-0.2219,1.0281,0.1019
2.7420,-0.2219,1.0281,0.1019
2.7430,-0.2219,1.0281,0.1019
2.7430,-0.2224,1.0269,0.1092
2.7430,-0.2212,1.0318,0.1075
2.7630,-0.2212,1.0318,0.1075
2.7630,-0.2212,1.0318,0.1075
2.7630,-0.2212,1.0318,0.1075
2.7640,-0.2192,1.0311,0.1051
2.7930,-0.2192,1.0311,0.1051
2.7940,-0.2192,1.0311,0.1051
2.7940,-0.2192,1.0311,0.1051
2.7940,-0.2173,1.0323,0.1048
2.7950,-0.2173,1.0323,0.1048
2.8230,-0.2173,1.0323,0.1048
2.8240,-0.2173,1.0323,0.1048
2.8240,-0.2173,1.0323,0.1048
2.8240,-0.2190,1.0347,0.1078
2.8240,-0.2258,1.0330,0.1166
2.8310,-0.2258,1.0330,0.1166
2.8430,-0.2258,1.0330,0.1166
2.8430,-0.2258,1.0330,0.1166
2.8440,-0.2258,1.0330,0.1166
2.8440,-0.2292,1.0269,0.1205
2.8750,-0.2292,1.0269,0.1205
2.8760,-0.2292,1.0269,0.1205
2.8760,-0.2292,1.0269,0.1205
2.8760,-0.2339,1.0301,0.1168
2.8760,-0.2339,1.0301,0.1168
2.9050,-0.2339,1.0301,0.1168
2.9060,-0.2339,1.0301,0.1168
2.9060,-0.2339,1.0301,0.1168
2.9060,-0.2283,1.0291,0.1202
2.9070,-0.2217,1.0220,0.1132
2.9240,-0.2217,1.0220,0.1132
2.9250,-0.2217,1.0220,0.1132
2.9250,-0.2217,1.0220,0.1132
2.9250,-0.2160,1.0137,0.1061
2.9560,-0.2160,1.0137,0.1061
2.9570,-0.2160,1.0137,0.1061
2.9570,-0.2160,1.0137,0.1061
2.9570,-0.2146,1.0135,0.1004
2.9580,-0.2146,1.0135,0.1004
2.9840,-0.2146,1.0135,0.1004
2.9840,-0.2146,1.0135,0.1004
2.9850,-0.2146,1.0135,0.1004
2.9850,-0.2219,1.0391,0.1012
2.9860,-0.2331,1.0438,0.1090
3.0040,-0.2331,1.0438,0.1090
3.0050,-0.2331,1.0438,0.1090
3.0050,-0.2331,1.0438,0.1090
3.0060,-0.2324,1.0272,0.0995
3.0340,-0.2324,1.0272,0.0995
3.0350,-0.2324,1.0272,0.0995
3.0350,-0.2324,1.0272,0.0995
3.0360,-0.2324,1.0272,0.0995
3.0360,-0.2231,1.0242,0.0980
3.0360,-0.2231,1.0242,0.0980
3.0640,-0.2231,1.0242,0.0980
3.0640,-0.2231,1.0242,0.0980
3.0650,-0.2231,1.0242,0.0980
3.0650,-0.2234,1.0299,0.1063
3.0680,-0.2229,1.0274,0.1136
3.0840,-0.2229,1.0274,0.1136
3.0850,-0.2229,1.0274,0.1136
3.0850,-0.2229,1.0274,0.1136
3.0860,-0.2187,1.0311,0.1080
3.1140,-0.2187,1.0311,0.1080
3.1150,-0.2187,1.0311,0.1080
3.1150,-0.2187,1.0311,0.1080
3.1160,-0.2156,1.0245,0.1041
3.1160,-0.2156,1.0245,0.1041
3.1430,-0.2156,1.0245,0.1041
3.1430,-0.2156,1.0245,0.1041
3.1440,-0.2156,1.0245,0.1041
3.1440,-0.2182,1.0193,0.1056
3.1450,-0.2148,1.0335,0.1100
3.1640,-0.2148,1.0335,0.1100
3.1640,-0.2148,1.0335,0.1100
3.1650,-0.2148,1.0335,0.1100
3.1650,-0.2168,1.0431,0.1195
3.1950,-0.2168,1.0431,0.1195
3.1960,-0.2168,1.0431,0.1195
3.1960,-0.2168,1.0431,0.1195
3.1970,-0.2209,1.0350,0.1163
3.1970,-0.2209,1.0350,0.1163
3.2240,-0.2209,1.0350,0.1163
3.2240,-0.2209,1.0350,0.1163
3.2250,-0.2209,1.0350,0.1163
3.2250,-0.2197,1.0259,0.1114
3.2250,-0.2209,1.0255,0.1161
3.2340,-0.2209,1.0255,0.1161
3.2440,-0.2209,1.0255,0.1161
3.2440,-0.2209,1.0255,0.1161
3.2440,-0.2209,1.0255,0.1161
3.2770,-0.2212,1.0225,0.1061
3.2770,-0.2212,1.0225,0.1061
3.2780,-0.2212,1.0225,0.1061
3.2780,-0.2212,1.0225,0.1061
3.2780,-0.2236,1.0257,0.1041
3.2780,-0.2236,1.0257,0.1041
3.3030,-0.2236,1.0257,0.1041
3.3030,-0.2236,1.0257,0.1041
3.3030,-0.2236,1.0257,0.1041
3.3030,-0.2236,1.0318,0.1078
3.3030,-0.2222,1.0299,0.1124
3.3230,-0.2222,1.0299,0.1124
3.3230,-0.2222,1.0299,0.1124
3.3230,-0.2222,1.0299,0.1124
3.3230,-0.2170,1.0279,0.1073
3.3530,-0.2170,1.0279,0.1073
3.3530,-0.2170,1.0279,0.1073
3.3540,-0.2170,1.0279,0.1073
3.3540,-0.2138,1.0240,0.1070
3.3540,-0.2138,1.0240,0.1070
3.3850,-0.2138,1.0240,0.1070
3.3860,-0.2138,1.0240,0.1070
3.3860,-0.2138,1.0240,0.1070
3.3860,-0.2170,1.0225,0.1185
3.3870,-0.2214,1.0255,0.1154
3.4040,-0.2214,1.0255,0.1154
3.4050,-0.2214,1.0255,0.1154
3.4050,-0.2214,1.0255,0.1154
3.4050,-0.2195,1.0316,0.1107
3.4330,-0.2195,1.0316,0.1107
3.4360,-0.2195,1.0316,0.1107
3.4360,-0.2195,1.0316,0.1107
3.4360,-0.2195,1.0316,0.1107
3.4370,-0.2168,1.0325,0.1063
3.4370,-0.2168,1.0325,0.1063
3.4660,-0.2168,1.0325,0.1063
3.4660,-0.2168,1.0325,0.1063
3.4670,-0.2168,1.0325,0.1063
3.4670,-0.2190,1.0274,0.1026
3.4680,-0.2229,1.0301,0.1024
3.4840,-0.2229,1.0301,0.1024
3.4850,-0.2229,1.0301,0.1024
3.4850,-0.2229,1.0301,0.1024
3.4860,-0.2268,1.0289,0.1053
3.5150,-0.2268,1.0289,0.1053
3.5160,-0.2268,1.0289,0.1053
3.5160,-0.2268,1.0289,0.1053
3.5160,-0.2295,1.0245,0.1112
3.5170,-0.2295,1.0245,0.1112
3.5450,-0.2295,1.0245,0.1112
3.5450,-0.2295,1.0245,0.1112
3.5460,-0.2295,1.0245,0.1112
3.5460,-0.2285,1.0242,0.1168
3.5470,-0.2217,1.0274,0.1112
3.5660,-0.2217,1.0274,0.1112
3.5660,-0.2217,1.0274,0.1112
3.5670,-0.2217,1.0274,0.1112
3.5670,-0.2229,1.0335,0.1107
3.5980,-0.2229,1.0335,0.1107
3.5990,-0.2229,1.0335,0.1107
3.5990,-0.2229,1.0335,0.1107
3.6000,-0.2258,1.0345,0.1112
3.6000,-0.2258,1.0345,0.1112
3.6290,-0.2258,1.0345,0.1112
3.6310,-0.2258,1.0345,0.1112
3.6340,-0.2258,1.0345,0.1112
3.6350,-0.2265,1.0262,0.1112
3.6360,-0.2265,1.0174,0.1102
3.6370,-0.2265,1.0174,0.1102
3.6440,-0.2265,1.0174,0.1102
3.6450,-0.2265,1.0174,0.1102
3.6460,-0.2265,1.0174,0.1102
3.6470,-0.2273,1.0186,0.1090
3.6750,-0.2273,1.0186,0.1090
3.6760,-0.2273,1.0186,0.1090
3.6770,-0.2273,1.0186,0.1090
3.6780,-0.2265,1.0208,0.1083
3.6790,-0.2265,1.0208,0.1083
3.7040,-0.2265,1.0208,0.1083
3.7050,-0.2265,1.0208,0.1083
3.7060,-0.2265,1.0208,0.1083
3.7070,-0.2251,1.0272,0.1149
3.7080,-0.2187,1.0311,0.1198
3.7240,-0.2187,1.0311,0.1198
3.7250,-0.2187,1.0311,0.1198
3.7260,-0.2187,1.0311,0.1198
3.7270,-0.2160,1.0350,0.1198
3.7550,-0.2160,1.0350,0.1198
3.7560,-0.2160,1.0350,0.1198
3.7570,-0.2160,1.0350,0.1198
3.7580,-0.2116,1.0343,0.1176
3.7590,-0.2116,1.0343,0.1176
3.7860,-0.2116,1.0343,0.1176
3.7880,-0.2116,1.0343,0.1176
3.7890,-0.2116,1.0343,0.1176
3.7910,-0.2072,1.0281,0.1112
3.7910,-0.2085,1.0242,0.1110
3.8030,-0.2085,1.0242,0.1110
3.8040,-0.2085,1.0242,0.1110
3.8050,-0.2085,1.0242,0.1110
3.8280,-0.2138,1.0218,0.1180
3.8300,-0.2138,1.0218,0.1180
3.8340,-0.2138,1.0218,0.1180
3.8350,-0.2138,1.0218,0.1180
3.8360,-0.2138,1.0218,0.1180
3.8370,-0.2182,1.0267,0.1195
3.8380,-0.2182,1.0267,0.1195
3.8630,-0.2182,1.0267,0.1195
3.8630,-0.2182,1.0267,0.1195
3.8640,-0.2182,1.0267,0.1195
3.8650,-0.2217,1.0303,0.1141
3.8650,-0.2231,1.0235,0.1122
3.8830,-0.2231,1.0235,0.1122
3.8840,-0.2231,1.0235,0.1122
3.8850,-0.2231,1.0235,0.1122
3.8850,-0.2253,1.0259,0.1200
3.9180,-0.2253,1.0259,0.1200
3.9220,-0.2253,1.0259,0.1200
3.9220,-0.2253,1.0259,0.1200
3.9230,-0.2224,1.0377,0.1195
3.9230,-0.2224,1.0377,0.1195
3.9430,-0.2224,1.0377,0.1195
3.9440,-0.2224,1.0377,0.1195
3.9450,-0.2224,1.0377,0.1195
3.9460,-0.2195,1.0377,0.1168
3.9470,-0.2190,1.0308,0.1178
3.9650,-0.2190,1.0308,0.1178
3.9660,-0.2190,1.0308,0.1178
3.9670,-0.2190,1.0308,0.1178
3.9680,-0.2153,1.0306,0.1124
3.9930,-0.2153,1.0306,0.1124
3.9940,-0.2153,1.0306,0.1124
3.9950,-0.2153,1.0306,0.1124
3.9960,-0.2182,1.0340,0.1161
3.9970,-0.2182,1.0340,0.1161
4.0240,-0.2182,1.0340,0.1161
4.0240,-0.2182,1.0340,0.1161
4.0250,-0.2182,1.0340,0.1161
4.0260,-0.2209,1.0264,0.1178
4.0260,-0.2248,1.0211,0.1210
4.0370,-0.2248,1.0211,0.1210
4.0380,-0.2248,1.0211,0.1210
4.0450,-0.2248,1.0211,0.1210
4.0460,-0.2248,1.0211,0.1210
4.0470,-0.2248,1.0211,0.1210
4.0480,-0.2239,1.0193,0.1222
4.0730,-0.2239,1.0193,0.1222
4.0740,-0.2239,1.0193,0.1222
4.0750,-0.2239,1.0193,0.1222
4.0760,-0.2204,1.0233,0.1188
4.0770,-0.2204,1.0233,0.1188
4.1060,-0.2204,1.0233,0.1188
4.1070,-0.2204,1.0233,0.1188
4.1080,-0.2204,1.0233,0.1188
4.1100,-0.2173,1.0306,0.1149
4.1110,-0.2126,1.0321,0.1134
4.1240,-0.2126,1.0321,0.1134
4.1250,-0.2126,1.0321,0.1134
4.1250,-0.2126,1.0321,0.1134
4.1260,-0.2185,1.0350,0.1090
4.1550,-0.2185,1.0350,0.1090
4.1570,-0.2185,1.0350,0.1090
4.1580,-0.2185,1.0350,0.1090
4.1590,-0.2229,1.0367,0.1083
4.1600,-0.2229,1.0367,0.1083
4.1830,-0.2229,1.0367,0.1083
4.1870,-0.2229,1.0367,0.1083
4.1870,-0.2229,1.0367,0.1083
4.1870,-0.2273,1.0357,0.1056
4.1880,-0.2246,1.0306,0.1026
4.2030,-0.2246,1.0306,0.1026
4.2030,-0.2246,1.0306,0.1026
4.2040,-0.2246,1.0306,0.1026
4.2040,-0.2222,1.0225,0.1053
4.2310,-0.2222,1.0225,0.1053
4.2360,-0.2222,1.0225,0.1053
4.2360,-0.2222,1.0225,0.1053
4.2370,-0.2222,1.0225,0.1053
4.2370,-0.2202,1.0218,0.1154
4.2370,-0.2202,1.0218,0.1154
4.2650,-0.2202,1.0218,0.1154
4.2650,-0.2202,1.0218,0.1154
4.2660,-0.2202,1.0218,0.1154
4.2660,-0.2197,1.0274,0.1173
4.2660,-0.2175,1.0321,0.1134
4.2850,-0.2175,1.0321,0.1134
4.2850,-0.2175,1.0321,0.1134
4.2860,-0.2175,1.0321,0.1134
4.2860,-0.2165,1.0306,0.1168
4.3150,-0.2165,1.0306,0.1168
4.3150,-0.2165,1.0306,0.1168
4.3150,-0.2165,1.0306,0.1168
4.3160,-0.2190,1.0286,0.1190
4.3160,-0.2190,1.0286,0.1190
4.3470,-0.2190,1.0286,0.1190
4.3470,-0.2190,1.0286,0.1190
4.3480,-0.2190,1.0286,0.1190
4.3480,-0.2209,1.0267,0.1178
4.3480,-0.2253,1.0250,0.1136
4.3680,-0.2253,1.0250,0.1136
4.3810,-0.2253,1.0250,0.1136
4.3830,-0.2253,1.0250,0.1136
4.3830,-0.2273,1.0233,0.1132
4.3930,-0.2273,1.0233,0.1132
4.3940,-0.2273,1.0233,0.1132
4.3940,-0.2273,1.0233,0.1132
4.3940,-0.2263,1.0235,0.1124
4.3950,-0.2263,1.0235,0.1124
4.4260,-0.2263,1.0235,0.1124
4.4260,-0.2263,1.0235,0.1124
4.4260,-0.2263,1.0235,0.1124
4.4290,-0.2248,1.0235,0.1139
4.4300,-0.2219,1.0291,0.1185
4.4320,-0.2219,1.0291,0.1185
4.4460,-0.2219,1.0291,0.1185
4.4460,-0.2219,1.0291,0.1185
4.4470,-0.2219,1.0291,0.1185
4.4480,-0.2204,1.0330,0.1198
4.4750,-0.2204,1.0330,0.1198
4.4750,-0.2204,1.0330,0.1198
4.4750,-0.2204,1.0330,0.1198
4.4760,-0.2207,1.0289,0.1144
4.4760,-0.2207,1.0289,0.1144
4.5060,-0.2207,1.0289,0.1144
4.5070,-0.2207,1.0289,0.1144
4.5070,-0.2207,1.0289,0.1144
4.5100,-0.2197,1.0245,0.1156
4.5100,-0.2192,1.0264,0.1144
4.5270,-0.2192,1.0264,0.1144
4.5270,-0.2192,1.0264,0.1144
4.5270,-0.2192,1.0264,0.1144
4.5270,-0.2151,1.0301,0.1110
4.5550,-0.2151,1.0301,0.1110
4.5550,-0.2151,1.0301,0.1110
4.5560,-0.2151,1.0301,0.1110
4.5600,-0.2158,1.0318,0.1112
4.5600,-0.2158,1.0318,0.1112
4.5860,-0.2158,1.0318,0.1112
4.5870,-0.2158,1.0318,0.1112
4.5870,-0.2158,1.0318,0.1112
4.5870,-0.2153,1.0289,0.1171
4.5870,-0.2197,1.0277,0.1176
4.6080,-0.2197,1.0277,0.1176
4.6080,-0.2197,1.0277,0.1176
4.6080,-0.2197,1.0277,0.1176
4.6120,-0.2246,1.0318,0.1151
4.6360,-0.2246,1.0318,0.1151
4.6400,-0.2246,1.0318,0.1151
4.6400,-0.2246,1.0318,0.1151
4.6400,-0.2246,1.0318,0.1151
4.6400,-0.2219,1.0362,0.1178
4.6410,-0.2219,1.0362,0.1178
4.6680,-0.2219,1.0362,0.1178
4.6680,-0.2219,1.0362,0.1178
4.6680,-0.2219,1.0362,0.1178
4.6680,-0.2202,1.0289,0.1168
4.6690,-0.2229,1.0228,0.1132
4.6890,-0.2229,1.0228,0.1132
4.6890,-0.2229,1.0228,0.1132
4.6900,-0.2229,1.0228,0.1132
4.6900,-0.2241,1.0247,0.1207
4.7160,-0.2241,1.0247,0.1207
4.7160,-0.2241,1.0247,0.1207
4.7170,-0.2241,1.0247,0.1207
4.7170,-0.2246,1.0294,0.1178
4.7170,-0.2246,1.0294,0.1178
4.7480,-0.2246,1.0294,0.1178
4.7480,-0.2246,1.0294,0.1178
4.7480,-0.2246,1.0294,0.1178
4.7480,-0.2248,1.0308,0.1095
4.7490,-0.2234,1.0262,0.1029
4.7670,-0.2234,1.0262,0.1029
4.7680,-0.2234,1.0262,0.1029
4.7680,-0.2234,1.0262,0.1029
4.7680,-0.2214,1.0235,0.1051
4.7960,-0.2214,1.0235,0.1051
4.7970,-0.2214,1.0235,0.1051
4.7970,-0.2214,1.0235,0.1051
4.7970,-0.2170,1.0257,0.1207
4.7980,-0.2170,1.0257,0.1207
4.8290,-0.2170,1.0257,0.1207
4.8300,-0.2170,1.0257,0.1207
4.8300,-0.2170,1.0257,0.1207
4.8310,-0.2131,1.0281,0.1234
4.8310,-0.2119,1.0303,0.1166
4.8320,-0.2119,1.0303,0.1166
4.8490,-0.2119,1.0303,0.1166
4.8490,-0.2119,1.0303,0.1166
4.8500,-0.2119,1.0303,0.1166
4.8500,-0.2180,1.0294,0.1105
4.8790,-0.2180,1.0294,0.1105
4.8790,-0.2180,1.0294,0.1105
4.8800,-0.2180,1.0294,0.1105
4.8800,-0.2212,1.0284,0.1070
4.8810,-0.2212,1.0284,0.1070
4.9090,-0.2212,1.0284,0.1070
4.9090,-0.2212,1.0284,0.1070
4.9100,-0.2212,1.0284,0.1070
4.9100,-0.2192,1.0284,0.1124
4.9100,-0.2163,1.0296,0.1122
4.9270,-0.2163,1.0296,0.1122
4.9270,-0.2163,1.0296,0.1122
4.9280,-0.2163,1.0296,0.1122
4.9280,-0.2136,1.0311,0.1075
4.9550,-0.2136,1.0311,0.1075
4.9560,-0.2136,1.0311,0.1075
4.9560,-0.2136,1.0311,0.1075
4.9560,-0.2146,1.0301,0.1090
4.9560,-0.2146,1.0301,0.1090
4.9890,-0.2146,1.0301,0.1090
4.9890,-0.2146,1.0301,0.1090
4.9890,-0.2146,1.0301,0.1090
4.9900,-0.2156,1.0338,0.1158
4.9900,-0.2187,1.0369,0.1161
5.0090,-0.2187,1.0369,0.1161
5.0100,-0.2187,1.0369,0.1161
5.0100,-0.2187,1.0369,0.1161
5.0100,-0.2224,1.0294,0.1180
5.0340,-0.2224,1.0294,0.1180
5.0380,-0.2224,1.0294,0.1180
5.0380,-0.2224,1.0294,0.1180
5.0380,-0.2224,1.0294,0.1180
5.0400,-0.2190,1.0218,0.1190
5.0400,-0.2190,1.0218,0.1190
5.0670,-0.2190,1.0218,0.1190
5.0680,-0.2190,1.0218,0.1190
5.0680,-0.2190,1.0218,0.1190
5.0680,-0.2148,1.0235,0.1146
5.0690,-0.2148,1.0277,0.1070
5.0890,-0.2148,1.0277,0.1070
5.0890,-0.2148,1.0277,0.1070
5.0890,-0.2148,1.0277,0.1070
5.0900,-0.2185,1.0277,0.1046
5.1190,-0.2185,1.0277,0.1046
5.1200,-0.2185,1.0277,0.1046
5.1200,-0.2185,1.0277,0.1046
5.1200,-0.2248,1.0321,0.1097
5.1210,-0.2248,1.0321,0.1097
5.1490,-0.2248,1.0321,0.1097
5.1490,-0.2248,1.0321,0.1097
5.1500,-0.2248,1.0321,0.1097
5.1500,-0.2253,1.0367,0.1127
5.1510,-0.2207,1.0318,0.1107
5.1690,-0.2207,1.0318,0.1107
5.1700,-0.2207,1.0318,0.1107
5.1700,-0.2207,1.0318,0.1107
5.1700,-0.2153,1.0259,0.1100
5.1980,-0.2153,1.0259,0.1100
5.1990,-0.2153,1.0259,0.1100
5.1990,-0.2153,1.0259,0.1100
5.2000,-0.2124,1.0215,0.1083
5.2000,-0.2124,1.0215,0.1083
5.2280,-0.2124,1.0215,0.1083
5.2290,-0.2124,1.0215,0.1083
5.2290,-0.2124,1.0215,0.1083
5.2300,-0.2112,1.0203,0.1141
5.2300,-0.2097,1.0255,0.1171
5.2310,-0.2097,1.0255,0.1171
5.2490,-0.2097,1.0255,0.1171
5.2490,-0.2097,1.0255,0.1171
5.2500,-0.2097,1.0255,0.1171
5.2500,-0.2134,1.0267,0.1166
5.2780,-0.2134,1.0267,0.1166
5.2790,-0.2134,1.0267,0.1166
5.2790,-0.2134,1.0267,0.1166
5.2790,-0.2178,1.0284,0.1136
5.2790,-0.2178,1.0284,0.1136
5.3100,-0.2178,1.0284,0.1136
5.3100,-0.2178,1.0284,0.1136
5.3100,-0.2178,1.0284,0.1136
5.3110,-0.2231,1.0294,0.1127
5.3110,-0.2224,1.0340,0.1129
5.3290,-0.2224,1.0340,0.1129
5.3300,-0.2224,1.0340,0.1129
5.3300,-0.2224,1.0340,0.1129
5.3300,-0.2180,1.0343,0.1107
5.3560,-0.2180,1.0343,0.1107
5.3560,-0.2180,1.0343,0.1107
5.3570,-0.2180,1.0343,0.1107
5.3570,-0.2151,1.0301,0.1141
5.3570,-0.2151,1.0301,0.1141
5.3890,-0.2151,1.0301,0.1141
5.3890,-0.2151,1.0301,0.1141
5.3900,-0.2151,1.0301,0.1141
5.3900,-0.2158,1.0264,0.1149
5.3900,-0.2175,1.0191,0.1112
5.4100,-0.2175,1.0191,0.1112
5.4100,-0.2175,1.0191,0.1112
5.4100,-0.2175,1.0191,0.1112
5.4110,-0.2200,1.0142,0.1080
5.4340,-0.2200,1.0142,0.1080
5.4400,-0.2200,1.0142,0.1080
5.4410,-0.2200,1.0142,0.1080
5.4410,-0.2200,1.0142,0.1080
5.4410,-0.2239,1.0167,0.1117
5.4410,-0.2239,1.0167,0.1117
5.4690,-0.2239,1.0167,0.1117
5.4690,-0.2239,1.0167,0.1117
5.4700,-0.2239,1.0167,0.1117
5.4700,-0.2292,1.0338,0.1217
5.4850,-0.2285,1.0389,0.1188
5.4870,-0.2285,1.0389,0.1188
5.4870,-0.2285,1.0389,0.1188
5.4880,-0.2285,1.0389,0.1188
5.4880,-0.2204,1.0325,0.1129
5.5160,-0.2204,1.0325,0.1129
5.5170,-0.2204,1.0325,0.1129
5.5170,-0.2204,1.0325,0.1129
5.5170,-0.2187,1.0259,0.1119
5.5180,-0.2187,1.0259,0.1119
5.5460,-0.2187,1.0259,0.1119
5.5460,-0.2187,1.0259,0.1119
5.5470,-0.2187,1.0259,0.1119
5.5470,-0.2219,1.0289,0.1151
5.5470,-0.2241,1.0330,0.1180
5.5660,-0.2241,1.0330,0.1180
5.5660,-0.2241,1.0330,0.1180
5.5670,-0.2241,1.0330,0.1180
5.5670,-0.2200,1.0301,0.1173
5.5960,-0.2200,1.0301,0.1173
5.5960,-0.2200,1.0301,0.1173
5.5970,-0.2200,1.0301,0.1173
5.5970,-0.2173,1.0228,0.1141
5.5970,-0.2173,1.0228,0.1141
5.6270,-0.2173,1.0228,0.1141
5.6270,-0.2173,1.0228,0.1141
5.6270,-0.2173,1.0228,0.1141
5.6270,-0.2200,1.0223,0.1139
5.6270,-0.2180,1.0281,0.1156
5.6340,-0.2180,1.0281,0.1156
5.6460,-0.2180,1.0281,0.1156
5.6470,-0.2180,1.0281,0.1156
5.6470,-0.2180,1.0281,0.1156
5.6470,-0.2180,1.0291,0.1166
5.6750,-0.2180,1.0291,0.1166
5.6750,-0.2180,1.0291,0.1166
5.6760,-0.2180,1.0291,0.1166
5.6760,-0.2200,1.0316,0.1171
5.6760,-0.2200,1.0316,0.1171
5.7050,-0.2200,1.0316,0.1171
5.7050,-0.2200,1.0316,0.1171
5.7050,-0.2200,1.0316,0.1171
5.7060,-0.2200,1.0303,0.1154
5.7060,-0.2212,1.0303,0.1095
5.7260,-0.2212,1.0303,0.1095
5.7260,-0.2212,1.0303,0.1095
5.7260,-0.2212,1.0303,0.1095
5.7260,-0.2197,1.0237,0.1151
5.7550,-0.2197,1.0237,0.1151
5.7560,-0.2197,1.0237,0.1151
5.7560,-0.2197,1.0237,0.1151
5.7560,-0.2207,1.0225,0.1190
5.7560,-0.2207,1.0225,0.1190
5.7850,-0.2207,1.0225,0.1190
5.7860,-0.2207,1.0225,0.1190
5.7860,-0.2207,1.0225,0.1190
5.7860,-0.2214,1.0345,0.1180
5.7870,-0.2170,1.0343,0.1136
5.8070,-0.2170,1.0343,0.1136
5.8080,-0.2170,1.0343,0.1136
5.8100,-0.2170,1.0343,0.1136
5.8110,-0.2114,1.0274,0.1146
5.8320,-0.2114,1.0274,0.1146
5.8370,-0.2114,1.0274,0.1146
5.8380,-0.2114,1.0274,0.1146
5.8390,-0.2114,1.0274,0.1146
5.8400,-0.2141,1.0286,0.1183
5.8410,-0.2141,1.0286,0.1183
5.8670,-0.2141,1.0286,0.1183
5.8680,-0.2141,1.0286,0.1183
5.8700,-0.2141,1.0286,0.1183
5.8700,-0.2138,1.0306,0.1180
5.8710,-0.2160,1.0264,0.1161
5.8890,-0.2160,1.0264,0.1161
5.8890,-0.2160,1.0264,0.1161
5.8910,-0.2160,1.0264,0.1161
5.8920,-0.2200,1.0274,0.1161
5.9170,-0.2200,1.0274,0.1161
5.9170,-0.2200,1.0274,0.1161
5.9180,-0.2200,1.0274,0.1161
5.9180,-0.2156,1.0311,0.1163
5.9190,-0.2156,1.0311,0.1163
5.9470,-0.2156,1.0311,0.1163
5.9470,-0.2156,1.0311,0.1163
5.9480,-0.2156,1.0311,0.1163
5.9490,-0.2153,1.0365,0.1185
5.9510,-0.2126,1.0333,0.1149
5.9660,-0.2126,1.0333,0.1149
5.9660,-0.2126,1.0333,0.1149
5.9680,-0.2126,1.0333,0.1149
5.9690,-0.2146,1.0274,0.1212
5.9980,-0.2146,1.0274,0.1212
5.9990,-0.2146,1.0274,0.1212
6.0000,-0.2146,1.0274,0.1212
6.0000,-0.2141,1.0220,0.1266
6.0010,-0.2141,1.0220,0.1266
6.0280,-0.2141,1.0220,0.1266
6.0290,-0.2141,1.0220,0.1266
6.0330,-0.2141,1.0220,0.1266
6.0340,-0.2168,1.0223,0.1237
6.0560,-0.2146,1.0237,0.1185
6.0560,-0.2146,1.0237,0.1185
6.0560,-0.2146,1.0237,0.1185
6.0570,-0.2146,1.0237,0.1185
6.0570,-0.2146,1.0237,0.1185
6.0570,-0.2097,1.0291,0.1158
6.0760,-0.2097,1.0291,0.1158
6.0760,-0.2097,1.0291,0.1158
6.0760,-0.2097,1.0291,0.1158
6.0770,-0.2134,1.0328,0.1166
6.0770,-0.2134,1.0328,0.1166
6.1080,-0.2134,1.0328,0.1166
6.1080,-0.2134,1.0328,0.1166
6.1090,-0.2134,1.0328,0.1166
6.1090,-0.2182,1.0277,0.1183
6.1090,-0.2222,1.0237,0.1168
6.1280,-0.2222,1.0237,0.1168
6.1310,-0.2222,1.0237,0.1168
6.1320,-0.2222,1.0237,0.1168
6.1320,-0.2200,1.0333,0.1168
6.1590,-0.2200,1.0333,0.1168
6.1590,-0.2200,1.0333,0.1168
6.1600,-0.2200,1.0333,0.1168
6.1600,-0.2160,1.0382,0.1173
6.1610,-0.2160,1.0382,0.1173
6.1910,-0.2160,1.0382,0.1173
6.1910,-0.2160,1.0382,0.1173
6.1920,-0.2160,1.0382,0.1173
6.1930,-0.2136,1.0301,0.1146
6.1940,-0.2121,1.0201,0.1163
6.2110,-0.2121,1.0201,0.1163
6.2120,-0.2121,1.0201,0.1163
6.2130,-0.2121,1.0201,0.1163
6.2130,-0.2104,1.0137,0.1144
6.2350,-0.2104,1.0137,0.1144
6.2370,-0.2104,1.0137,0.1144
6.2380,-0.2104,1.0137,0.1144
6.2390,-0.2104,1.0137,0.1144
6.2400,-0.2121,1.0184,0.1222
6.2410,-0.2121,1.0184,0.1222
6.2700,-0.2121,1.0184,0.1222
6.2710,-0.2121,1.0184,0.1222
6.2720,-0.2121,1.0184,0.1222
6.2730,-0.2129,1.0286,0.1276
6.2740,-0.2119,1.0379,0.1266
6.2930,-0.2119,1.0379,0.1266
6.2940,-0.2119,1.0379,0.1266
6.2960,-0.2119,1.0379,0.1266
6.2970,-0.2102,1.0426,0.1193
6.3200,-0.2102,1.0426,0.1193
6.3210,-0.2102,1.0426,0.1193
6.3220,-0.2102,1.0426,0.1193
6.3230,-0.2143,1.0350,0.1176
6.3240,-0.2143,1.0350,0.1176
6.3510,-0.2143,1.0350,0.1176
6.3510,-0.2143,1.0350,0.1176
6.3520,-0.2143,1.0350,0.1176
6.3530,-0.2226,1.0299,0.1161
6.3530,-0.2243,1.0272,0.1166
6.3710,-0.2243,1.0272,0.1166
6.3740,-0.2243,1.0272,0.1166
6.3740,-0.2243,1.0272,0.1166
6.3750,-0.2195,1.0284,0.1207
6.4010,-0.2195,1.0284,0.1207
6.4020,-0.2195,1.0284,0.1207
6.4030,-0.2195,1.0284,0.1207
6.4030,-0.2151,1.0338,0.1188
6.4040,-0.2151,1.0338,0.1188
6.4310,-0.2151,1.0338,0.1188
6.4330,-0.2151,1.0338,0.1188
6.4330,-0.2151,1.0338,0.1188
6.4340,-0.2114,1.0318,0.1207
6.4350,-0.2131,1.0259,0.1193
6.4360,-0.2131,1.0259,0.1193
6.4530,-0.2131,1.0259,0.1193
6.4540,-0.2131,1.0259,0.1193
6.4560,-0.2131,1.0259,0.1193
6.4570,-0.2153,1.0255,0.1188
6.4800,-0.2153,1.0255,0.1188
6.4810,-0.2153,1.0255,0.1188
6.4820,-0.2153,1.0255,0.1188
6.4820,-0.2202,1.0272,0.1180
6.4830,-0.2202,1.0272,0.1180
6.5120,-0.2202,1.0272,0.1180
6.5130,-0.2202,1.0272,0.1180
6.5130,-0.2202,1.0272,0.1180
6.5140,-0.2246,1.0281,0.1185
6.5150,-0.2236,1.0338,0.1166
6.5300,-0.2236,1.0338,0.1166
6.5310,-0.2236,1.0338,0.1166
6.5330,-0.2236,1.0338,0.1166
6.5340,-0.2175,1.0284,0.1173
6.5610,-0.2175,1.0284,0.1173
6.5620,-0.2175,1.0284,0.1173
6.5630,-0.2175,1.0284,0.1173
6.5630,-0.2134,1.0259,0.1156
6.5640,-0.2134,1.0259,0.1156
6.5930,-0.2134,1.0259,0.1156
6.5940,-0.2134,1.0259,0.1156
6.5950,-0.2134,1.0259,0.1156
6.6200,-0.2126,1.0240,0.1185
6.6200,-0.2114,1.0267,0.1193
6.6220,-0.2114,1.0267,0.1193
6.6220,-0.2114,1.0267,0.1193
6.6220,-0.2114,1.0267,0.1193
6.6230,-0.2107,1.0284,0.1173
6.6320,-0.2107,1.0284,0.1173
6.6370,-0.2107,1.0284,0.1173
6.6370,-0.2107,1.0284,0.1173
6.6370,-0.2107,1.0284,0.1173
6.6370,-0.2087,1.0299,0.1185
6.6380,-0.2087,1.0299,0.1185
6.6690,-0.2087,1.0299,0.1185
6.6700,-0.2087,1.0299,0.1185
6.6710,-0.2087,1.0299,0.1185
6.6720,-0.2097,1.0294,0.1198
6.6730,-0.2160,1.0279,0.1212
6.6900,-0.2160,1.0279,0.1212
6.6910,-0.2160,1.0279,0.1212
6.6920,-0.2160,1.0279,0.1212
6.6930,-0.2248,1.0279,0.1154
6.7200,-0.2248,1.0279,0.1154
6.7210,-0.2248,1.0279,0.1154
6.7220,-0.2248,1.0279,0.1154
6.7230,-0.2263,1.0303,0.1139
6.7240,-0.2263,1.0303,0.1139
6.7520,-0.2263,1.0303,0.1139
6.7530,-0.2263,1.0303,0.1139
6.7530,-0.2263,1.0303,0.1139
6.7550,-0.2170,1.0325,0.1078
6.7560,-0.2097,1.0301,0.1132
6.7710,-0.2097,1.0301,0.1132
6.7720,-0.2097,1.0301,0.1132
6.7730,-0.2097,1.0301,0.1132
6.7740,-0.2114,1.0203,0.1200
6.8010,-0.2114,1.0203,0.1200
6.8030,-0.2114,1.0203,0.1200
6.8030,-0.2114,1.0203,0.1200
6.8040,-0.2124,1.0193,0.1168
6.8050,-0.2124,1.0193,0.1168
6.8330,-0.2124,1.0193,0.1168
6.8360,-0.2124,1.0193,0.1168
6.8370,-0.2124,1.0193,0.1168
6.8390,-0.2158,1.0237,0.1163
6.8400,-0.2165,1.0352,0.1163
6.8410,-0.2165,1.0352,0.1163
6.8510,-0.2165,1.0352,0.1163
6.8530,-0.2165,1.0352,0.1163
6.8530,-0.2165,1.0352,0.1163
6.8540,-0.2141,1.0401,0.1132
6.8800,-0.2141,1.0401,0.1132
6.8810,-0.2141,1.0401,0.1132
6.8820,-0.2141,1.0401,0.1132
6.8830,-0.2104,1.0321,0.1100
6.8840,-0.2104,1.0321,0.1100
6.9130,-0.2104,1.0321,0.1100
6.9140,-0.2104,1.0321,0.1100
6.9160,-0.2104,1.0321,0.1100
6.9170,-0.2124,1.0255,0.1083
6.9170,-0.2207,1.0262,0.1110
6.9300,-0.2207,1.0262,0.1110
6.9310,-0.2207,1.0262,0.1110
6.9330,-0.2207,1.0262,0.1110
6.9340,-0.2246,1.0250,0.1134
6.9620,-0.2246,1.0250,0.1134
6.9630,-0.2246,1.0250,0.1134
6.9640,-0.2246,1.0250,0.1134
6.9650,-0.2234,1.0242,0.1119
6.9660,-0.2234,1.0242,0.1119
6.9930,-0.2234,1.0242,0.1119
6.9950,-0.2234,1.0242,0.1119
6.9970,-0.2234,1.0242,0.1119
6.9980,-0.2219,1.0291,0.1110
6.9990,-0.2178,1.0308,0.1114
7.0100,-0.2178,1.0308,0.1114
7.0130,-0.2178,1.0308,0.1114
7.0160,-0.2178,1.0308,0.1114
7.0170,-0.2148,1.0340,0.1141
7.0330,-0.2148,1.0340,0.1141
7.0390,-0.2148,1.0340,0.1141
7.0400,-0.2148,1.0340,0.1141
7.0410,-0.2148,1.0340,0.1141
7.0420,-0.2136,1.0328,0.1136
7.0430,-0.2136,1.0328,0.1136
7.0730,-0.2136,1.0328,0.1136
7.0740,-0.2136,1.0328,0.1136
7.0750,-0.2136,1.0328,0.1136
7.0760,-0.2148,1.0279,0.1124
7.0760,-0.2156,1.0284,0.1134
7.0920,-0.2156,1.0284,0.1134
7.0930,-0.2156,1.0284,0.1134
7.0930,-0.2156,1.0284,0.1134
7.0940,-0.2204,1.0308,0.1171
7.1210,-0.2204,1.0308,0.1171
7.1220,-0.2204,1.0308,0.1171
7.1220,-0.2204,1.0308,0.1171
7.1230,-0.2251,1.0269,0.1178
7.1240,-0.2251,1.0269,0.1178
7.1540,-0.2251,1.0269,0.1178
7.1570,-0.2251,1.0269,0.1178
7.1800,-0.2251,1.0269,0.1178
7.1800,-0.2275,1.0235,0.1163
7.1800,-0.2231,1.0237,0.1166
7.1810,-0.2231,1.0237,0.1166
7.1810,-0.2231,1.0237,0.1166
7.1820,-0.2231,1.0237,0.1166
7.1820,-0.2195,1.0296,0.1119
7.2000,-0.2195,1.0296,0.1119
7.2000,-0.2195,1.0296,0.1119
7.2000,-0.2195,1.0296,0.1119
7.2010,-0.2158,1.0328,0.1090
7.2010,-0.2158,1.0328,0.1090
7.2320,-0.2158,1.0328,0.1090
7.2330,-0.2158,1.0328,0.1090
7.2340,-0.2158,1.0328,0.1090
7.2350,-0.2138,1.0313,0.1107
7.2360,-0.2180,1.0264,0.1129
7.2370,-0.2180,1.0264,0.1129
7.2500,-0.2180,1.0264,0.1129
7.2510,-0.2180,1.0264,0.1129
7.2520,-0.2180,1.0264,0.1129
7.2530,-0.2178,1.0211,0.1180
7.2810,-0.2178,1.0211,0.1180
7.2820,-0.2178,1.0211,0.1180
7.2830,-0.2178,1.0211,0.1180
7.2840,-0.2178,1.0230,0.1176
7.2850,-0.2178,1.0230,0.1176
7.3120,-0.2178,1.0230,0.1176
7.3130,-0.2178,1.0230,0.1176
7.3140,-0.2178,1.0230,0.1176
7.3160,-0.2163,1.0291,0.1193
7.3170,-0.2148,1.0367,0.1173
7.3310,-0.2148,1.0367,0.1173
7.3320,-0.2148,1.0367,0.1173
7.3330,-0.2148,1.0367,0.1173
7.3340,-0.2156,1.0374,0.1156
7.3600,-0.2156,1.0374,0.1156
7.3610,-0.2156,1.0374,0.1156
7.3620,-0.2156,1.0374,0.1156
7.3630,-0.2158,1.0286,0.1102
7.3640,-0.2158,1.0286,0.1102
7.3910,-0.2158,1.0286,0.1102
7.3930,-0.2158,1.0286,0.1102
7.3940,-0.2158,1.0286,0.1102
7.3940,-0.2187,1.0235,0.1166
7.3960,-0.2197,1.0237,0.1168
7.4110,-0.2197,1.0237,0.1168
7.4120,-0.2197,1.0237,0.1168
7.4130,-0.2197,1.0237,0.1168
7.4140,-0.2197,1.0296,0.1154
7.4370,-0.2197,1.0296,0.1154
7.4390,-0.2197,1.0296,0.1154
7.4400,-0.2197,1.0296,0.1154
7.4410,-0.2197,1.0296,0.1154
7.4420,-0.2178,1.0277,0.1205
7.4430,-0.2178,1.0277,0.1205
7.4700,-0.2178,1.0277,0.1205
7.4730,-0.2178,1.0277,0.1205
7.4770,-0.2178,1.0277,0.1205
7.4780,-0.2187,1.0289,0.1195
7.4790,-0.2158,1.0318,0.1156
7.4900,-0.2158,1.0318,0.1156
7.4930,-0.2158,1.0318,0.1156
7.4940,-0.2158,1.0318,0.1156
7.4960,-0.2126,1.0313,0.1166
7.5210,-0.2126,1.0313,0.1166
7.5210,-0.2126,1.0313,0.1166
7.5220,-0.2126,1.0313,0.1166
7.5230,-0.2131,1.0274,0.1171
7.5230,-0.2131,1.0274,0.1171
7.5540,-0.2131,1.0274,0.1171
7.5550,-0.2131,1.0274,0.1171
7.5570,-0.2131,1.0274,0.1171
7.5580,-0.2170,1.0264,0.1129
7.5590,-0.2195,1.0269,0.1173
7.5740,-0.2195,1.0269,0.1173
7.5750,-0.2195,1.0269,0.1173
7.5760,-0.2195,1.0269,0.1173
7.5770,-0.2209,1.0279,0.1222
7.6040,-0.2209,1.0279,0.1222
7.6060,-0.2209,1.0279,0.1222
7.6070,-0.2209,1.0279,0.1222
7.6080,-0.2192,1.0259,0.1136
7.6080,-0.2192,1.0259,0.1136
7.6350,-0.2192,1.0259,0.1136
7.6360,-0.2192,1.0259,0.1136
7.6370,-0.2192,1.0259,0.1136
7.6400,-0.2202,1.0321,0.1124
7.6410,-0.2182,1.0284,0.1200
7.6420,-0.2182,1.0284,0.1200
7.6560,-0.2182,1.0284,0.1200
7.6580,-0.2182,1.0284,0.1200
7.6610,-0.2182,1.0284,0.1200
7.6620,-0.2160,1.0242,0.1229
7.6800,-0.2160,1.0242,0.1229
7.6810,-0.2160,1.0242,0.1229
7.6810,-0.2160,1.0242,0.1229
7.6820,-0.2104,1.0299,0.1261
7.6830,-0.2104,1.0299,0.1261
7.7090,-0.2104,1.0299,0.1261
7.7360,-0.2104,1.0299,0.1261
7.7360,-0.2104,1.0299,0.1261
7.7360,-0.2060,1.0330,0.1266
7.7370,-0.2082,1.0281,0.1249
7.7370,-0.2082,1.0281,0.1249
7.7370,-0.2082,1.0281,0.1249
7.7380,-0.2082,1.0281,0.1249
7.7380,-0.2121,1.0242,0.1239
7.7580,-0.2121,1.0242,0.1239
7.7590,-0.2121,1.0242,0.1239
7.7590,-0.2121,1.0242,0.1239
7.7600,-0.2170,1.0218,0.1193
7.7600,-0.2170,1.0218,0.1193
7.7910,-0.2170,1.0218,0.1193
7.7920,-0.2170,1.0218,0.1193
7.7930,-0.2170,1.0218,0.1193
7.7950,-0.2192,1.0274,0.1202
7.7950,-0.2146,1.0321,0.1215
7.8100,-0.2146,1.0321,0.1215
7.8110,-0.2146,1.0321,0.1215
7.8120,-0.2146,1.0321,0.1215
7.8130,-0.2107,1.0330,0.1180
7.8340,-0.2107,1.0330,0.1180
7.8400,-0.2107,1.0330,0.1180
7.8410,-0.2107,1.0330,0.1180
7.8410,-0.2107,1.0330,0.1180
7.8420,-0.2126,1.0284,0.1146
7.8430,-0.2126,1.0284,0.1146
7.8720,-0.2126,1.0284,0.1146
7.8730,-0.2126,1.0284,0.1146
7.8740,-0.2126,1.0284,0.1146
7.8760,-0.2160,1.0250,0.1156
7.8760,-0.2175,1.0211,0.1149
7.8920,-0.2175,1.0211,0.1149
7.8930,-0.2175,1.0211,0.1149
7.8930,-0.2175,1.0211,0.1149
7.8940,-0.2192,1.0203,0.1136
7.9210,-0.2192,1.0203,0.1136
7.9220,-0.2192,1.0203,0.1136
7.9230,-0.2192,1.0203,0.1136
7.9240,-0.2185,1.0316,0.1134
7.9250,-0.2185,1.0316,0.1134
7.9530,-0.2185,1.0316,0.1134
7.9540,-0.2185,1.0316,0.1134
7.9550,-0.2185,1.0316,0.1134
7.9560,-0.2136,1.0409,0.1173
7.9580,-0.2082,1.0343,0.1193
7.9720,-0.2082,1.0343,0.1193
7.9730,-0.2082,1.0343,0.1193
7.9740,-0.2082,1.0343,0.1193
7.9740,-0.2077,1.0247,0.1239
8.0030,-0.2077,1.0247,0.1239
8.0040,-0.2077,1.0247,0.1239
8.0050,-0.2077,1.0247,0.1239
8.0050,-0.2131,1.0269,0.1234
8.0060,-0.2131,1.0269,0.1234
8.0360,-0.2131,1.0269,0.1234
8.0370,-0.2131,1.0269,0.1234
8.0380,-0.2131,1.0269,0.1234
8.0390,-0.2190,1.0330,0.1239
8.0400,-0.2187,1.0316,0.1180
8.0410,-0.2187,1.0316,0.1180
8.0540,-0.2187,1.0316,0.1180
8.0550,-0.2187,1.0316,0.1180
8.0560,-0.2187,1.0316,0.1180
8.0580,-0.2146,1.0272,0.1166
8.0840,-0.2146,1.0272,0.1166
8.0850,-0.2146,1.0272,0.1166
8.0850,-0.2146,1.0272,0.1166
8.0860,-0.2104,1.0299,0.1193
8.0880,-0.2104,1.0299,0.1193
8.1120,-0.2104,1.0299,0.1193
8.1120,-0.2104,1.0299,0.1193
8.1130,-0.2104,1.0299,0.1193
8.1130,-0.2085,1.0313,0.1195
8.1140,-0.2077,1.0321,0.1156
8.1340,-0.2077,1.0321,0.1156
8.1350,-0.2077,1.0321,0.1156
8.1370,-0.2077,1.0321,0.1156
8.1380,-0.2085,1.0308,0.1190
8.1620,-0.2085,1.0308,0.1190
8.1620,-0.2085,1.0308,0.1190
8.1630,-0.2085,1.0308,0.1190
8.1640,-0.2090,1.0294,0.1217
8.1640,-0.2090,1.0294,0.1217
8.1930,-0.2090,1.0294,0.1217
8.1940,-0.2090,1.0294,0.1217
8.1940,-0.2090,1.0294,0.1217
8.1970,-0.2114,1.0277,0.1220
8.1980,-0.2126,1.0264,0.1268
8.2140,-0.2126,1.0264,0.1268
8.2170,-0.2126,1.0264,0.1268
8.2180,-0.2126,1.0264,0.1268
8.2190,-0.2114,1.0223,0.1298
8.2370,-0.2114,1.0223,0.1298
8.2440,-0.2114,1.0223,0.1298
8.2450,-0.2114,1.0223,0.1298
8.2460,-0.2114,1.0223,0.1298
8.2470,-0.2141,1.0230,0.1249
8.2480,-0.2141,1.0230,0.1249
8.2750,-0.2141,1.0230,0.1249
8.2760,-0.2141,1.0230,0.1249
8.2770,-0.2141,1.0230,0.1249
8.2770,-0.2153,1.0277,0.1178
8.2780,-0.2143,1.0323,0.1173
8.2910,-0.2143,1.0323,0.1173
8.2910,-0.2143,1.0323,0.1173
8.2920,-0.2143,1.0323,0.1173
8.2920,-0.2126,1.0311,0.1195
8.3210,-0.2126,1.0311,0.1195
8.3210,-0.2126,1.0311,0.1195
8.3220,-0.2126,1.0311,0.1195
8.3220,-0.2119,1.0259,0.1180
8.3230,-0.2119,1.0259,0.1180
8.3530,-0.2119,1.0259,0.1180
8.3540,-0.2119,1.0259,0.1180
8.3550,-0.2119,1.0259,0.1180
8.3560,-0.2136,1.0262,0.1249
8.3570,-0.2134,1.0233,0.1202
8.3730,-0.2134,1.0233,0.1202
8.3740,-0.2134,1.0233,0.1202
8.3750,-0.2134,1.0233,0.1202
8.3770,-0.2131,1.0208,0.1158
8.4070,-0.2131,1.0208,0.1158
8.4080,-0.2131,1.0208,0.1158
8.4100,-0.2131,1.0208,0.1158
8.4110,-0.2080,1.0257,0.1166
8.4130,-0.2080,1.0257,0.1166
8.4350,-0.2080,1.0257,0.1166
8.4370,-0.2080,1.0257,0.1166
8.4380,-0.2080,1.0257,0.1166
8.4390,-0.2033,1.0303,0.1178
8.4400,-0.2016,1.0286,0.1188
8.4410,-0.2016,1.0286,0.1188
8.4550,-0.2016,1.0286,0.1188
8.4560,-0.2016,1.0286,0.1188
8.4580,-0.2016,1.0286,0.1188
8.4590,-0.2063,1.0281,0.1234
8.4840,-0.2063,1.0281,0.1234
8.4850,-0.2063,1.0281,0.1234
8.4860,-0.2063,1.0281,0.1234
8.4870,-0.2109,1.0306,0.1224
8.4880,-0.2109,1.0306,0.1224
8.5170,-0.2109,1.0306,0.1224
8.5200,-0.2109,1.0306,0.1224
8.5210,-0.2109,1.0306,0.1224
8.5220,-0.2124,1.0252,0.1178
8.5230,-0.2146,1.0220,0.1156
8.5360,-0.2146,1.0220,0.1156
8.5370,-0.2146,1.0220,0.1156
8.5380,-0.2146,1.0220,0.1156
8.5400,-0.2134,1.0237,0.1124
8.5640,-0.2134,1.0237,0.1124
8.5650,-0.2134,1.0237,0.1124
8.5660,-0.2134,1.0237,0.1124
8.5670,-0.2121,1.0267,0.1134
8.5690,-0.2121,1.0267,0.1134
8.5930,-0.2121,1.0267,0.1134
8.5940,-0.2121,1.0267,0.1134
8.5940,-0.2121,1.0267,0.1134
8.5950,-0.2097,1.0286,0.1183
8.5960,-0.2092,1.0296,0.1176
8.6150,-0.2092,1.0296,0.1176
8.6150,-0.2092,1.0296,0.1176
8.6160,-0.2092,1.0296,0.1176
8.6170,-0.2085,1.0338,0.1166
8.6360,-0.2085,1.0338,0.1166
8.6420,-0.2085,1.0338,0.1166
8.6430,-0.2085,1.0338,0.1166
8.6430,-0.2085,1.0338,0.1166
8.6440,-0.2112,1.0347,0.1136
8.6440,-0.2112,1.0347,0.1136
8.6730,-0.2112,1.0347,0.1136
8.6740,-0.2112,1.0347,0.1136
8.6750,-0.2112,1.0347,0.1136
8.6750,-0.2146,1.0311,0.1139
8.6760,-0.2131,1.0289,0.1146
8.6930,-0.2131,1.0289,0.1146
8.6930,-0.2131,1.0289,0.1146
8.6940,-0.2131,1.0289,0.1146
8.6940,-0.2138,1.0242,0.1129
8.7230,-0.2138,1.0242,0.1129
8.7240,-0.2138,1.0242,0.1129
8.7250,-0.2138,1.0242,0.1129
8.7260,-0.2136,1.0230,0.1200
8.7260,-0.2136,1.0230,0.1200
8.7540,-0.2136,1.0230,0.1200
8.7540,-0.2136,1.0230,0.1200
8.7550,-0.2136,1.0230,0.1200
8.7560,-0.2134,1.0299,0.1193
8.7570,-0.2129,1.0296,0.1146
8.7740,-0.2129,1.0296,0.1146
8.7750,-0.2129,1.0296,0.1146
8.7750,-0.2129,1.0296,0.1146
8.7760,-0.2116,1.0259,0.1158
8.8060,-0.2116,1.0259,0.1158
8.8070,-0.2116,1.0259,0.1158
8.8080,-0.2116,1.0259,0.1158
8.8080,-0.2124,1.0255,0.1200
8.8100,-0.2124,1.0255,0.1200
8.8330,-0.2124,1.0255,0.1200
8.8340,-0.2124,1.0255,0.1200
8.8350,-0.2124,1.0255,0.1200
8.8360,-0.2129,1.0289,0.1227
8.8380,-0.2124,1.0274,0.1212
8.8390,-0.2124,1.0274,0.1212
8.8550,-0.2124,1.0274,0.1212
8.8570,-0.2124,1.0274,0.1212
8.8570,-0.2124,1.0274,0.1212
8.8580,-0.2131,1.0274,0.1168
8.8820,-0.2131,1.0274,0.1168
8.8820,-0.2131,1.0274,0.1168
8.8830,-0.2131,1.0274,0.1168
8.8830,-0.2112,1.0306,0.1134
8.8840,-0.2112,1.0306,0.1134
8.9120,-0.2112,1.0306,0.1134
8.9130,-0.2112,1.0306,0.1134
8.9150,-0.2112,1.0306,0.1134
8.9160,-0.2112,1.0325,0.1166
8.9160,-0.2153,1.0316,0.1171
8.9320,-0.2153,1.0316,0.1171
8.9330,-0.2153,1.0316,0.1171
8.9340,-0.2153,1.0316,0.1171
8.9350,-0.2148,1.0247,0.1185
8.9610,-0.2148,1.0247,0.1185
8.9630,-0.2148,1.0247,0.1185
8.9630,-0.2148,1.0247,0.1185
8.9640,-0.2121,1.0189,0.1215
8.9650,-0.2121,1.0189,0.1215
8.9920,-0.2121,1.0189,0.1215
8.9940,-0.2121,1.0189,0.1215
8.9950,-0.2121,1.0189,0.1215
8.9960,-0.2134,1.0269,0.1263
8.9960,-0.2080,1.0355,0.1256
9.0130,-0.2080,1.0355,0.1256
9.0140,-0.2080,1.0355,0.1256
9.0150,-0.2080,1.0355,0.1256
9.0150,-0.2077,1.0369,0.1178
9.0330,-0.2077,1.0369,0.1178
9.0360,-0.2077,1.0369,0.1178
9.0410,-0.2077,1.0369,0.1178
9.0420,-0.2077,1.0369,0.1178
9.0430,-0.2077,1.0369,0.1178
9.0440,-0.2085,1.0321,0.1198
9.0450,-0.2085,1.0321,0.1198
9.0730,-0.2085,1.0321,0.1198
9.0740,-0.2085,1.0321,0.1198
9.0750,-0.2085,1.0321,0.1198
9.0760,-0.2138,1.0289,0.1207
9.0760,-0.2158,1.0274,0.1229
9.0930,-0.2158,1.0274,0.1229
9.0930,-0.2158,1.0274,0.1229
9.0940,-0.2158,1.0274,0.1229
9.0950,-0.2116,1.0286,0.1222
9.1220,-0.2116,1.0286,0.1222
9.1230,-0.2116,1.0286,0.1222
9.1240,-0.2116,1.0286,0.1222
9.1250,-0.2109,1.0279,0.1229
9.1260,-0.2109,1.0279,0.1229
9.1540,-0.2109,1.0279,0.1229
9.1550,-0.2109,1.0279,0.1229
9.1560,-0.2109,1.0279,0.1229
9.1570,-0.2156,1.0269,0.1180
9.1570,-0.2175,1.0257,0.1163
9.1760,-0.2175,1.0257,0.1163
9.1770,-0.2175,1.0257,0.1163
9.1770,-0.2175,1.0257,0.1163
9.1780,-0.2187,1.0257,0.1146
9.2040,-0.2187,1.0257,0.1146
9.2040,-0.2187,1.0257,0.1146
9.2050,-0.2187,1.0257,0.1146
9.2060,-0.2158,1.0313,0.1212
9.2060,-0.2158,1.0313,0.1212
9.2380,-0.2158,1.0313,0.1212
9.2390,-0.2158,1.0313,0.1212
9.2400,-0.2158,1.0313,0.1212
9.2410,-0.2124,1.0352,0.1254
9.2420,-0.2082,1.0325,0.1241
9.2430,-0.2082,1.0325,0.1241
9.2440,-0.2082,1.0325,0.1241
9.2550,-0.2082,1.0325,0.1241
9.2570,-0.2082,1.0325,0.1241
9.2580,-0.2082,1.0325,0.1241
9.2590,-0.2087,1.0303,0.1232
9.2860,-0.2087,1.0303,0.1232
9.2870,-0.2087,1.0303,0.1232
9.2880,-0.2087,1.0303,0.1232
9.2920,-0.2129,1.0279,0.1237
9.2930,-0.2129,1.0279,0.1237
9.3160,-0.2129,1.0279,0.1237
9.3180,-0.2129,1.0279,0.1237
9.3190,-0.2129,1.0279,0.1237
9.3200,-0.2134,1.0264,0.1261
9.3210,-0.2112,1.0262,0.1161
9.3370,-0.2112,1.0262,0.1161
9.3380,-0.2112,1.0262,0.1161
9.3390,-0.2112,1.0262,0.1161
9.3400,-0.2119,1.0299,0.1166
9.3660,-0.2119,1.0299,0.1166
9.3670,-0.2119,1.0299,0.1166
9.4000,-0.2119,1.0299,0.1166
9.4010,-0.2146,1.0323,0.1161
9.4010,-0.2146,1.0323,0.1161
9.4010,-0.2146,1.0323,0.1161
9.4020,-0.2146,1.0323,0.1161
9.4020,-0.2146,1.0323,0.1161
9.4030,-0.2170,1.0308,0.1200
9.4030,-0.2178,1.0289,0.1215
9.4120,-0.2178,1.0289,0.1215
9.4130,-0.2178,1.0289,0.1215
9.4130,-0.2178,1.0289,0.1215
9.4130,-0.2192,1.0279,0.1234
9.4340,-0.2192,1.0279,0.1234
9.4450,-0.2192,1.0279,0.1234
9.4460,-0.2192,1.0279,0.1234
9.4460,-0.2192,1.0279,0.1234
9.4470,-0.2151,1.0242,0.1251
9.4480,-0.2151,1.0242,0.1251
9.4730,-0.2151,1.0242,0.1251
9.4730,-0.2151,1.0242,0.1251
9.4740,-0.2151,1.0242,0.1251
9.4750,-0.2107,1.0306,0.1234
9.4750,-0.2107,1.0340,0.1229
9.4940,-0.2107,1.0340,0.1229
9.4940,-0.2107,1.0340,0.1229
9.4950,-0.2107,1.0340,0.1229
9.4960,-0.2116,1.0328,0.1205
9.5250,-0.2116,1.0328,0.1205
9.5260,-0.2116,1.0328,0.1205
9.5260,-0.2116,1.0328,0.1205
9.5270,-0.2107,1.0335,0.1166
9.5270,-0.2107,1.0335,0.1166
9.5550,-0.2107,1.0335,0.1166
9.5570,-0.2107,1.0335,0.1166
9.5570,-0.2107,1.0335,0.1166
9.5580,-0.2143,1.0316,0.1156
9.5590,-0.2173,1.0274,0.1171
9.5740,-0.2173,1.0274,0.1171
9.5750,-0.2173,1.0274,0.1171
9.5760,-0.2173,1.0274,0.1171
9.5760,-0.2192,1.0228,0.1171
9.6040,-0.2192,1.0228,0.1171
9.6050,-0.2192,1.0228,0.1171
9.6060,-0.2192,1.0228,0.1171
9.6060,-0.2180,1.0284,0.1176
9.6070,-0.2180,1.0284,0.1176
9.6360,-0.2180,1.0284,0.1176
9.6370,-0.2180,1.0284,0.1176
9.6390,-0.2180,1.0284,0.1176
9.6400,-0.2124,1.0377,0.1241
9.6410,-0.2107,1.0413,0.1222
9.6410,-0.2107,1.0413,0.1222
9.6550,-0.2107,1.0413,0.1222
9.6550,-0.2107,1.0413,0.1222
9.6560,-0.2107,1.0413,0.1222
9.6570,-0.2156,1.0333,0.1129
9.6860,-0.2156,1.0333,0.1129
9.6870,-0.2156,1.0333,0.1129
9.6880,-0.2156,1.0333,0.1129
9.6890,-0.2207,1.0247,0.1112
9.6910,-0.2207,1.0247,0.1112
9.7150,-0.2207,1.0247,0.1112
9.7170,-0.2207,1.0247,0.1112
9.7180,-0.2207,1.0247,0.1112
9.7190,-0.2175,1.0230,0.1146
9.7200,-0.2112,1.0208,0.1139
9.7350,-0.2112,1.0208,0.1139
9.7370,-0.2112,1.0208,0.1139
9.7380,-0.2112,1.0208,0.1139
9.7390,-0.2131,1.0201,0.1195
9.7670,-0.2131,1.0201,0.1195
9.7680,-0.2131,1.0201,0.1195
9.7720,-0.2131,1.0201,0.1195
9.7730,-0.2124,1.0176,0.1263
9.7750,-0.2124,1.0176,0.1263
9.7930,-0.2124,1.0176,0.1263
9.7940,-0.2124,1.0176,0.1263
9.7950,-0.2124,1.0176,0.1263
9.7960,-0.2112,1.0242,0.1266
9.7970,-0.2094,1.0382,0.1222
9.8170,-0.2094,1.0382,0.1222
9.8180,-0.2094,1.0382,0.1222
9.8190,-0.2094,1.0382,0.1222
9.8200,-0.2070,1.0387,0.1122
9.8350,-0.2070,1.0387,0.1122
9.8470,-0.2070,1.0387,0.1122
9.8480,-0.2070,1.0387,0.1122
9.8510,-0.2070,1.0387,0.1122
9.8520,-0.2131,1.0384,0.1107
9.8540,-0.2131,1.0384,0.1107
9.8790,-0.2131,1.0384,0.1107
9.8800,-0.2131,1.0384,0.1107
9.8800,-0.2131,1.0384,0.1107
9.8810,-0.2204,1.0355,0.1095
9.8810,-0.2256,1.0264,0.1134
9.8940,-0.2256,1.0264,0.1134
9.8950,-0.2256,1.0264,0.1134
9.8960,-0.2256,1.0264,0.1134
9.8970,-0.2256,1.0201,0.1168
9.9260,-0.2256,1.0201,0.1168
9.9500,-0.2256,1.0201,0.1168
9.9510,-0.2256,1.0201,0.1168
9.9520,-0.2234,1.0167,0.1180
9.9530,-0.2234,1.0167,0.1180
9.9530,-0.2234,1.0167,0.1180
9.9540,-0.2234,1.0167,0.1180
9.9540,-0.2234,1.0167,0.1180
9.9540,-0.2217,1.0196,0.1224
9.9550,-0.2192,1.0281,0.1217
9.9710,-0.2192,1.0281,0.1217
9.9720,-0.2192,1.0281,0.1217
9.9720,-0.2192,1.0281,0.1217
9.9730,-0.2131,1.0330,0.1166
10.0020,-0.2131,1.0330,0.1166
10.0020,-0.2131,1.0330,0.1166
10.0030,-0.2131,1.0330,0.1166
10.0030,-0.2148,1.0313,0.1144
10.0030,-0.2148,1.0313,0.1144
10.0330,-0.2148,1.0313,0.1144
10.0360,-0.2148,1.0313,0.1144
10.0370,-0.2148,1.0313,0.1144
10.0380,-0.2148,1.0313,0.1144
10.0390,-0.2180,1.0233,0.1119
10.0400,-0.2197,1.0184,0.1127
10.0530,-0.2197,1.0184,0.1127
10.0540,-0.2197,1.0184,0.1127
10.0550,-0.2197,1.0184,0.1127
10.0560,-0.2231,1.0193,0.1163
10.0840,-0.2231,1.0193,0.1163
10.0850,-0.2231,1.0193,0.1163
10.0860,-0.2231,1.0193,0.1163
10.0870,-0.2229,1.0264,0.1185
10.0870,-0.2229,1.0264,0.1185
10.1180,-0.2229,1.0264,0.1185
10.1190,-0.2229,1.0264,0.1185
10.1200,-0.2229,1.0264,0.1185
10.1210,-0.2231,1.0362,0.1285
10.1220,-0.2182,1.0411,0.1310
10.1370,-0.2182,1.0411,0.1310
10.1380,-0.2182,1.0411,0.1310
10.1390,-0.2182,1.0411,0.1310
10.1400,-0.2178,1.0340,0.1259
10.1650,-0.2178,1.0340,0.1259
10.1660,-0.2178,1.0340,0.1259
10.1670,-0.2178,1.0340,0.1259
10.1680,-0.2209,1.0189,0.1180
10.1700,-0.2209,1.0189,0.1180
10.1950,-0.2209,1.0189,0.1180
10.1970,-0.2209,1.0189,0.1180
10.1980,-0.2209,1.0189,0.1180
10.1990,-0.2263,1.0196,0.1210
10.2000,-0.2292,1.0274,0.1224
10.2170,-0.2292,1.0274,0.1224
10.2180,-0.2292,1.0274,0.1224
10.2190,-0.2292,1.0274,0.1224
10.2200,-0.2339,1.0313,0.1185
10.2370,-0.2339,1.0313,0.1185
10.2410,-0.2339,1.0313,0.1185
10.2470,-0.2339,1.0313,0.1185
10.2480,-0.2339,1.0313,0.1185
10.2490,-0.2339,1.0313,0.1185
10.2500,-0.2378,1.0299,0.1110
10.2510,-0.2378,1.0299,0.1110
10.2740,-0.2378,1.0299,0.1110
10.2740,-0.2378,1.0299,0.1110
10.2750,-0.2378,1.0299,0.1110
10.2750,-0.2385,1.0269,0.1176
10.2760,-0.2302,1.0247,0.1254
10.2950,-0.2302,1.0247,0.1254
10.2950,-0.2302,1.0247,0.1254
10.2960,-0.2302,1.0247,0.1254
10.2960,-0.2224,1.0235,0.1254
10.3280,-0.2224,1.0235,0.1254
10.3300,-0.2224,1.0235,0.1254
10.3330,-0.2224,1.0235,0.1254
10.3350,-0.2141,1.0259,0.1273
10.3360,-0.2141,1.0259,0.1273
10.3550,-0.2141,1.0259,0.1273
10.3560,-0.2141,1.0259,0.1273
10.3570,-0.2141,1.0259,0.1273
10.3580,-0.2126,1.0257,0.1285
10.3590,-0.2126,1.0213,0.1268
10.3750,-0.2126,1.0213,0.1268
10.3770,-0.2126,1.0213,0.1268
10.3780,-0.2126,1.0213,0.1268
10.3800,-0.2102,1.0211,0.1232
10.4040,-0.2102,1.0211,0.1232
10.4060,-0.2102,1.0211,0.1232
10.4070,-0.2102,1.0211,0.1232
10.4070,-0.2112,1.0242,0.1234
10.4080,-0.2112,1.0242,0.1234
10.4370,-0.2112,1.0242,0.1234
10.4390,-0.2112,1.0242,0.1234
10.4400,-0.2112,1.0242,0.1234
10.4410,-0.2112,1.0242,0.1234
10.4420,-0.2168,1.0360,0.1278
10.4430,-0.2178,1.0369,0.1254
10.4570,-0.2178,1.0369,0.1254
10.4580,-0.2178,1.0369,0.1254
10.4590,-0.2178,1.0369,0.1254
10.4820,-0.2197,1.0269,0.1188
10.4850,-0.2197,1.0269,0.1188
10.4850,-0.2197,1.0269,0.1188
10.4860,-0.2197,1.0269,0.1188
10.4870,-0.2197,1.0196,0.1202
10.4870,-0.2197,1.0196,0.1202
10.5130,-0.2197,1.0196,0.1202
10.5140,-0.2197,1.0196,0.1202
10.5150,-0.2197,1.0196,0.1202
10.5150,-0.2160,1.0211,0.1210
10.5160,-0.2168,1.0255,0.1268
10.5340,-0.2168,1.0255,0.1268
10.5350,-0.2168,1.0255,0.1268
10.5360,-0.2168,1.0255,0.1268
10.5370,-0.2226,1.0281,0.1241
10.5650,-0.2226,1.0281,0.1241
10.5660,-0.2226,1.0281,0.1241
10.5670,-0.2226,1.0281,0.1241
10.5680,-0.2329,1.0269,0.1222
10.5690,-0.2329,1.0269,0.1222
10.5990,-0.2329,1.0269,0.1222
10.6000,-0.2329,1.0269,0.1222
10.6010,-0.2329,1.0269,0.1222
10.6020,-0.2385,1.0294,0.1215
10.6030,-0.2353,1.0303,0.1158
10.6170,-0.2353,1.0303,0.1158
10.6180,-0.2353,1.0303,0.1158
10.6190,-0.2353,1.0303,0.1158
10.6200,-0.2341,1.0311,0.1200
10.6380,-0.2341,1.0311,0.1200
10.6460,-0.2341,1.0311,0.1200
10.6470,-0.2341,1.0311,0.1200
10.6480,-0.2341,1.0311,0.1200
10.6490,-0.2393,1.0272,0.1273
10.6520,-0.2393,1.0272,0.1273
10.6750,-0.2393,1.0272,0.1273
10.6760,-0.2393,1.0272,0.1273
10.6770,-0.2393,1.0272,0.1273
10.6780,-0.2388,1.0235,0.1237
10.6790,-0.2292,1.0218,0.1200
10.6960,-0.2292,1.0218,0.1200
10.6970,-0.2292,1.0218,0.1200
10.6980,-0.2292,1.0218,0.1200
10.6990,-0.2190,1.0252,0.1227
10.7270,-0.2190,1.0252,0.1227
10.7310,-0.2190,1.0252,0.1227
10.7330,-0.2190,1.0252,0.1227
10.7340,-0.2148,1.0233,0.1227
10.7360,-0.2148,1.0233,0.1227
10.7550,-0.2148,1.0233,0.1227
10.7560,-0.2148,1.0233,0.1227
10.7570,-0.2148,1.0233,0.1227
10.7580,-0.2168,1.0235,0.1193
10.7600,-0.2195,1.0257,0.1193
10.7750,-0.2195,1.0257,0.1193
10.7760,-0.2195,1.0257,0.1193
10.7770,-0.2195,1.0257,0.1193
10.7780,-0.2222,1.0289,0.1210
10.8060,-0.2222,1.0289,0.1210
10.8070,-0.2222,1.0289,0.1210
10.8070,-0.2222,1.0289,0.1210
10.8080,-0.2180,1.0274,0.1200
10.8100,-0.2180,1.0274,0.1200
10.8370,-0.2180,1.0274,0.1200
10.8380,-0.2180,1.0274,0.1200
10.8380,-0.2180,1.0274,0.1200
10.8390,-0.2180,1.0274,0.1200
10.8400,-0.2138,1.0223,0.1215
10.8410,-0.2087,1.0240,0.1205
10.8550,-0.2087,1.0240,0.1205
10.8560,-0.2087,1.0240,0.1205
10.8570,-0.2087,1.0240,0.1205
10.8600,-0.2099,1.0267,0.1232
10.8860,-0.2099,1.0267,0.1232
10.8870,-0.2099,1.0267,0.1232
10.8870,-0.2099,1.0267,0.1232
10.8880,-0.2165,1.0321,0.1183
10.8890,-0.2165,1.0321,0.1183
10.9160,-0.2165,1.0321,0.1183
10.9170,-0.2165,1.0321,0.1183
10.9170,-0.2165,1.0321,0.1183
10.9180,-0.2261,1.0328,0.1149
10.9190,-0.2324,1.0269,0.1202
10.9380,-0.2324,1.0269,0.1202
10.9390,-0.2324,1.0269,0.1202
10.9390,-0.2324,1.0269,0.1202
10.9400,-0.2317,1.0213,0.1193
10.9660,-0.2317,1.0213,0.1193
10.9670,-0.2317,1.0213,0.1193
10.9680,-0.2317,1.0213,0.1193
10.9680,-0.2234,1.0225,0.1246
10.9690,-0.2234,1.0225,0.1246
10.9960,-0.2234,1.0225,0.1246
10.9970,-0.2234,1.0225,0.1246
10.9980,-0.2234,1.0225,0.1246
10.9990,-0.2156,1.0306,0.1322
11.0000,-0.2119,1.0296,0.1320
11.0200,-0.2119,1.0296,0.1320
11.0210,-0.2119,1.0296,0.1320
11.0220,-0.2119,1.0296,0.1320
11.0470,-0.2121,1.0247,0.1293
11.0480,-0.2121,1.0247,0.1293
11.0480,-0.2121,1.0247,0.1293
11.0490,-0.2121,1.0247,0.1293
11.0500,-0.2121,1.0247,0.1293
11.0500,-0.2121,1.0247,0.1293
11.0510,-0.2141,1.0277,0.1251
11.0520,-0.2141,1.0277,0.1251
11.0750,-0.2141,1.0277,0.1251
11.0750,-0.2141,1.0277,0.1251
11.0760,-0.2141,1.0277,0.1251
11.0770,-0.2134,1.0311,0.1232
11.0770,-0.2136,1.0274,0.1141
11.0950,-0.2136,1.0274,0.1141
11.0950,-0.2136,1.0274,0.1141
11.0960,-0.2136,1.0274,0.1141
11.0960,-0.2168,1.0242,0.1127
11.1260,-0.2168,1.0242,0.1127
11.1270,-0.2168,1.0242,0.1127
11.1270,-0.2168,1.0242,0.1127
11.1280,-0.2209,1.0277,0.1154
11.1280,-0.2209,1.0277,0.1154
11.1540,-0.2209,1.0277,0.1154
11.1550,-0.2209,1.0277,0.1154
11.1550,-0.2209,1.0277,0.1154
11.1560,-0.2243,1.0333,0.1149
11.1560,-0.2253,1.0328,0.1173
11.1750,-0.2253,1.0328,0.1173
11.1750,-0.2253,1.0328,0.1173
11.1760,-0.2253,1.0328,0.1173
11.1770,-0.2263,1.0211,0.1146
11.2070,-0.2263,1.0211,0.1146
11.2090,-0.2263,1.0211,0.1146
11.2100,-0.2263,1.0211,0.1146
11.2110,-0.2222,1.0193,0.1193
11.2130,-0.2222,1.0193,0.1193
11.2370,-0.2222,1.0193,0.1193
11.2390,-0.2222,1.0193,0.1193
11.2400,-0.2222,1.0193,0.1193
11.2400,-0.2222,1.0193,0.1193
11.2410,-0.2158,1.0230,0.1249
11.2410,-0.2094,1.0269,0.1232
11.2570,-0.2094,1.0269,0.1232
11.2580,-0.2094,1.0269,0.1232
11.2590,-0.2094,1.0269,0.1232
11.2600,-0.2075,1.0306,0.1215
11.2890,-0.2075,1.0306,0.1215
11.2910,-0.2075,1.0306,0.1215
11.2920,-0.2075,1.0306,0.1215
11.2940,-0.2151,1.0316,0.1146
11.2960,-0.2151,1.0316,0.1146
11.3170,-0.2151,1.0316,0.1146
11.3190,-0.2151,1.0316,0.1146
11.3200,-0.2151,1.0316,0.1146
11.3210,-0.2280,1.0340,0.1183
11.3210,-0.2331,1.0355,0.1202
11.3400,-0.2331,1.0355,0.1202
11.3410,-0.2331,1.0355,0.1202
11.3420,-0.2331,1.0355,0.1202
11.3430,-0.2344,1.0321,0.1188
11.3680,-0.2344,1.0321,0.1188
11.3710,-0.2344,1.0321,0.1188
11.3730,-0.2344,1.0321,0.1188
11.3740,-0.2314,1.0296,0.1183
11.3760,-0.2314,1.0296,0.1183
11.3980,-0.2314,1.0296,0.1183
11.4000,-0.2314,1.0296,0.1183
11.4010,-0.2314,1.0296,0.1183
11.4020,-0.2302,1.0242,0.1132
11.4030,-0.2295,1.0174,0.1114
11.4180,-0.2295,1.0174,0.1114
11.4190,-0.2295,1.0174,0.1114
11.4200,-0.2295,1.0174,0.1114
11.4210,-0.2246,1.0174,0.1134
11.4370,-0.2246,1.0174,0.1134
11.4480,-0.2246,1.0174,0.1134
11.4490,-0.2246,1.0174,0.1134
11.4500,-0.2246,1.0174,0.1134
11.4520,-0.2253,1.0237,0.1171
11.4530,-0.2253,1.0237,0.1171
11.4770,-0.2253,1.0237,0.1171
11.4790,-0.2253,1.0237,0.1171
11.4800,-0.2253,1.0237,0.1171
11.4810,-0.2231,1.0286,0.1144
11.4820,-0.2222,1.0345,0.1154
11.4970,-0.2222,1.0345,0.1154
11.4990,-0.2222,1.0345,0.1154
11.5000,-0.2222,1.0345,0.1154
11.5010,-0.2202,1.0345,0.1149
11.5290,-0.2202,1.0345,0.1149
11.5320,-0.2202,1.0345,0.1149
11.5330,-0.2202,1.0345,0.1149
11.5330,-0.2168,1.0325,0.1112
11.5340,-0.2168,1.0325,0.1112
11.5570,-0.2168,1.0325,0.1112
11.5580,-0.2168,1.0325,0.1112
11.5600,-0.2168,1.0325,0.1112
11.5610,-0.2146,1.0355,0.1127
11.5620,-0.2131,1.0311,0.1176
11.5780,-0.2131,1.0311,0.1176
11.6030,-0.2131,1.0311,0.1176
11.6030,-0.2131,1.0311,0.1176
11.6040,-0.2165,1.0272,0.1163
11.6060,-0.2165,1.0272,0.1163
11.6070,-0.2165,1.0272,0.1163
11.6070,-0.2165,1.0272,0.1163
11.6080,-0.2146,1.0189,0.1144
11.6080,-0.2146,1.0189,0.1144
11.6320,-0.2146,1.0189,0.1144
11.6350,-0.2146,1.0189,0.1144
11.6350,-0.2146,1.0189,0.1144
11.6360,-0.2146,1.0189,0.1144
11.6360,-0.2099,1.0225,0.1178
11.6360,-0.2107,1.0291,0.1168
11.6550,-0.2107,1.0291,0.1168
11.6560,-0.2107,1.0291,0.1168
11.6570,-0.2107,1.0291,0.1168
11.6580,-0.2146,1.0284,0.1139
11.6880,-0.2146,1.0284,0.1139
11.6890,-0.2146,1.0284,0.1139
11.6890,-0.2146,1.0284,0.1139
11.6930,-0.2185,1.0289,0.1136
11.6940,-0.2185,1.0289,0.1136
11.7160,-0.2185,1.0289,0.1136
11.7180,-0.2185,1.0289,0.1136
11.7190,-0.2185,1.0289,0.1136
11.7200,-0.2212,1.0328,0.1110
11.7210,-0.2222,1.0330,0.1161
11.7390,-0.2222,1.0330,0.1161
11.7420,-0.2222,1.0330,0.1161
11.7430,-0.2222,1.0330,0.1161
11.7450,-0.2182,1.0291,0.1193
11.7670,-0.2182,1.0291,0.1193
11.7690,-0.2182,1.0291,0.1193
11.7700,-0.2182,1.0291,0.1193
11.7710,-0.2156,1.0255,0.1180
11.7730,-0.2156,1.0255,0.1180
11.7980,-0.2156,1.0255,0.1180
11.7990,-0.2156,1.0255,0.1180
11.8000,-0.2156,1.0255,0.1180
11.8010,-0.2168,1.0259,0.1168
11.8010,-0.2236,1.0291,0.1100
11.8160,-0.2236,1.0291,0.1100
11.8170,-0.2236,1.0291,0.1100
11.8180,-0.2236,1.0291,0.1100
11.8190,-0.2295,1.0330,0.1095
11.8370,-0.2295,1.0330,0.1095
11.8460,-0.2295,1.0330,0.1095
11.8470,-0.2295,1.0330,0.1095
11.8480,-0.2295,1.0330,0.1095
11.8490,-0.2261,1.0284,0.1041
11.8490,-0.2261,1.0284,0.1041
11.8760,-0.2261,1.0284,0.1041
11.8770,-0.2261,1.0284,0.1041
11.8780,-0.2261,1.0284,0.1041
11.8790,-0.2187,1.0274,0.1031
11.8800,-0.2141,1.0294,0.1019
11.8970,-0.2141,1.0294,0.1019
11.8980,-0.2141,1.0294,0.1019
11.9000,-0.2141,1.0294,0.1019
11.9010,-0.2119,1.0267,0.1056
11.9280,-0.2119,1.0267,0.1056
11.9300,-0.2119,1.0267,0.1056
11.9320,-0.2119,1.0267,0.1056
11.9330,-0.2126,1.0318,0.1136
11.9340,-0.2126,1.0318,0.1136
11.9570,-0.2126,1.0318,0.1136
11.9580,-0.2126,1.0318,0.1136
11.9590,-0.2126,1.0318,0.1136
11.9600,-0.2119,1.0335,0.1151
11.9610,-0.2082,1.0306,0.1129
11.9760,-0.2082,1.0306,0.1129
11.9780,-0.2082,1.0306,0.1129
11.9790,-0.2082,1.0306,0.1129
11.9800,-0.2121,1.0360,0.1112
12.0080,-0.2121,1.0360,0.1112
12.0090,-0.2121,1.0360,0.1112
12.0110,-0.2121,1.0360,0.1112
12.0120,-0.2165,1.0328,0.1048
12.0130,-0.2165,1.0328,0.1048
12.0360,-0.2165,1.0328,0.1048
12.0440,-0.2165,1.0328,0.1048
12.0450,-0.2165,1.0328,0.1048
12.0460,-0.2165,1.0328,0.1048
12.0470,-0.2187,1.0299,0.0953
12.0470,-0.2175,1.0247,0.1007
12.0580,-0.2175,1.0247,0.1007
12.0600,-0.2175,1.0247,0.1007
12.0610,-0.2175,1.0247,0.1007
12.0630,-0.2173,1.0186,0.1073
12.0880,-0.2173,1.0186,0.1073
12.0910,-0.2173,1.0186,0.1073
12.0920,-0.2173,1.0186,0.1073
12.0930,-0.2163,1.0269,0.1190
12.0940,-0.2163,1.0269,0.1190
12.1190,-0.2163,1.0269,0.1190
12.1200,-0.2163,1.0269,0.1190
12.1210,-0.2163,1.0269,0.1190
12.1220,-0.2204,1.0367,0.1183
12.1260,-0.2241,1.0277,0.1090
12.1580,-0.2241,1.0277,0.1090
12.1590,-0.2241,1.0277,0.1090
12.1590,-0.2241,1.0277,0.1090
12.1600,-0.2151,1.0374,0.1070
12.1660,-0.2151,1.0374,0.1070
12.1670,-0.2151,1.0374,0.1070
12.1670,-0.2151,1.0374,0.1070
12.1680,-0.2163,1.0445,0.1085
12.1680,-0.2163,1.0445,0.1085
12.1960,-0.2163,1.0445,0.1085
12.1970,-0.2163,1.0445,0.1085
12.1980,-0.2163,1.0445,0.1085
12.1990,-0.2185,1.0404,0.1136
12.2000,-0.2170,1.0279,0.1110
12.2190,-0.2170,1.0279,0.1110
12.2200,-0.2170,1.0279,0.1110
12.2200,-0.2170,1.0279,0.1110
12.2210,-0.2119,1.0189,0.1058
12.2350,-0.2119,1.0189,0.1058
12.2470,-0.2119,1.0189,0.1058
12.2470,-0.2119,1.0189,0.1058
12.2480,-0.2119,1.0189,0.1058
12.2490,-0.2036,1.0203,0.1061
12.2520,-0.2036,1.0203,0.1061
12.2750,-0.2036,1.0203,0.1061
12.2780,-0.2036,1.0203,0.1061
12.2790,-0.2036,1.0203,0.1061
12.2800,-0.2004,1.0303,0.1107
12.2800,-0.2046,1.0394,0.1232
12.2970,-0.2046,1.0394,0.1232
12.2980,-0.2046,1.0394,0.1232
12.2980,-0.2046,1.0394,0.1232
12.2990,-0.2124,1.0347,0.1259
12.3270,-0.2124,1.0347,0.1259
12.3270,-0.2124,1.0347,0.1259
12.3280,-0.2124,1.0347,0.1259
12.3280,-0.2195,1.0377,0.1222
12.3290,-0.2195,1.0377,0.1222
12.3580,-0.2195,1.0377,0.1222
12.3590,-0.2195,1.0377,0.1222
12.3600,-0.2195,1.0377,0.1222
12.3600,-0.2170,1.0318,0.1176
12.3610,-0.2121,1.0247,0.1161
12.3770,-0.2121,1.0247,0.1161
12.3780,-0.2121,1.0247,0.1161
12.3790,-0.2121,1.0247,0.1161
12.3790,-0.2131,1.0321,0.1215
12.4090,-0.2131,1.0321,0.1215
12.4110,-0.2131,1.0321,0.1215
12.4120,-0.2131,1.0321,0.1215
12.4130,-0.2173,1.0340,0.1215
12.4160,-0.2173,1.0340,0.1215
12.4360,-0.2173,1.0340,0.1215
12.4400,-0.2173,1.0340,0.1215
12.4410,-0.2173,1.0340,0.1215
12.4420,-0.2173,1.0340,0.1215
12.4430,-0.2165,1.0294,0.1210
12.4440,-0.2146,1.0286,0.1185
12.4570,-0.2146,1.0286,0.1185
12.4580,-0.2146,1.0286,0.1185
12.4590,-0.2146,1.0286,0.1185
12.4600,-0.2156,1.0301,0.1161
12.4860,-0.2156,1.0301,0.1161
12.4870,-0.2156,1.0301,0.1161
12.4880,-0.2156,1.0301,0.1161
12.4910,-0.2141,1.0303,0.1122
12.4920,-0.2141,1.0303,0.1122
12.5200,-0.2141,1.0303,0.1122
12.5220,-0.2141,1.0303,0.1122
12.5230,-0.2141,1.0303,0.1122
12.5240,-0.2077,1.0321,0.1200
12.5250,-0.2011,1.0257,0.1234
12.5370,-0.2011,1.0257,0.1234
12.5380,-0.2011,1.0257,0.1234
12.5390,-0.2011,1.0257,0.1234
12.5400,-0.2043,1.0186,0.1315
12.5680,-0.2043,1.0186,0.1315
12.5690,-0.2043,1.0186,0.1315
12.5700,-0.2043,1.0186,0.1315
12.5730,-0.2121,1.0220,0.1366
12.5760,-0.2121,1.0220,0.1366
12.5980,-0.2121,1.0220,0.1366
12.5990,-0.2121,1.0220,0.1366
12.6000,-0.2121,1.0220,0.1366
12.6010,-0.2153,1.0301,0.1347
12.6020,-0.2129,1.0350,0.1249
12.6180,-0.2129,1.0350,0.1249
12.6190,-0.2129,1.0350,0.1249
12.6200,-0.2129,1.0350,0.1249
12.6230,-0.2065,1.0387,0.1146
12.6360,-0.2065,1.0387,0.1146
12.6480,-0.2065,1.0387,0.1146
12.6490,-0.2065,1.0387,0.1146
12.6500,-0.2065,1.0387,0.1146
12.6510,-0.2002,1.0333,0.1088
12.6520,-0.2002,1.0333,0.1088
12.6790,-0.2002,1.0333,0.1088
12.6800,-0.2002,1.0333,0.1088
12.6810,-0.2002,1.0333,0.1088
12.6820,-0.1970,1.0213,0.1058
12.7100,-0.1916,1.0235,0.1075
12.7110,-0.1916,1.0235,0.1075
12.7120,-0.1916,1.0235,0.1075
12.7120,-0.1916,1.0235,0.1075
12.7120,-0.1972,1.0560,0.1244
12.7260,-0.1972,1.0560,0.1244
12.7270,-0.1972,1.0560,0.1244
12.7270,-0.1972,1.0560,0.1244
12.7280,-0.2173,1.0421,0.1178
12.7280,-0.2173,1.0421,0.1178
12.7570,-0.2173,1.0421,0.1178
12.7580,-0.2173,1.0421,0.1178
12.7590,-0.2173,1.0421,0.1178
12.7600,-0.2102,1.0404,0.1185
12.7610,-0.2048,1.0418,0.1207
12.7780,-0.2048,1.0418,0.1207
12.7790,-0.2048,1.0418,0.1207
12.7800,-0.2048,1.0418,0.1207
12.7820,-0.2033,1.0176,0.1168
12.8070,-0.2033,1.0176,0.1168
12.8080,-0.2033,1.0176,0.1168
12.8090,-0.2033,1.0176,0.1168
12.8100,-0.1950,1.0086,0.1122
12.8110,-0.1950,1.0086,0.1122
12.8380,-0.1950,1.0086,0.1122
12.8410,-0.1950,1.0086,0.1122
12.8430,-0.1950,1.0086,0.1122
12.8440,-0.1950,1.0086,0.1122
12.8440,-0.1972,1.0025,0.1092
12.8460,-0.1967,1.0132,0.1163
12.8560,-0.1967,1.0132,0.1163
12.8570,-0.1967,1.0132,0.1163
12.8580,-0.1967,1.0132,0.1163
12.8590,-0.1992,1.0374,0.1158
12.8870,-0.1992,1.0374,0.1158
12.8880,-0.1992,1.0374,0.1158
12.8890,-0.1992,1.0374,0.1158
12.8900,-0.2070,1.0523,0.1146
12.8920,-0.2070,1.0523,0.1146
12.9180,-0.2070,1.0523,0.1146
12.9190,-0.2070,1.0523,0.1146
12.9200,-0.2070,1.0523,0.1146
12.9200,-0.2124,1.0526,0.1141
12.9210,-0.2136,1.0379,0.1105
12.9370,-0.2136,1.0379,0.1105
12.9380,-0.2136,1.0379,0.1105
12.9390,-0.2136,1.0379,0.1105
12.9400,-0.2087,1.0277,0.1156
12.9730,-0.2087,1.0277,0.1156
12.9740,-0.2087,1.0277,0.1156
12.9770,-0.2087,1.0277,0.1156
12.9780,-0.2028,1.0181,0.1136
12.9790,-0.2028,1.0181,0.1136
12.9970,-0.2028,1.0181,0.1136
12.9980,-0.2028,1.0181,0.1136
12.9990,-0.2028,1.0181,0.1136
13.0000,-0.1994,1.0147,0.1139
13.0010,-0.2006,1.0145,0.1110
13.0180,-0.2006,1.0145,0.1110
13.0190,-0.2006,1.0145,0.1110
13.0190,-0.2006,1.0145,0.1110
13.0200,-0.1997,1.0206,0.1158
13.0350,-0.1997,1.0206,0.1158
13.0470,-0.1997,1.0206,0.1158
13.0480,-0.1997,1.0206,0.1158
13.0490,-0.1997,1.0206,0.1158
13.0510,-0.2019,1.0338,0.1241
13.0540,-0.2019,1.0338,0.1241
13.0770,-0.2019,1.0338,0.1241
13.0780,-0.2019,1.0338,0.1241
13.0780,-0.2019,1.0338,0.1241
13.0790,-0.2048,1.0413,0.1246
13.0800,-0.2058,1.0409,0.1180
13.0960,-0.2058,1.0409,0.1180
13.0970,-0.2058,1.0409,0.1180
13.0980,-0.2058,1.0409,0.1180
13.0990,-0.2041,1.0387,0.1188
13.1270,-0.2041,1.0387,0.1188
13.1280,-0.2041,1.0387,0.1188
13.1290,-0.2041,1.0387,0.1188
13.1300,-0.2033,1.0289,0.1127
13.1310,-0.2033,1.0289,0.1127
13.1580,-0.2033,1.0289,0.1127
13.1590,-0.2033,1.0289,0.1127
13.1600,-0.2033,1.0289,0.1127
13.1600,-0.2038,1.0228,0.1136
13.1610,-0.2043,1.0240,0.1168
13.1800,-0.2043,1.0240,0.1168
13.1810,-0.2043,1.0240,0.1168
13.1810,-0.2043,1.0240,0.1168
13.1820,-0.2053,1.0242,0.1168
13.2100,-0.2053,1.0242,0.1168
13.2120,-0.2053,1.0242,0.1168
13.2130,-0.2053,1.0242,0.1168
13.2140,-0.2063,1.0330,0.1134
13.2150,-0.2063,1.0330,0.1134
13.2350,-0.2063,1.0330,0.1134
13.2380,-0.2063,1.0330,0.1134
13.2390,-0.2063,1.0330,0.1134
13.2400,-0.2063,1.0330,0.1134
13.2620,-0.2060,1.0438,0.1078
13.2630,-0.2068,1.0423,0.1166
13.2640,-0.2068,1.0423,0.1166
13.2640,-0.2068,1.0423,0.1166
13.2650,-0.2068,1.0423,0.1166
13.2650,-0.2097,1.0321,0.1166
13.2850,-0.2097,1.0321,0.1166
13.2850,-0.2097,1.0321,0.1166
13.2860,-0.2097,1.0321,0.1166
13.2860,-0.2112,1.0262,0.1127
13.2880,-0.2112,1.0262,0.1127
13.3160,-0.2112,1.0262,0.1127
13.3160,-0.2112,1.0262,0.1127
13.3170,-0.2112,1.0262,0.1127
13.3180,-0.2109,1.0225,0.1156
13.3180,-0.2109,1.0211,0.1132
13.3370,-0.2109,1.0211,0.1132
13.3380,-0.2109,1.0211,0.1132
13.3390,-0.2109,1.0211,0.1132
13.3400,-0.2090,1.0252,0.1097
13.3670,-0.2090,1.0252,0.1097
13.3670,-0.2090,1.0252,0.1097
13.3680,-0.2090,1.0252,0.1097
13.3690,-0.2136,1.0313,0.1114
13.3710,-0.2136,1.0313,0.1114
13.3970,-0.2136,1.0313,0.1114
13.3980,-0.2136,1.0313,0.1114
13.3990,-0.2136,1.0313,0.1114
13.4000,-0.2170,1.0365,0.1129
13.4010,-0.2200,1.0338,0.1122
13.4170,-0.2200,1.0338,0.1122
13.4180,-0.2200,1.0338,0.1122
13.4180,-0.2200,1.0338,0.1122
13.4200,-0.2200,1.0233,0.1073
13.4370,-0.2200,1.0233,0.1073
13.4530,-0.2200,1.0233,0.1073
13.4550,-0.2200,1.0233,0.1073
13.4560,-0.2200,1.0233,0.1073
13.4570,-0.2224,1.0299,0.1097
13.4590,-0.2224,1.0299,0.1097
13.4790,-0.2224,1.0299,0.1097
13.4800,-0.2224,1.0299,0.1097
13.4810,-0.2224,1.0299,0.1097
13.4820,-0.2207,1.0340,0.1158
13.4830,-0.2080,1.0360,0.1188
13.4970,-0.2080,1.0360,0.1188
13.4980,-0.2080,1.0360,0.1188
13.4990,-0.2080,1.0360,0.1188
13.5000,-0.1967,1.0362,0.1166
13.5300,-0.1967,1.0362,0.1166
13.5310,-0.1967,1.0362,0.1166
13.5330,-0.1967,1.0362,0.1166
13.5340,-0.1928,1.0330,0.1112
13.5340,-0.1928,1.0330,0.1112
13.5610,-0.1928,1.0330,0.1112
13.5620,-0.1928,1.0330,0.1112
13.5630,-0.1928,1.0330,0.1112
13.5640,-0.1928,1.0321,0.1129
13.5650,-0.2014,1.0277,0.1144
13.5810,-0.2014,1.0277,0.1144
13.5820,-0.2014,1.0277,0.1144
13.5830,-0.2014,1.0277,0.1144
13.5840,-0.2112,1.0306,0.1154
13.6080,-0.2112,1.0306,0.1154
13.6090,-0.2112,1.0306,0.1154
13.6110,-0.2112,1.0306,0.1154
13.6130,-0.2112,1.0316,0.1090
13.6150,-0.2112,1.0316,0.1090
13.6360,-0.2112,1.0316,0.1090
13.6370,-0.2112,1.0316,0.1090
13.6380,-0.2112,1.0316,0.1090
13.6400,-0.2112,1.0316,0.1090
13.6410,-0.2109,1.0284,0.0960
13.6420,-0.2092,1.0245,0.0948
13.6600,-0.2092,1.0245,0.0948
13.6610,-0.2092,1.0245,0.0948
13.6610,-0.2092,1.0245,0.0948
13.6620,-0.2097,1.0257,0.0978
13.6900,-0.2097,1.0257,0.0978
13.6920,-0.2097,1.0257,0.0978
13.6930,-0.2097,1.0257,0.0978
13.6950,-0.2124,1.0274,0.1034
13.6960,-0.2124,1.0274,0.1034
13.7170,-0.2124,1.0274,0.1034
13.7190,-0.2124,1.0274,0.1034
13.7200,-0.2124,1.0274,0.1034
13.7200,-0.2099,1.0303,0.1146
13.7210,-0.2046,1.0296,0.1163
13.7410,-0.2046,1.0296,0.1163
13.7420,-0.2046,1.0296,0.1163
13.7430,-0.2046,1.0296,0.1163
13.7440,-0.1992,1.0333,0.1151
13.7730,-0.1992,1.0333,0.1151
13.7750,-0.1992,1.0333,0.1151
13.7760,-0.1992,1.0333,0.1151
13.7770,-0.1972,1.0313,0.1168
13.7780,-0.1972,1.0313,0.1168
13.7980,-0.1972,1.0313,0.1168
13.7990,-0.1972,1.0313,0.1168
13.8000,-0.1972,1.0313,0.1168
13.8230,-0.2082,1.0350,0.1144
13.8240,-0.2097,1.0250,0.1073
13.8240,-0.2097,1.0250,0.1073
13.8240,-0.2097,1.0250,0.1073
13.8250,-0.2097,1.0250,0.1073
13.8250,-0.2050,1.0242,0.1019
13.8340,-0.2050,1.0242,0.1019
13.8500,-0.2050,1.0242,0.1019
13.8500,-0.2050,1.0242,0.1019
13.8510,-0.2050,1.0242,0.1019
13.8510,-0.2070,1.0308,0.1009
13.8530,-0.2070,1.0308,0.1009
13.8780,-0.2070,1.0308,0.1009
13.8790,-0.2070,1.0308,0.1009
13.8800,-0.2070,1.0308,0.1009
13.8810,-0.2099,1.0311,0.0982
13.8820,-0.2065,1.0323,0.0990
13.8990,-0.2065,1.0323,0.0990
13.9000,-0.2065,1.0323,0.0990
13.9010,-0.2065,1.0323,0.0990
13.9020,-0.2024,1.0340,0.1053
13.9330,-0.2024,1.0340,0.1053
13.9340,-0.2024,1.0340,0.1053
13.9370,-0.2024,1.0340,0.1053
13.9380,-0.2031,1.0347,0.1107
13.9390,-0.2031,1.0347,0.1107
13.9610,-0.2031,1.0347,0.1107
13.9620,-0.2031,1.0347,0.1107
13.9630,-0.2031,1.0347,0.1107
13.9630,-0.2058,1.0330,0.1066
13.9640,-0.2080,1.0316,0.1075
13.9810,-0.2080,1.0316,0.1075
13.9810,-0.2080,1.0316,0.1075
13.9820,-0.2080,1.0316,0.1075
13.9830,-0.2092,1.0289,0.1061
14.0120,-0.2092,1.0289,0.1061
14.0140,-0.2092,1.0289,0.1061
14.0150,-0.2092,1.0289,0.1061
14.0160,-0.2109,1.0286,0.1019
14.0170,-0.2109,1.0286,0.1019
14.0340,-0.2109,1.0286,0.1019
14.0380,-0.2109,1.0286,0.1019
14.0390,-0.2109,1.0286,0.1019
14.0400,-0.2109,1.0286,0.1019
14.0410,-0.2131,1.0308,0.1009
14.0420,-0.2146,1.0321,0.1029
14.0590,-0.2146,1.0321,0.1029
14.0600,-0.2146,1.0321,0.1029
14.0600,-0.2146,1.0321,0.1029
14.0610,-0.2185,1.0360,0.1063
14.0920,-0.2185,1.0360,0.1063
14.0930,-0.2185,1.0360,0.1063
14.0950,-0.2185,1.0360,0.1063
14.0960,-0.2204,1.0345,0.1075
14.0960,-0.2204,1.0345,0.1075
14.1170,-0.2204,1.0345,0.1075
14.1180,-0.2204,1.0345,0.1075
14.1190,-0.2204,1.0345,0.1075
14.1190,-0.2204,1.0338,0.1068
14.1200,-0.2163,1.0333,0.1031
14.1390,-0.2163,1.0333,0.1031
14.1400,-0.2163,1.0333,0.1031
14.1410,-0.2163,1.0333,0.1031
14.1420,-0.2136,1.0316,0.1000
14.1730,-0.2136,1.0316,0.1000
14.1740,-0.2136,1.0316,0.1000
14.1750,-0.2136,1.0316,0.1000
14.1770,-0.2109,1.0291,0.0997
14.1780,-0.2109,1.0291,0.0997
14.1980,-0.2109,1.0291,0.0997
14.1980,-0.2109,1.0291,0.0997
14.2000,-0.2109,1.0291,0.0997
14.2010,-0.2124,1.0294,0.1009
14.2020,-0.2129,1.0237,0.1009
14.2200,-0.2129,1.0237,0.1009
14.2200,-0.2129,1.0237,0.1009
14.2210,-0.2129,1.0237,0.1009
14.2220,-0.2146,1.0252,0.1019
14.2350,-0.2146,1.0252,0.1019
14.2550,-0.2146,1.0252,0.1019
14.2560,-0.2146,1.0252,0.1019
14.2570,-0.2146,1.0252,0.1019
14.2580,-0.2160,1.0333,0.1078
14.2590,-0.2160,1.0333,0.1078
14.2800,-0.2160,1.0333,0.1078
14.2810,-0.2160,1.0333,0.1078
14.2830,-0.2160,1.0333,0.1078
14.2840,-0.2148,1.0357,0.1058
14.2840,-0.2119,1.0311,0.0965
14.3000,-0.2119,1.0311,0.0965
14.3010,-0.2119,1.0311,0.0965
14.3010,-0.2119,1.0311,0.0965
14.3020,-0.2087,1.0252,0.0985
14.3340,-0.2087,1.0252,0.0985
14.3350,-0.2087,1.0252,0.0985
14.3360,-0.2087,1.0252,0.0985
14.3390,-0.2102,1.0274,0.0992
14.3400,-0.2102,1.0274,0.0992
14.3630,-0.2102,1.0274,0.0992
14.3640,-0.2102,1.0274,0.0992
14.3870,-0.2102,1.0274,0.0992
14.3870,-0.2107,1.0277,0.1009
14.3880,-0.2131,1.0242,0.1044
14.3880,-0.2131,1.0242,0.1044
14.3880,-0.2131,1.0242,0.1044
14.3890,-0.2131,1.0242,0.1044
14.3890,-0.2182,1.0284,0.1036
14.4060,-0.2182,1.0284,0.1036
14.4070,-0.2182,1.0284,0.1036
14.4070,-0.2182,1.0284,0.1036
14.4070,-0.2178,1.0340,0.1063
14.4080,-0.2178,1.0340,0.1063
14.4330,-0.2178,1.0340,0.1063
14.4380,-0.2178,1.0340,0.1063
14.4380,-0.2178,1.0340,0.1063
14.4390,-0.2178,1.0340,0.1063
14.4390,-0.2116,1.0291,0.1056
14.4390,-0.2097,1.0296,0.1034
14.4590,-0.2097,1.0296,0.1034
14.4600,-0.2097,1.0296,0.1034
14.4600,-0.2097,1.0296,0.1034
14.4600,-0.2114,1.0316,0.1014
14.4890,-0.2114,1.0316,0.1014
14.4910,-0.2114,1.0316,0.1014
14.4910,-0.2114,1.0316,0.1014
14.4930,-0.2151,1.0291,0.1019
14.4940,-0.2151,1.0291,0.1019
14.5200,-0.2151,1.0291,0.1019
14.5210,-0.2151,1.0291,0.1019
14.5220,-0.2151,1.0291,0.1019
14.5230,-0.2143,1.0289,0.1046
14.5240,-0.2136,1.0296,0.1078
14.5400,-0.2136,1.0296,0.1078
14.5400,-0.2136,1.0296,0.1078
14.5410,-0.2136,1.0296,0.1078
14.5420,-0.2153,1.0303,0.1068
14.5710,-0.2153,1.0303,0.1068
14.5740,-0.2153,1.0303,0.1068
14.5750,-0.2153,1.0303,0.1068
14.5760,-0.2165,1.0264,0.1112
14.5770,-0.2165,1.0264,0.1112
14.6010,-0.2165,1.0264,0.1112
14.6020,-0.2165,1.0264,0.1112
14.6030,-0.2165,1.0264,0.1112
14.6040,-0.2200,1.0269,0.1102
14.6050,-0.2168,1.0274,0.1053
14.6210,-0.2168,1.0274,0.1053
14.6220,-0.2168,1.0274,0.1053
14.6230,-0.2168,1.0274,0.1053
14.6240,-0.2124,1.0333,0.1024
14.6350,-0.2124,1.0333,0.1024
14.6530,-0.2124,1.0333,0.1024
14.6540,-0.2124,1.0333,0.1024
14.6550,-0.2124,1.0333,0.1024
14.6560,-0.2116,1.0369,0.1088
14.6570,-0.2116,1.0369,0.1088
14.6790,-0.2116,1.0369,0.1088
14.6800,-0.2116,1.0369,0.1088
14.6820,-0.2116,1.0369,0.1088
14.6830,-0.2099,1.0360,0.1078
14.6840,-0.2109,1.0316,0.1078
14.7010,-0.2109,1.0316,0.1078
14.7020,-0.2109,1.0316,0.1078
14.7020,-0.2109,1.0316,0.1078
14.7030,-0.2112,1.0308,0.1083
14.7310,-0.2112,1.0308,0.1083
14.7320,-0.2112,1.0308,0.1083
14.7340,-0.2112,1.0308,0.1083
14.7350,-0.2136,1.0296,0.1085
14.7360,-0.2136,1.0296,0.1085
14.7620,-0.2136,1.0296,0.1085
14.7630,-0.2136,1.0296,0.1085
14.7640,-0.2136,1.0296,0.1085
14.7650,-0.2131,1.0259,0.1110
14.7660,-0.2121,1.0245,0.1092
14.7810,-0.2121,1.0245,0.1092
14.7820,-0.2121,1.0245,0.1092
14.7830,-0.2121,1.0245,0.1092
14.7840,-0.2141,1.0274,0.1080
14.8120,-0.2141,1.0274,0.1080
14.8130,-0.2141,1.0274,0.1080
14.8140,-0.2141,1.0274,0.1080
14.8140,-0.2138,1.0328,0.1107
14.8150,-0.2138,1.0328,0.1107
14.8340,-0.2138,1.0328,0.1107
14.8360,-0.2138,1.0328,0.1107
14.8370,-0.2138,1.0328,0.1107
14.8370,-0.2138,1.0328,0.1107
14.8390,-0.2146,1.0347,0.1083
14.8390,-0.2165,1.0325,0.1078
14.8650,-0.2165,1.0325,0.1078
14.8660,-0.2165,1.0325,0.1078
14.8670,-0.2165,1.0325,0.1078
14.8680,-0.2202,1.0299,0.1080
14.8920,-0.2202,1.0299,0.1080
14.8930,-0.2202,1.0299,0.1080
14.8940,-0.2202,1.0299,0.1080
14.8940,-0.2173,1.0279,0.1083
14.8950,-0.2173,1.0279,0.1083
14.9190,-0.2173,1.0279,0.1083
14.9430,-0.2173,1.0279,0.1083
14.9440,-0.2173,1.0279,0.1083
14.9440,-0.2124,1.0233,0.1095
14.9450,-0.2131,1.0228,0.1107
14.9450,-0.2131,1.0228,0.1107
14.9460,-0.2131,1.0228,0.1107
14.9460,-0.2131,1.0228,0.1107
14.9470,-0.2151,1.0281,0.1083
14.9710,-0.2151,1.0281,0.1083
14.9720,-0.2151,1.0281,0.1083
14.9720,-0.2151,1.0281,0.1083
14.9730,-0.2119,1.0333,0.1092
14.9730,-0.2119,1.0333,0.1092
15.0010,-0.2119,1.0333,0.1092
15.0020,-0.2119,1.0333,0.1092
15.0030,-0.2119,1.0333,0.1092
15.0040,-0.2104,1.0367,0.1075
15.0040,-0.2114,1.0369,0.1085
15.0200,-0.2114,1.0369,0.1085
15.0210,-0.2114,1.0369,0.1085
15.0220,-0.2114,1.0369,0.1085
15.0230,-0.2121,1.0308,0.1078
15.0340,-0.2121,1.0308,0.1078
15.0500,-0.2121,1.0308,0.1078
15.0500,-0.2121,1.0308,0.1078
15.0510,-0.2121,1.0308,0.1078
15.0520,-0.2097,1.0233,0.1122
15.0530,-0.2097,1.0233,0.1122
15.0800,-0.2097,1.0233,0.1122
15.0810,-0.2097,1.0233,0.1122
15.0810,-0.2097,1.0233,0.1122
15.0820,-0.2107,1.0277,0.1122
15.0830,-0.2119,1.0306,0.1092
15.1000,-0.2119,1.0306,0.1092
15.1000,-0.2119,1.0306,0.1092
15.1010,-0.2119,1.0306,0.1092
15.1010,-0.2141,1.0296,0.1110
15.1290,-0.2141,1.0296,0.1110
15.1310,-0.2141,1.0296,0.1110
15.1310,-0.2141,1.0296,0.1110
15.1330,-0.2156,1.0345,0.1114
15.1330,-0.2156,1.0345,0.1114
15.1630,-0.2156,1.0345,0.1114
15.1640,-0.2156,1.0345,0.1114
15.1640,-0.2156,1.0345,0.1114
15.1660,-0.2134,1.0350,0.1122
15.1660,-0.2112,1.0316,0.1141
15.1800,-0.2112,1.0316,0.1141
15.1810,-0.2112,1.0316,0.1141
15.1820,-0.2112,1.0316,0.1141
15.1830,-0.2104,1.0291,0.1141
15.2110,-0.2104,1.0291,0.1141
15.2130,-0.2104,1.0291,0.1141
15.2140,-0.2104,1.0291,0.1141
15.2150,-0.2112,1.0267,0.1122
15.2180,-0.2112,1.0267,0.1122
15.2370,-0.2112,1.0267,0.1122
15.2410,-0.2112,1.0267,0.1122
15.2420,-0.2112,1.0267,0.1122
15.2430,-0.2112,1.0267,0.1122
15.2440,-0.2109,1.0264,0.1158
15.2450,-0.2092,1.0289,0.1166
15.2600,-0.2092,1.0289,0.1166
15.2610,-0.2092,1.0289,0.1166
15.2620,-0.2092,1.0289,0.1166
15.2650,-0.2075,1.0296,0.1139
15.2900,-0.2075,1.0296,0.1139
15.2910,-0.2075,1.0296,0.1139
15.2920,-0.2075,1.0296,0.1139
15.2930,-0.2082,1.0345,0.1092
15.2940,-0.2082,1.0345,0.1092
15.3220,-0.2082,1.0345,0.1092
15.3220,-0.2082,1.0345,0.1092
15.3230,-0.2082,1.0345,0.1092
15.3230,-0.2104,1.0355,0.1105
15.3240,-0.2092,1.0372,0.1102
15.3440,-0.2092,1.0372,0.1102
15.3440,-0.2092,1.0372,0.1102
15.3460,-0.2092,1.0372,0.1102
15.3460,-0.2092,1.0335,0.1092
15.3700,-0.2092,1.0335,0.1092
15.3700,-0.2092,1.0335,0.1092
15.3710,-0.2092,1.0335,0.1092
15.3720,-0.2124,1.0321,0.1053
15.3730,-0.2124,1.0321,0.1053
15.4000,-0.2124,1.0321,0.1053
15.4010,-0.2124,1.0321,0.1053
15.4010,-0.2124,1.0321,0.1053
15.4020,-0.2151,1.0296,0.1075
15.4030,-0.2156,1.0252,0.1097
15.4200,-0.2156,1.0252,0.1097
15.4200,-0.2156,1.0252,0.1097
15.4210,-0.2156,1.0252,0.1097
15.4220,-0.2141,1.0228,0.1075
15.4360,-0.2141,1.0228,0.1075
15.4500,-0.2141,1.0228,0.1075
15.4510,-0.2141,1.0228,0.1075
15.4530,-0.2141,1.0228,0.1075
15.4550,-0.2058,1.0272,0.1090
15.4560,-0.2058,1.0272,0.1090
15.4860,-0.2058,1.0272,0.1090
15.4870,-0.2058,1.0272,0.1090
15.4870,-0.2058,1.0272,0.1090
15.4870,-0.2026,1.0367,0.1070
15.4880,-0.2063,1.0379,0.1080
15.5020,-0.2063,1.0379,0.1080
15.5020,-0.2063,1.0379,0.1080
15.5030,-0.2063,1.0379,0.1080
15.5030,-0.2058,1.0345,0.1122
15.5280,-0.2058,1.0345,0.1122
15.5280,-0.2058,1.0345,0.1122
15.5290,-0.2058,1.0345,0.1122
15.5290,-0.2038,1.0303,0.1097
15.5300,-0.2038,1.0303,0.1097
15.5580,-0.2038,1.0303,0.1097
15.5590,-0.2038,1.0303,0.1097
15.5590,-0.2038,1.0303,0.1097
15.5600,-0.2043,1.0274,0.1114
15.5610,-0.2080,1.0255,0.1107
15.5780,-0.2080,1.0255,0.1107
15.5790,-0.2080,1.0255,0.1107
15.5800,-0.2080,1.0255,0.1107
15.5810,-0.2075,1.0291,0.1085
15.6120,-0.2075,1.0291,0.1085
15.6130,-0.2075,1.0291,0.1085
15.6160,-0.2075,1.0291,0.1085
15.6170,-0.2082,1.0301,0.1061
15.6180,-0.2082,1.0301,0.1061
15.6320,-0.2082,1.0301,0.1061
15.6410,-0.2082,1.0301,0.1061
15.6420,-0.2082,1.0301,0.1061
15.6430,-0.2082,1.0301,0.1061
15.6430,-0.2121,1.0316,0.1097
15.6440,-0.2126,1.0321,0.1078
15.6610,-0.2126,1.0321,0.1078
15.6620,-0.2126,1.0321,0.1078
15.6630,-0.2126,1.0321,0.1078
15.6640,-0.2143,1.0306,0.1075
15.6920,-0.2143,1.0306,0.1075
15.6930,-0.2143,1.0306,0.1075
15.6950,-0.2143,1.0306,0.1075
15.6960,-0.2190,1.0296,0.1110
15.6970,-0.2190,1.0296,0.1110
15.7210,-0.2190,1.0296,0.1110
15.7220,-0.2190,1.0296,0.1110
15.7220,-0.2190,1.0296,0.1110
15.7230,-0.2182,1.0274,0.1144
15.7230,-0.2185,1.0269,0.1139
15.7440,-0.2185,1.0269,0.1139
15.7450,-0.2185,1.0269,0.1139
15.7460,-0.2185,1.0269,0.1139
15.7470,-0.2212,1.0240,0.1063
15.7730,-0.2212,1.0240,0.1063
15.7730,-0.2212,1.0240,0.1063
15.7740,-0.2212,1.0240,0.1063
15.7750,-0.2234,1.0225,0.1085
15.7760,-0.2234,1.0225,0.1085
15.8010,-0.2234,1.0225,0.1085
15.8020,-0.2234,1.0225,0.1085
15.8030,-0.2234,1.0225,0.1085
15.8030,-0.2219,1.0252,0.1139
15.8040,-0.2185,1.0299,0.1110
15.8190,-0.2185,1.0299,0.1110
15.8200,-0.2185,1.0299,0.1110
15.8210,-0.2185,1.0299,0.1110
15.8210,-0.2114,1.0303,0.1105
15.8330,-0.2114,1.0303,0.1105
15.8490,-0.2114,1.0303,0.1105
15.8500,-0.2114,1.0303,0.1105
15.8500,-0.2114,1.0303,0.1105
15.8500,-0.2072,1.0308,0.1149
15.8500,-0.2072,1.0308,0.1149
15.8810,-0.2072,1.0308,0.1149
15.8820,-0.2072,1.0308,0.1149
15.8830,-0.2072,1.0308,0.1149
15.8840,-0.2068,1.0343,0.1156
15.8850,-0.2050,1.0338,0.1119
15.9000,-0.2050,1.0338,0.1119
15.9010,-0.2050,1.0338,0.1119
15.9020,-0.2050,1.0338,0.1119
15.9030,-0.2031,1.0277,0.1048
15.9340,-0.2031,1.0277,0.1048
15.9350,-0.2031,1.0277,0.1048
15.9360,-0.2031,1.0277,0.1048
15.9370,-0.2050,1.0274,0.1031
15.9380,-0.2050,1.0274,0.1031
15.9610,-0.2050,1.0274,0.1031
15.9620,-0.2050,1.0274,0.1031
15.9630,-0.2050,1.0274,0.1031
15.9640,-0.2080,1.0257,0.1102
15.9650,-0.2114,1.0316,0.1090
15.9830,-0.2114,1.0316,0.1090
15.9840,-0.2114,1.0316,0.1090
15.9850,-0.2114,1.0316,0.1090
15.9860,-0.2107,1.0343,0.1078
16.0130,-0.2107,1.0343,0.1078
16.0140,-0.2107,1.0343,0.1078
16.0150,-0.2107,1.0343,0.1078
16.0160,-0.2085,1.0355,0.1068
16.0160,-0.2085,1.0355,0.1068
16.0440,-0.2085,1.0355,0.1068
16.0440,-0.2085,1.0355,0.1068
16.0450,-0.2085,1.0355,0.1068
16.0460,-0.2085,1.0355,0.1068
16.0460,-0.2099,1.0333,0.1080
16.0470,-0.2148,1.0321,0.1090
16.0600,-0.2148,1.0321,0.1090
16.0610,-0.2148,1.0321,0.1090
16.0610,-0.2148,1.0321,0.1090
16.0620,-0.2148,1.0291,0.1080
16.0920,-0.2148,1.0291,0.1080
16.0930,-0.2148,1.0291,0.1080
16.0940,-0.2148,1.0291,0.1080
16.0940,-0.2180,1.0262,0.1036
16.0950,-0.2180,1.0262,0.1036
16.1210,-0.2180,1.0262,0.1036
16.1220,-0.2180,1.0262,0.1036
16.1230,-0.2180,1.0262,0.1036
16.1240,-0.2185,1.0286,0.1044
16.1250,-0.2165,1.0303,0.1048
16.1400,-0.2165,1.0303,0.1048
16.1410,-0.2165,1.0303,0.1048
16.1420,-0.2165,1.0303,0.1048
16.1450,-0.2190,1.0313,0.1066
16.1730,-0.2190,1.0313,0.1066
16.1740,-0.2190,1.0313,0.1066
16.1750,-0.2190,1.0313,0.1066
16.1760,-0.2207,1.0311,0.1053
16.1770,-0.2207,1.0311,0.1053
16.2010,-0.2207,1.0311,0.1053
16.2020,-0.2207,1.0311,0.1053
16.2030,-0.2207,1.0311,0.1053
16.2040,-0.2178,1.0296,0.1002
16.2050,-0.2121,1.0333,0.1017
16.2210,-0.2121,1.0333,0.1017
16.2220,-0.2121,1.0333,0.1017
16.2230,-0.2121,1.0333,0.1017
16.2240,-0.2075,1.0347,0.1073
16.2370,-0.2075,1.0347,0.1073
16.2540,-0.2075,1.0347,0.1073
16.2550,-0.2075,1.0347,0.1073
16.2560,-0.2075,1.0347,0.1073
16.2580,-0.2055,1.0330,0.1073
16.2590,-0.2055,1.0330,0.1073
16.2820,-0.2055,1.0330,0.1073
16.2830,-0.2055,1.0330,0.1073
16.2840,-0.2055,1.0330,0.1073
16.2850,-0.2058,1.0296,0.1056
16.2880,-0.2104,1.0264,0.1004
16.3010,-0.2104,1.0264,0.1004
16.3020,-0.2104,1.0264,0.1004
16.3030,-0.2104,1.0264,0.1004
16.3040,-0.2146,1.0257,0.0992
16.3340,-0.2146,1.0257,0.0992
16.3350,-0.2146,1.0257,0.0992
16.3360,-0.2146,1.0257,0.0992
16.3370,-0.2148,1.0313,0.1014
16.3380,-0.2148,1.0313,0.1014
16.3640,-0.2148,1.0313,0.1014
16.3640,-0.2148,1.0313,0.1014
16.3650,-0.2148,1.0313,0.1014
16.3660,-0.2109,1.0333,0.1007
16.3660,-0.2136,1.0323,0.0997
16.3830,-0.2136,1.0323,0.0997
16.3840,-0.2136,1.0323,0.0997
16.3840,-0.2136,1.0323,0.0997
16.3850,-0.2116,1.0291,0.1046
16.4160,-0.2116,1.0291,0.1046
16.4160,-0.2116,1.0291,0.1046
16.4170,-0.2116,1.0291,0.1046
16.4170,-0.2107,1.0279,0.1029
16.4180,-0.2107,1.0279,0.1029
16.4360,-0.2107,1.0279,0.1029
16.4430,-0.2107,1.0279,0.1029
16.4440,-0.2107,1.0279,0.1029
16.4460,-0.2107,1.0279,0.1029
16.4470,-0.2112,1.0289,0.1058
16.4480,-0.2119,1.0330,0.1034
16.4650,-0.2119,1.0330,0.1034
16.4660,-0.2119,1.0330,0.1034
16.4670,-0.2119,1.0330,0.1034
16.4680,-0.2114,1.0323,0.0948
16.4940,-0.2114,1.0323,0.0948
16.4940,-0.2114,1.0323,0.0948
16.4950,-0.2114,1.0323,0.0948
16.4960,-0.2097,1.0272,0.0997
16.4960,-0.2097,1.0272,0.0997
16.5210,-0.2097,1.0272,0.0997
16.5210,-0.2097,1.0272,0.0997
16.5220,-0.2097,1.0272,0.0997
16.5220,-0.2104,1.0281,0.1012
16.5230,-0.2099,1.0313,0.1034
16.5440,-0.2099,1.0313,0.1034
16.5450,-0.2099,1.0313,0.1034
16.5450,-0.2099,1.0313,0.1034
16.5460,-0.2082,1.0340,0.1053
16.5750,-0.2082,1.0340,0.1053
16.5760,-0.2082,1.0340,0.1053
16.5760,-0.2082,1.0340,0.1053
16.5770,-0.2090,1.0347,0.0997
16.6020,-0.2090,1.0347,0.0997
16.6030,-0.2090,1.0347,0.0997
16.6030,-0.2090,1.0347,0.0997
16.6040,-0.2090,1.0347,0.0997
16.6040,-0.2107,1.0338,0.1048
16.6040,-0.2104,1.0318,0.1036
16.6210,-0.2104,1.0318,0.1036
16.6220,-0.2104,1.0318,0.1036
16.6230,-0.2104,1.0318,0.1036
16.6240,-0.2107,1.0301,0.1026
16.6330,-0.2107,1.0301,0.1026
16.6510,-0.2107,1.0301,0.1026
16.6520,-0.2107,1.0301,0.1026
16.6530,-0.2107,1.0301,0.1026
16.6530,-0.2099,1.0311,0.1044
16.6540,-0.2099,1.0311,0.1044
16.6810,-0.2099,1.0311,0.1044
16.6820,-0.2099,1.0311,0.1044
16.6820,-0.2099,1.0311,0.1044
16.6830,-0.2099,1.0313,0.1058
16.6840,-0.2087,1.0247,0.1053
16.7010,-0.2087,1.0247,0.1053
16.7020,-0.2087,1.0247,0.1053
16.7030,-0.2087,1.0247,0.1053
16.7030,-0.2102,1.0279,0.1058
16.7320,-0.2102,1.0279,0.1058
16.7340,-0.2102,1.0279,0.1058
16.7340,-0.2102,1.0279,0.1058
16.7350,-0.2104,1.0299,0.1066
16.7360,-0.2104,1.0299,0.1066
16.7620,-0.2104,1.0299,0.1066
16.7630,-0.2104,1.0299,0.1066
16.7640,-0.2104,1.0299,0.1066
16.7650,-0.2085,1.0333,0.1068
16.7660,-0.2077,1.0357,0.1132
16.7840,-0.2077,1.0357,0.1132
16.7850,-0.2077,1.0357,0.1132
16.7860,-0.2077,1.0357,0.1132
16.7870,-0.2075,1.0384,0.1095
16.8140,-0.2075,1.0384,0.1095
16.8150,-0.2075,1.0384,0.1095
16.8160,-0.2075,1.0384,0.1095
16.8170,-0.2068,1.0355,0.1056
16.8180,-0.2068,1.0355,0.1056
16.8360,-0.2068,1.0355,0.1056
16.8430,-0.2068,1.0355,0.1056
16.8430,-0.2068,1.0355,0.1056
16.8440,-0.2068,1.0355,0.1056
16.8450,-0.2072,1.0328,0.1056
16.8460,-0.2033,1.0311,0.1083
16.8630,-0.2033,1.0311,0.1083
16.8640,-0.2033,1.0311,0.1083
16.8640,-0.2033,1.0311,0.1083
16.8650,-0.2004,1.0291,0.1095
16.8930,-0.2004,1.0291,0.1095
16.8940,-0.2004,1.0291,0.1095
16.8950,-0.2004,1.0291,0.1095
16.8970,-0.2002,1.0255,0.1046
16.8970,-0.2002,1.0255,0.1046
16.9240,-0.2002,1.0255,0.1046
16.9250,-0.2002,1.0255,0.1046
16.9260,-0.2002,1.0255,0.1046
16.9260,-0.2055,1.0252,0.1036
16.9270,-0.2050,1.0255,0.1095
16.9430,-0.2050,1.0255,0.1095
16.9440,-0.2050,1.0255,0.1095
16.9450,-0.2050,1.0255,0.1095
16.9450,-0.2046,1.0247,0.1102
16.9750,-0.2046,1.0247,0.1102
16.9770,-0.2046,1.0247,0.1102
16.9780,-0.2046,1.0247,0.1102
16.9790,-0.2048,1.0306,0.1134
16.9800,-0.2048,1.0306,0.1134
17.0040,-0.2048,1.0306,0.1134
17.0060,-0.2048,1.0306,0.1134
17.0070,-0.2048,1.0306,0.1134
17.0080,-0.1984,1.0311,0.1056
17.0100,-0.1992,1.0379,0.0973
17.0250,-0.1992,1.0379,0.0973
17.0260,-0.1992,1.0379,0.0973
17.0270,-0.1992,1.0379,0.0973
17.0310,-0.2031,1.0367,0.1036
17.0330,-0.2031,1.0367,0.1036
17.0370,-0.2031,1.0367,0.1036
17.0540,-0.2031,1.0367,0.1036
17.0550,-0.2031,1.0367,0.1036
17.0550,-0.2031,1.0367,0.1036
17.0560,-0.2092,1.0389,0.1029
17.0560,-0.2092,1.0389,0.1029
17.0790,-0.2092,1.0389,0.1029
17.0800,-0.2092,1.0389,0.1029
17.0810,-0.2092,1.0389,0.1029
17.0810,-0.2158,1.0421,0.1009
17.0820,-0.2148,1.0401,0.1019
17.1030,-0.2148,1.0401,0.1019
17.1040,-0.2148,1.0401,0.1019
17.1040,-0.2148,1.0401,0.1019
17.1050,-0.2107,1.0355,0.0975
17.1340,-0.2107,1.0355,0.0975
17.1370,-0.2107,1.0355,0.0975
17.1660,-0.2107,1.0355,0.0975
17.1660,-0.2055,1.0306,0.0992
17.1670,-0.2055,1.0306,0.0992
17.1670,-0.2055,1.0306,0.0992
17.1670,-0.2055,1.0306,0.0992
17.1680,-0.2055,1.0306,0.0992
17.1680,-0.2068,1.0277,0.1073
17.1680,-0.2085,1.0284,0.1122
17.1820,-0.2085,1.0284,0.1122
17.1830,-0.2085,1.0284,0.1122
17.1830,-0.2085,1.0284,0.1122
17.1840,-0.2060,1.0306,0.1068
17.2140,-0.2060,1.0306,0.1068
17.2150,-0.2060,1.0306,0.1068
17.2160,-0.2060,1.0306,0.1068
17.2170,-0.2038,1.0330,0.1009
17.2180,-0.2038,1.0330,0.1009
17.2340,-0.2038,1.0330,0.1009
17.2350,-0.2038,1.0330,0.1009
17.2430,-0.2038,1.0330,0.1009
17.2440,-0.2038,1.0330,0.1009
17.2450,-0.2038,1.0330,0.1009
17.2460,-0.2009,1.0360,0.0987
17.2470,-0.2004,1.0394,0.1022
17.2630,-0.2004,1.0394,0.1022
17.2640,-0.2004,1.0394,0.1022
17.2640,-0.2004,1.0394,0.1022
17.2640,-0.2006,1.0372,0.0995
17.2930,-0.2006,1.0372,0.0995
17.2940,-0.2006,1.0372,0.0995
17.2950,-0.2006,1.0372,0.0995
17.2960,-0.1999,1.0357,0.1014
17.2960,-0.1999,1.0357,0.1014
17.3250,-0.1999,1.0357,0.1014
17.3260,-0.1999,1.0357,0.1014
17.3270,-0.1999,1.0357,0.1014
17.3270,-0.1992,1.0374,0.1046
17.3280,-0.1965,1.0333,0.1053
17.3440,-0.1965,1.0333,0.1053
17.3450,-0.1965,1.0333,0.1053
17.3460,-0.1965,1.0333,0.1053
17.3470,-0.2011,1.0321,0.1066
17.3740,-0.2011,1.0321,0.1066
17.3750,-0.2011,1.0321,0.1066
17.3760,-0.2011,1.0321,0.1066
17.3770,-0.2019,1.0340,0.1041
17.3780,-0.2019,1.0340,0.1041
17.4070,-0.2019,1.0340,0.1041
17.4080,-0.2019,1.0340,0.1041
17.4090,-0.2019,1.0340,0.1041
17.4110,-0.2033,1.0335,0.0985
17.4130,-0.2028,1.0367,0.0980
17.4260,-0.2028,1.0367,0.0980
17.4270,-0.2028,1.0367,0.0980
17.4280,-0.2028,1.0367,0.0980
17.4290,-0.2016,1.0391,0.1009
17.4360,-0.2016,1.0391,0.1009
17.4540,-0.2016,1.0391,0.1009
17.4550,-0.2016,1.0391,0.1009
17.4560,-0.2016,1.0391,0.1009
17.4570,-0.2036,1.0350,0.1024
17.4570,-0.2036,1.0350,0.1024
17.4850,-0.2036,1.0350,0.1024
17.4860,-0.2036,1.0350,0.1024
17.4870,-0.2036,1.0350,0.1024
17.4870,-0.2021,1.0267,0.0975
17.4890,-0.2050,1.0250,0.0995
17.5050,-0.2050,1.0250,0.0995
17.5060,-0.2050,1.0250,0.0995
17.5070,-0.2050,1.0250,0.0995
17.5080,-0.2070,1.0316,0.1088
17.5340,-0.2070,1.0316,0.1088
17.5350,-0.2070,1.0316,0.1088
17.5360,-0.2070,1.0316,0.1088
17.5370,-0.2097,1.0382,0.1061
17.5390,-0.2097,1.0382,0.1061
17.5650,-0.2097,1.0382,0.1061
17.5660,-0.2097,1.0382,0.1061
17.5670,-0.2097,1.0382,0.1061
17.5680,-0.2112,1.0240,0.1100
17.5690,-0.2070,1.0374,0.1014
17.5860,-0.2070,1.0374,0.1014
17.5860,-0.2070,1.0374,0.1014
17.5880,-0.2070,1.0374,0.1014
17.5890,-0.2068,1.0394,0.0970
17.6140,-0.2068,1.0394,0.0970
17.6150,-0.2068,1.0394,0.0970
17.6170,-0.2068,1.0394,0.0970
17.6180,-0.2011,1.0423,0.1000
17.6190,-0.2011,1.0423,0.1000
17.6400,-0.2011,1.0423,0.1000
17.6410,-0.2011,1.0423,0.1000
17.6420,-0.2011,1.0423,0.1000
17.6430,-0.2011,1.0423,0.1000
17.6440,-0.2011,1.0372,0.0995
17.6450,-0.2050,1.0306,0.0982
17.6660,-0.2050,1.0306,0.0982
17.6670,-0.2050,1.0306,0.0982
17.6680,-0.2050,1.0306,0.0982
17.6690,-0.2075,1.0350,0.0970
17.7050,-0.2075,1.0350,0.0970
17.7060,-0.2075,1.0350,0.0970
17.7060,-0.2075,1.0350,0.0970
17.7060,-0.1997,1.0428,0.1051
17.7070,-0.1997,1.0428,0.1051
17.7200,-0.1997,1.0428,0.1051
17.7200,-0.1997,1.0428,0.1051
17.7210,-0.1997,1.0428,0.1051
17.7210,-0.1967,1.0406,0.1007
17.7210,-0.1953,1.0411,0.0902
17.7400,-0.1953,1.0411,0.0902
17.7400,-0.1953,1.0411,0.0902
17.7410,-0.1953,1.0411,0.0902
17.7410,-0.1987,1.0330,0.0902
17.7700,-0.1987,1.0330,0.0902
17.7710,-0.1987,1.0330,0.0902
17.7730,-0.1987,1.0330,0.0902
17.7740,-0.2072,1.0218,0.1036
17.7750,-0.2072,1.0218,0.1036
17.8010,-0.2072,1.0218,0.1036
17.8020,-0.2072,1.0218,0.1036
17.8030,-0.2072,1.0218,0.1036
17.8040,-0.2087,1.0208,0.1012
17.8050,-0.2050,1.0274,0.1002
17.8210,-0.2050,1.0274,0.1002
17.8270,-0.2050,1.0274,0.1002
17.8280,-0.2050,1.0274,0.1002
17.8290,-0.2072,1.0281,0.1051
17.8330,-0.2072,1.0281,0.1051
17.8540,-0.2072,1.0281,0.1051
17.8550,-0.2072,1.0281,0.1051
17.8560,-0.2072,1.0281,0.1051
17.8580,-0.2050,1.0345,0.1034
17.8590,-0.2050,1.0345,0.1034
17.8820,-0.2050,1.0345,0.1034
17.8830,-0.2050,1.0345,0.1034
17.8840,-0.2050,1.0345,0.1034
17.8850,-0.1970,1.0338,0.0980
17.8860,-0.1977,1.0387,0.0980
17.9020,-0.1977,1.0387,0.0980
17.9030,-0.1977,1.0387,0.0980
17.9040,-0.1977,1.0387,0.0980
17.9050,-0.2009,1.0409,0.0985
17.9340,-0.2009,1.0409,0.0985
17.9350,-0.2009,1.0409,0.0985
17.9370,-0.2009,1.0409,0.0985
17.9380,-0.2036,1.0377,0.1014
17.9390,-0.2036,1.0377,0.1014
17.9620,-0.2036,1.0377,0.1014
17.9630,-0.2036,1.0377,0.1014
17.9640,-0.2036,1.0377,0.1014
17.9650,-0.2028,1.0318,0.1061
17.9660,-0.2016,1.0235,0.1105
17.9840,-0.2016,1.0235,0.1105
17.9850,-0.2016,1.0235,0.1105
17.9850,-0.2016,1.0235,0.1105
17.9870,-0.1994,1.0208,0.1053
18.0130,-0.1994,1.0208,0.1053
18.0140,-0.1994,1.0208,0.1053
18.0150,-0.1994,1.0208,0.1053
18.0160,-0.1999,1.0316,0.1107
18.0170,-0.1999,1.0316,0.1107
18.0330,-0.1999,1.0316,0.1107
18.0420,-0.1999,1.0316,0.1107
18.0430,-0.1999,1.0316,0.1107
18.0440,-0.1999,1.0316,0.1107
18.0450,-0.1992,1.0352,0.1241
18.0460,-0.1948,1.0281,0.1356
18.0630,-0.1948,1.0281,0.1356
18.0630,-0.1948,1.0281,0.1356
18.0640,-0.1948,1.0281,0.1356
18.0650,-0.1984,1.0230,0.1293
18.0920,-0.1984,1.0230,0.1293
18.0930,-0.1984,1.0230,0.1293
18.0930,-0.1984,1.0230,0.1293
18.0940,-0.1955,1.0328,0.1134
18.0940,-0.1955,1.0328,0.1134
18.1230,-0.1955,1.0328,0.1134
18.1230,-0.1955,1.0328,0.1134
18.1240,-0.1955,1.0328,0.1134
18.1240,-0.2009,1.0343,0.1034
18.1240,-0.2063,1.0294,0.1000
18.1430,-0.2063,1.0294,0.1000
18.1430,-0.2063,1.0294,0.1000
18.1440,-0.2063,1.0294,0.1000
18.1440,-0.2065,1.0418,0.0978
18.1710,-0.2065,1.0418,0.0978
18.1720,-0.2065,1.0418,0.0978
18.1720,-0.2065,1.0418,0.0978
18.1730,-0.2028,1.0470,0.1088
18.1730,-0.2028,1.0470,0.1088
18.2020,-0.2028,1.0470,0.1088
18.2020,-0.2028,1.0470,0.1088
18.2020,-0.2028,1.0470,0.1088
18.2030,-0.2009,1.0330,0.1185
18.2030,-0.2048,1.0240,0.1129
18.2210,-0.2048,1.0240,0.1129
18.2210,-0.2048,1.0240,0.1129
18.2220,-0.2048,1.0240,0.1129
18.2230,-0.2094,1.0198,0.1171
18.2320,-0.2094,1.0198,0.1171
18.2520,-0.2094,1.0198,0.1171
18.2530,-0.2094,1.0198,0.1171
18.2530,-0.2094,1.0198,0.1171
18.2560,-0.2094,1.0237,0.1241
18.2560,-0.2094,1.0237,0.1241
18.2810,-0.2094,1.0237,0.1241
18.2820,-0.2094,1.0237,0.1241
18.2820,-0.2094,1.0237,0.1241
18.2820,-0.2072,1.0299,0.1266
18.2830,-0.2028,1.0328,0.1239
18.3030,-0.2028,1.0328,0.1239
18.3030,-0.2028,1.0328,0.1239
18.3030,-0.2028,1.0328,0.1239
18.3060,-0.2048,1.0401,0.1156
