
time,AccelerometerX,AccelerometerY,AccelerometerZ
0.0160,-0.2019,1.0303,0.1679
0.0160,-0.2019,1.0303,0.1679
0.0170,-0.2019,1.0303,0.1679
0.0170,-0.2173,1.0301,0.1620
0.0500,-0.2173,1.0301,0.1620
0.0500,-0.2173,1.0301,0.1620
0.0500,-0.2173,1.0301,0.1620
0.0510,-0.2104,1.0406,0.1493
0.0510,-0.2070,1.0303,0.1518
0.0650,-0.2070,1.0303,0.1518
0.0650,-0.2070,1.0303,0.1518
0.0660,-0.2070,1.0303,0.1518
0.0660,-0.2087,1.0259,0.1686
0.0660,-0.2087,1.0259,0.1686
0.0930,-0.2087,1.0259,0.1686
0.0930,-0.2087,1.0259,0.1686
0.0940,-0.2087,1.0259,0.1686
0.0960,-0.2116,1.0294,0.1691
0.1230,-0.2116,1.0294,0.1691
0.1240,-0.2116,1.0294,0.1691
0.1240,-0.2116,1.0294,0.1691
0.1250,-0.2146,1.0250,0.1593
0.1250,-0.2104,1.0230,0.1659
0.1430,-0.2104,1.0230,0.1659
0.1440,-0.2104,1.0230,0.1659
0.1440,-0.2104,1.0230,0.1659
0.1450,-0.2060,1.0240,0.1669
0.1450,-0.2060,1.0240,0.1669
0.1720,-0.2060,1.0240,0.1669
0.1740,-0.2060,1.0240,0.1669
0.1750,-0.2060,1.0240,0.1669
0.1750,-0.2060,1.0240,0.1669
0.1760,-0.2102,1.0167,0.1593
0.2050,-0.2102,1.0167,0.1593
0.2050,-0.2102,1.0167,0.1593
0.2050,-0.2102,1.0167,0.1593
0.2060,-0.2094,1.0184,0.1591
0.2060,-0.2075,1.0296,0.1618
0.2230,-0.2075,1.0296,0.1618
0.2240,-0.2075,1.0296,0.1618
0.2250,-0.2075,1.0296,0.1618
0.2250,-0.2065,1.0335,0.1571
0.2260,-0.2065,1.0335,0.1571
0.2540,-0.2065,1.0335,0.1571
0.2550,-0.2065,1.0335,0.1571
0.2550,-0.2065,1.0335,0.1571
0.2560,-0.2048,1.0313,0.1579
0.2860,-0.2048,1.0313,0.1579
0.2860,-0.2048,1.0313,0.1579
0.2860,-0.2048,1.0313,0.1579
0.2880,-0.2112,1.0374,0.1630
0.2880,-0.2048,1.0372,0.1672
0.3050,-0.2048,1.0372,0.1672
0.3050,-0.2048,1.0372,0.1672
0.3060,-0.2048,1.0372,0.1672
0.3060,-0.2038,1.0169,0.1542
0.3060,-0.2038,1.0169,0.1542
0.3330,-0.2038,1.0169,0.1542
0.3330,-0.2038,1.0169,0.1542
0.3340,-0.2038,1.0169,0.1542
0.3340,-0.2033,1.0115,0.1618
0.3650,-0.2033,1.0115,0.1618
0.3650,-0.2033,1.0115,0.1618
0.3650,-0.2033,1.0115,0.1618
0.3660,-0.2026,1.0169,0.1645
0.3660,-0.2055,1.0208,0.1625
0.3710,-0.2055,1.0208,0.1625
0.3840,-0.2055,1.0208,0.1625
0.3850,-0.2055,1.0208,0.1625
0.3850,-0.2055,1.0208,0.1625
0.3850,-0.2070,1.0257,0.1589
0.3860,-0.2070,1.0257,0.1589
0.4140,-0.2070,1.0257,0.1589
0.4150,-0.2070,1.0257,0.1589
0.4150,-0.2070,1.0257,0.1589
0.4150,-0.2116,1.0289,0.1606
0.4440,-0.2116,1.0289,0.1606
0.4440,-0.2116,1.0289,0.1606
0.4450,-0.2116,1.0289,0.1606
0.4450,-0.2141,1.0316,0.1657
0.4450,-0.2158,1.0277,0.1640
0.4640,-0.2158,1.0277,0.1640
0.4650,-0.2158,1.0277,0.1640
0.4650,-0.2158,1.0277,0.1640
0.4650,-0.2182,1.0203,0.1640
0.4650,-0.2182,1.0203,0.1640
0.4930,-0.2182,1.0203,0.1640
0.4940,-0.2182,1.0203,0.1640
0.4940,-0.2182,1.0203,0.1640
0.4940,-0.2156,1.0213,0.1579
0.5240,-0.2156,1.0213,0.1579
0.5250,-0.2156,1.0213,0.1579
0.5250,-0.2156,1.0213,0.1579
0.5250,-0.2141,1.0245,0.1598
0.5250,-0.2134,1.0255,0.1628
0.5440,-0.2134,1.0255,0.1628
0.5450,-0.2134,1.0255,0.1628
0.5450,-0.2134,1.0255,0.1628
0.5450,-0.2121,1.0272,0.1625
0.5450,-0.2121,1.0272,0.1625
0.5720,-0.2121,1.0272,0.1625
0.5740,-0.2121,1.0272,0.1625
0.5750,-0.2121,1.0272,0.1625
0.5750,-0.2121,1.0272,0.1625
0.5750,-0.2121,1.0233,0.1606
0.6040,-0.2121,1.0233,0.1606
0.6040,-0.2121,1.0233,0.1606
0.6040,-0.2121,1.0233,0.1606
0.6080,-0.2121,1.0237,0.1591
0.6080,-0.2131,1.0313,0.1593
0.6250,-0.2131,1.0313,0.1593
0.6250,-0.2131,1.0313,0.1593
0.6250,-0.2131,1.0313,0.1593
0.6260,-0.2136,1.0279,0.1579
0.6260,-0.2136,1.0279,0.1579
0.6540,-0.2136,1.0279,0.1579
0.6540,-0.2136,1.0279,0.1579
0.6550,-0.2136,1.0279,0.1579
0.6550,-0.2165,1.0235,0.1576
0.6840,-0.2165,1.0235,0.1576
0.6850,-0.2165,1.0235,0.1576
0.6850,-0.2165,1.0235,0.1576
0.6850,-0.2138,1.0242,0.1642
0.6850,-0.2077,1.0311,0.1669
0.7040,-0.2077,1.0311,0.1669
0.7040,-0.2077,1.0311,0.1669
0.7050,-0.2077,1.0311,0.1669
0.7070,-0.2087,1.0343,0.1625
0.7070,-0.2087,1.0343,0.1625
0.7340,-0.2087,1.0343,0.1625
0.7350,-0.2087,1.0343,0.1625
0.7350,-0.2087,1.0343,0.1625
0.7350,-0.2131,1.0286,0.1584
0.7640,-0.2131,1.0286,0.1584
0.7650,-0.2131,1.0286,0.1584
0.7650,-0.2131,1.0286,0.1584
0.7650,-0.2077,1.0247,0.1603
0.7650,-0.2021,1.0230,0.1650
0.7720,-0.2021,1.0230,0.1650
0.7840,-0.2021,1.0230,0.1650
0.7840,-0.2021,1.0230,0.1650
0.7850,-0.2021,1.0230,0.1650
0.7850,-0.1982,1.0252,0.1664
0.7850,-0.1982,1.0252,0.1664
0.8140,-0.1982,1.0252,0.1664
0.8150,-0.1982,1.0252,0.1664
0.8150,-0.1982,1.0252,0.1664
0.8150,-0.1994,1.0308,0.1628
0.8450,-0.1994,1.0308,0.1628
0.8450,-0.1994,1.0308,0.1628
0.8450,-0.1994,1.0308,0.1628
0.8450,-0.2009,1.0306,0.1608
0.8460,-0.2094,1.0267,0.1613
0.8650,-0.2094,1.0267,0.1613
0.8650,-0.2094,1.0267,0.1613
0.8650,-0.2094,1.0267,0.1613
0.8660,-0.2107,1.0206,0.1586
0.8660,-0.2107,1.0206,0.1586
0.8940,-0.2107,1.0206,0.1586
0.8950,-0.2107,1.0206,0.1586
0.8950,-0.2107,1.0206,0.1586
0.8950,-0.2121,1.0211,0.1611
0.9250,-0.2121,1.0211,0.1611
0.9250,-0.2121,1.0211,0.1611
0.9250,-0.2121,1.0211,0.1611
0.9260,-0.2165,1.0245,0.1581
0.9260,-0.2160,1.0257,0.1596
0.9460,-0.2160,1.0257,0.1596
0.9460,-0.2160,1.0257,0.1596
0.9470,-0.2160,1.0257,0.1596
0.9470,-0.2114,1.0250,0.1645
0.9480,-0.2114,1.0250,0.1645
0.9700,-0.2114,1.0250,0.1645
0.9750,-0.2114,1.0250,0.1645
0.9760,-0.2114,1.0250,0.1645
0.9760,-0.2114,1.0250,0.1645
0.9760,-0.2094,1.0242,0.1677
1.0050,-0.2094,1.0242,0.1677
1.0050,-0.2094,1.0242,0.1677
1.0060,-0.2094,1.0242,0.1677
1.0060,-0.2048,1.0255,0.1672
1.0060,-0.2050,1.0257,0.1657
1.0250,-0.2050,1.0257,0.1657
1.0280,-0.2050,1.0257,0.1657
1.0280,-0.2050,1.0257,0.1657
1.0290,-0.2092,1.0269,0.1584
1.0290,-0.2092,1.0269,0.1584
1.0550,-0.2092,1.0269,0.1584
1.0560,-0.2092,1.0269,0.1584
1.0560,-0.2092,1.0269,0.1584
1.0710,-0.2112,1.0257,0.1589
1.0850,-0.2112,1.0257,0.1589
1.0850,-0.2112,1.0257,0.1589
1.0860,-0.2112,1.0257,0.1589
1.0860,-0.2121,1.0242,0.1569
1.0860,-0.2099,1.0237,0.1571
1.1060,-0.2099,1.0237,0.1571
1.1060,-0.2099,1.0237,0.1571
1.1070,-0.2099,1.0237,0.1571
1.1070,-0.2138,1.0233,0.1562
1.1070,-0.2138,1.0233,0.1562
1.1350,-0.2138,1.0233,0.1562
1.1350,-0.2138,1.0233,0.1562
1.1360,-0.2138,1.0233,0.1562
1.1360,-0.2107,1.0250,0.1562
1.1650,-0.2107,1.0250,0.1562
1.1660,-0.2107,1.0250,0.1562
1.1660,-0.2107,1.0250,0.1562
1.1670,-0.2068,1.0409,0.1630
1.1670,-0.2148,1.0457,0.1757
1.1730,-0.2148,1.0457,0.1757
1.1850,-0.2148,1.0457,0.1757
1.1850,-0.2148,1.0457,0.1757
1.1850,-0.2148,1.0457,0.1757
1.1860,-0.2195,1.0193,0.1557
1.1860,-0.2195,1.0193,0.1557
1.2150,-0.2195,1.0193,0.1557
1.2160,-0.2195,1.0193,0.1557
1.2160,-0.2195,1.0193,0.1557
1.2160,-0.2129,1.0233,0.1593
1.2460,-0.2129,1.0233,0.1593
1.2460,-0.2129,1.0233,0.1593
1.2460,-0.2129,1.0233,0.1593
1.2460,-0.2197,1.0281,0.1652
1.2470,-0.2180,1.0157,0.1545
1.2650,-0.2180,1.0157,0.1545
1.2660,-0.2180,1.0157,0.1545
1.2660,-0.2180,1.0157,0.1545
1.2660,-0.2119,1.0186,0.1574
1.2660,-0.2119,1.0186,0.1574
1.2940,-0.2119,1.0186,0.1574
1.2940,-0.2119,1.0186,0.1574
1.2950,-0.2119,1.0186,0.1574
1.2950,-0.2121,1.0115,0.1613
1.3250,-0.2121,1.0115,0.1613
1.3250,-0.2121,1.0115,0.1613
1.3250,-0.2121,1.0115,0.1613
1.3260,-0.2090,1.0225,0.1672
1.3270,-0.2070,1.0333,0.1669
1.3450,-0.2070,1.0333,0.1669
1.3450,-0.2070,1.0333,0.1669
1.3460,-0.2070,1.0333,0.1669
1.3460,-0.2097,1.0328,0.1652
1.3470,-0.2097,1.0328,0.1652
1.3690,-0.2097,1.0328,0.1652
1.3750,-0.2097,1.0328,0.1652
1.3750,-0.2097,1.0328,0.1652
1.3750,-0.2097,1.0328,0.1652
1.3760,-0.2102,1.0330,0.1618
1.4050,-0.2102,1.0330,0.1618
1.4060,-0.2102,1.0330,0.1618
1.4060,-0.2102,1.0330,0.1618
1.4070,-0.2134,1.0296,0.1579
1.4070,-0.2087,1.0318,0.1596
1.4260,-0.2087,1.0318,0.1596
1.4260,-0.2087,1.0318,0.1596
1.4260,-0.2087,1.0318,0.1596
1.4270,-0.2075,1.0272,0.1618
1.4270,-0.2075,1.0272,0.1618
1.4550,-0.2075,1.0272,0.1618
1.4550,-0.2075,1.0272,0.1618
1.4550,-0.2075,1.0272,0.1618
1.4550,-0.2075,1.0215,0.1611
1.4880,-0.2075,1.0215,0.1611
1.4890,-0.2075,1.0215,0.1611
1.4900,-0.2075,1.0215,0.1611
1.4900,-0.2058,1.0213,0.1642
1.4910,-0.2082,1.0213,0.1637
1.5070,-0.2082,1.0213,0.1637
1.5080,-0.2082,1.0213,0.1637
1.5080,-0.2082,1.0213,0.1637
1.5090,-0.2097,1.0225,0.1657
1.5090,-0.2097,1.0225,0.1657
1.5480,-0.2097,1.0225,0.1657
1.5490,-0.2097,1.0225,0.1657
1.5490,-0.2097,1.0225,0.1657
1.5500,-0.2060,1.0242,0.1657
1.5660,-0.2060,1.0242,0.1657
1.5660,-0.2060,1.0242,0.1657
1.5670,-0.2060,1.0242,0.1657
1.5680,-0.2075,1.0252,0.1628
1.5690,-0.2109,1.0262,0.1618
1.5730,-0.2109,1.0262,0.1618
1.5740,-0.2109,1.0262,0.1618
1.5860,-0.2109,1.0262,0.1618
1.5870,-0.2109,1.0262,0.1618
1.5880,-0.2109,1.0262,0.1618
1.5890,-0.2160,1.0274,0.1593
1.5900,-0.2160,1.0274,0.1593
1.6160,-0.2160,1.0274,0.1593
1.6400,-0.2160,1.0274,0.1593
1.6410,-0.2160,1.0274,0.1593
1.6420,-0.2222,1.0277,0.1562
1.6480,-0.2222,1.0277,0.1562
1.6490,-0.2222,1.0277,0.1562
1.6500,-0.2222,1.0277,0.1562
1.6510,-0.2185,1.0247,0.1620
1.6520,-0.2138,1.0206,0.1655
1.6670,-0.2138,1.0206,0.1655
1.6680,-0.2138,1.0206,0.1655
1.6690,-0.2138,1.0206,0.1655
1.6700,-0.2102,1.0230,0.1647
1.6710,-0.2102,1.0230,0.1647
1.6960,-0.2102,1.0230,0.1647
1.6970,-0.2102,1.0230,0.1647
1.6970,-0.2102,1.0230,0.1647
1.6980,-0.2112,1.0235,0.1630
1.7280,-0.2112,1.0235,0.1630
1.7290,-0.2112,1.0235,0.1630
1.7320,-0.2112,1.0235,0.1630
1.7330,-0.2153,1.0281,0.1642
1.7340,-0.2138,1.0299,0.1633
1.7490,-0.2138,1.0299,0.1633
1.7500,-0.2138,1.0299,0.1633
1.7510,-0.2138,1.0299,0.1633
1.7520,-0.2072,1.0277,0.1664
1.7520,-0.2072,1.0277,0.1664
1.7740,-0.2072,1.0277,0.1664
1.7760,-0.2072,1.0277,0.1664
1.7760,-0.2072,1.0277,0.1664
1.7770,-0.2072,1.0277,0.1664
1.7770,-0.2058,1.0259,0.1659
1.8070,-0.2058,1.0259,0.1659
1.8080,-0.2058,1.0259,0.1659
1.8080,-0.2058,1.0259,0.1659
1.8090,-0.2068,1.0235,0.1642
1.8090,-0.2085,1.0233,0.1630
1.8280,-0.2085,1.0233,0.1630
1.8290,-0.2085,1.0233,0.1630
1.8300,-0.2085,1.0233,0.1630
1.8310,-0.2131,1.0269,0.1633
1.8310,-0.2131,1.0269,0.1633
1.8570,-0.2131,1.0269,0.1633
1.8580,-0.2131,1.0269,0.1633
1.8580,-0.2131,1.0269,0.1633
1.8590,-0.2163,1.0277,0.1608
1.8890,-0.2163,1.0277,0.1608
1.8890,-0.2163,1.0277,0.1608
1.8900,-0.2163,1.0277,0.1608
1.8900,-0.2175,1.0242,0.1601
1.8910,-0.2151,1.0247,0.1664
1.9080,-0.2151,1.0247,0.1664
1.9090,-0.2151,1.0247,0.1664
1.9100,-0.2151,1.0247,0.1664
1.9120,-0.2094,1.0257,0.1672
1.9140,-0.2094,1.0257,0.1672
1.9360,-0.2094,1.0257,0.1672
1.9380,-0.2094,1.0257,0.1672
1.9380,-0.2094,1.0257,0.1672
1.9390,-0.2090,1.0237,0.1645
1.9680,-0.2090,1.0237,0.1645
1.9690,-0.2090,1.0237,0.1645
1.9700,-0.2090,1.0237,0.1645
1.9710,-0.2075,1.0281,0.1662
1.9720,-0.2087,1.0313,0.1696
1.9730,-0.2087,1.0313,0.1696
1.9880,-0.2087,1.0313,0.1696
1.9890,-0.2087,1.0313,0.1696
1.9900,-0.2087,1.0313,0.1696
1.9900,-0.2090,1.0267,0.1684
1.9910,-0.2090,1.0267,0.1684
2.0180,-0.2090,1.0267,0.1684
2.0180,-0.2090,1.0267,0.1684
2.0190,-0.2090,1.0267,0.1684
2.0210,-0.2041,1.0167,0.1652
2.0480,-0.2041,1.0167,0.1652
2.0490,-0.2041,1.0167,0.1652
2.0490,-0.2041,1.0167,0.1652
2.0500,-0.2011,1.0157,0.1652
2.0500,-0.2011,1.0284,0.1691
2.0680,-0.2011,1.0284,0.1691
2.0690,-0.2011,1.0284,0.1691
2.0700,-0.2011,1.0284,0.1691
2.0700,-0.2063,1.0325,0.1677
2.0710,-0.2063,1.0325,0.1677
2.0970,-0.2063,1.0325,0.1677
2.0980,-0.2063,1.0325,0.1677
2.0990,-0.2063,1.0325,0.1677
2.1000,-0.2048,1.0306,0.1625
2.1280,-0.2048,1.0306,0.1625
2.1290,-0.2048,1.0306,0.1625
2.1310,-0.2048,1.0306,0.1625
2.1320,-0.2002,1.0323,0.1674
2.1330,-0.1992,1.0279,0.1677
2.1490,-0.1992,1.0279,0.1677
2.1510,-0.1992,1.0279,0.1677
2.1520,-0.1992,1.0279,0.1677
2.1530,-0.2026,1.0267,0.1708
2.1540,-0.2026,1.0267,0.1708
2.1720,-0.2026,1.0267,0.1708
2.2010,-0.2026,1.0267,0.1708
2.2020,-0.2026,1.0267,0.1708
2.2020,-0.2026,1.0267,0.1708
2.2030,-0.2026,1.0267,0.1708
2.2030,-0.2041,1.0230,0.1730
2.2090,-0.2041,1.0230,0.1730
2.2090,-0.2041,1.0230,0.1730
2.2100,-0.2041,1.0230,0.1730
2.2110,-0.2060,1.0250,0.1650
2.2110,-0.2075,1.0228,0.1645
2.2270,-0.2075,1.0228,0.1645
2.2280,-0.2075,1.0228,0.1645
2.2280,-0.2075,1.0228,0.1645
2.2290,-0.2085,1.0213,0.1672
2.2290,-0.2085,1.0213,0.1672
2.2570,-0.2085,1.0213,0.1672
2.2570,-0.2085,1.0213,0.1672
2.2580,-0.2085,1.0213,0.1672
2.2590,-0.2092,1.0250,0.1662
2.2870,-0.2092,1.0250,0.1662
2.2880,-0.2092,1.0250,0.1662
2.2880,-0.2092,1.0250,0.1662
2.2890,-0.2077,1.0264,0.1652
2.2890,-0.2068,1.0279,0.1662
2.3080,-0.2068,1.0279,0.1662
2.3090,-0.2068,1.0279,0.1662
2.3110,-0.2068,1.0279,0.1662
2.3120,-0.2072,1.0264,0.1655
2.3140,-0.2072,1.0264,0.1655
2.3380,-0.2072,1.0264,0.1655
2.3390,-0.2072,1.0264,0.1655
2.3400,-0.2072,1.0264,0.1655
2.3410,-0.2085,1.0269,0.1637
2.3690,-0.2085,1.0269,0.1637
2.3700,-0.2085,1.0269,0.1637
2.3700,-0.2085,1.0269,0.1637
2.3710,-0.2046,1.0257,0.1686
2.3720,-0.2050,1.0264,0.1694
2.3720,-0.2050,1.0264,0.1694
2.3880,-0.2050,1.0264,0.1694
2.3890,-0.2050,1.0264,0.1694
2.3900,-0.2050,1.0264,0.1694
2.3900,-0.2068,1.0284,0.1669
2.3910,-0.2068,1.0284,0.1669
2.4180,-0.2068,1.0284,0.1669
2.4190,-0.2068,1.0284,0.1669
2.4200,-0.2068,1.0284,0.1669
2.4210,-0.2085,1.0242,0.1620
2.4510,-0.2085,1.0242,0.1620
2.4510,-0.2085,1.0242,0.1620
2.4520,-0.2085,1.0242,0.1620
2.4530,-0.2112,1.0230,0.1645
2.4530,-0.2114,1.0237,0.1681
2.4690,-0.2114,1.0237,0.1681
2.4690,-0.2114,1.0237,0.1681
2.4700,-0.2114,1.0237,0.1681
2.4710,-0.2116,1.0277,0.1667
2.4720,-0.2116,1.0277,0.1667
2.4980,-0.2116,1.0277,0.1667
2.4990,-0.2116,1.0277,0.1667
2.5000,-0.2116,1.0277,0.1667
2.5010,-0.2109,1.0274,0.1635
2.5290,-0.2109,1.0274,0.1635
2.5300,-0.2109,1.0274,0.1635
2.5310,-0.2109,1.0274,0.1635
2.5310,-0.2085,1.0233,0.1601
2.5320,-0.2026,1.0145,0.1589
2.5500,-0.2026,1.0145,0.1589
2.5510,-0.2026,1.0145,0.1589
2.5520,-0.2026,1.0145,0.1589
2.5530,-0.1989,1.0274,0.1593
2.5540,-0.1989,1.0274,0.1593
2.5750,-0.1989,1.0274,0.1593
2.5780,-0.1989,1.0274,0.1593
2.5790,-0.1989,1.0274,0.1593
2.5810,-0.1989,1.0274,0.1593
2.5820,-0.2048,1.0538,0.1725
2.6090,-0.2048,1.0538,0.1725
2.6100,-0.2048,1.0538,0.1725
2.6100,-0.2048,1.0538,0.1725
2.6110,-0.2143,1.0347,0.1652
2.6120,-0.2050,1.0147,0.1549
2.6290,-0.2050,1.0147,0.1549
2.6290,-0.2050,1.0147,0.1549
2.6300,-0.2050,1.0147,0.1549
2.6310,-0.1997,1.0203,0.1706
2.6310,-0.1997,1.0203,0.1706
2.6580,-0.1997,1.0203,0.1706
2.6590,-0.1997,1.0203,0.1706
2.6600,-0.1997,1.0203,0.1706
2.6610,-0.1999,1.0191,0.1681
2.6900,-0.1999,1.0191,0.1681
2.6910,-0.1999,1.0191,0.1681
2.6920,-0.1999,1.0191,0.1681
2.6920,-0.1965,1.0230,0.1650
2.6940,-0.2011,1.0250,0.1645
2.7080,-0.2011,1.0250,0.1645
2.7090,-0.2011,1.0250,0.1645
2.7120,-0.2011,1.0250,0.1645
2.7130,-0.2028,1.0306,0.1686
2.7370,-0.2028,1.0306,0.1686
2.7400,-0.2028,1.0306,0.1686
2.7410,-0.2028,1.0306,0.1686
2.7410,-0.2028,1.0306,0.1686
2.7420,-0.2024,1.0347,0.1679
2.7700,-0.2024,1.0347,0.1679
2.7710,-0.2024,1.0347,0.1679
2.7710,-0.2024,1.0347,0.1679
2.8850,-0.2129,1.0294,0.1650
2.8860,-0.2173,1.0257,0.1691
2.8860,-0.2173,1.0257,0.1691
2.8930,-0.2173,1.0257,0.1691
2.8950,-0.2173,1.0257,0.1691
2.8950,-0.2173,1.0257,0.1691
2.8960,-0.2173,1.0257,0.1691
2.8960,-0.2173,1.0257,0.1691
2.8970,-0.2173,1.0257,0.1691
2.8980,-0.2173,1.0257,0.1691
2.8990,-0.2173,1.0257,0.1691
2.9000,-0.2173,1.0257,0.1691
2.9010,-0.2173,1.0257,0.1691
2.9010,-0.2173,1.0257,0.1691
2.9020,-0.2173,1.0257,0.1691
2.9020,-0.2173,1.0257,0.1691
2.9030,-0.2173,1.0257,0.1691
2.9040,-0.2153,1.0250,0.1655
2.9050,-0.2072,1.0247,0.1640
2.9060,-0.2033,1.0277,0.1655
2.9070,-0.2004,1.0269,0.1669
2.9080,-0.1967,1.0303,0.1694
2.9090,-0.1999,1.0318,0.1677
2.9100,-0.1999,1.0318,0.1677
2.9100,-0.1999,1.0318,0.1677
2.9210,-0.1999,1.0318,0.1677
2.9220,-0.1999,1.0318,0.1677
2.9240,-0.1999,1.0318,0.1677
2.9260,-0.2048,1.0255,0.1635
2.9490,-0.2048,1.0255,0.1635
2.9500,-0.2048,1.0255,0.1635
2.9510,-0.2048,1.0255,0.1635
2.9510,-0.2048,1.0255,0.1635
2.9520,-0.2112,1.0255,0.1640
2.9520,-0.2173,1.0233,0.1635
2.9530,-0.2173,1.0233,0.1635
2.9690,-0.2173,1.0233,0.1635
2.9780,-0.2173,1.0233,0.1635
2.9780,-0.2173,1.0233,0.1635
2.9790,-0.2173,1.0233,0.1635
2.9790,-0.2165,1.0211,0.1640
3.0080,-0.2165,1.0211,0.1640
3.0090,-0.2165,1.0211,0.1640
3.0100,-0.2165,1.0211,0.1640
3.0110,-0.2090,1.0242,0.1623
3.0110,-0.2070,1.0272,0.1615
3.0290,-0.2070,1.0272,0.1615
3.0300,-0.2070,1.0272,0.1615
3.0310,-0.2070,1.0272,0.1615
3.0320,-0.2099,1.0279,0.1647
3.0330,-0.2099,1.0279,0.1647
3.0580,-0.2099,1.0279,0.1647
3.0590,-0.2099,1.0279,0.1647
3.0610,-0.2099,1.0279,0.1647
3.0610,-0.2094,1.0301,0.1650
3.0890,-0.2094,1.0301,0.1650
3.0900,-0.2094,1.0301,0.1650
3.0910,-0.2094,1.0301,0.1650
3.0910,-0.2080,1.0294,0.1633
3.0920,-0.2099,1.0279,0.1591
3.1100,-0.2099,1.0279,0.1591
3.1110,-0.2099,1.0279,0.1591
3.1120,-0.2099,1.0279,0.1591
3.1120,-0.2087,1.0203,0.1615
3.1130,-0.2087,1.0203,0.1615
3.1390,-0.2087,1.0203,0.1615
3.1400,-0.2087,1.0203,0.1615
3.1410,-0.2087,1.0203,0.1615
3.1430,-0.2080,1.0184,0.1620
3.1730,-0.2080,1.0184,0.1620
3.1740,-0.2080,1.0184,0.1620
3.1740,-0.2080,1.0184,0.1620
3.1760,-0.2107,1.0347,0.1689
3.1760,-0.2168,1.0387,0.1640
3.1770,-0.2168,1.0387,0.1640
3.1890,-0.2168,1.0387,0.1640
3.1900,-0.2168,1.0387,0.1640
3.1900,-0.2168,1.0387,0.1640
3.1910,-0.2131,1.0186,0.1545
3.1930,-0.2131,1.0186,0.1545
3.2190,-0.2131,1.0186,0.1545
3.2200,-0.2131,1.0186,0.1545
3.2260,-0.2131,1.0186,0.1545
3.2270,-0.2024,1.0235,0.1623
3.2490,-0.2024,1.0235,0.1623
3.2510,-0.2024,1.0235,0.1623
3.2520,-0.2024,1.0235,0.1623
3.2520,-0.2014,1.0321,0.1633
3.2540,-0.2009,1.0269,0.1635
3.2710,-0.2009,1.0269,0.1635
3.2720,-0.2009,1.0269,0.1635
3.2730,-0.2009,1.0269,0.1635
3.2940,-0.2016,1.0181,0.1647
3.2950,-0.2016,1.0181,0.1647
3.2970,-0.2016,1.0181,0.1647
3.2980,-0.2016,1.0181,0.1647
3.2980,-0.2016,1.0181,0.1647
3.2980,-0.2053,1.0179,0.1637
3.3280,-0.2053,1.0179,0.1637
3.3280,-0.2053,1.0179,0.1637
3.3280,-0.2053,1.0179,0.1637
3.3290,-0.2080,1.0279,0.1679
3.3290,-0.2072,1.0330,0.1659
3.3490,-0.2072,1.0330,0.1659
3.3490,-0.2072,1.0330,0.1659
3.3500,-0.2072,1.0330,0.1659
3.3510,-0.2070,1.0296,0.1672
3.3510,-0.2070,1.0296,0.1672
3.3700,-0.2070,1.0296,0.1672
3.3790,-0.2070,1.0296,0.1672
3.3800,-0.2070,1.0296,0.1672
3.3820,-0.2070,1.0296,0.1672
3.3830,-0.2036,1.0274,0.1730
3.4090,-0.2036,1.0274,0.1730
3.4100,-0.2036,1.0274,0.1730
3.4100,-0.2036,1.0274,0.1730
3.4110,-0.1997,1.0269,0.1725
3.4120,-0.1970,1.0286,0.1701
3.4290,-0.1970,1.0286,0.1701
3.4300,-0.1970,1.0286,0.1701
3.4310,-0.1970,1.0286,0.1701
3.4320,-0.1999,1.0255,0.1679
3.4320,-0.1999,1.0255,0.1679
3.4590,-0.1999,1.0255,0.1679
3.4600,-0.1999,1.0255,0.1679
3.4610,-0.1999,1.0255,0.1679
3.4620,-0.2033,1.0235,0.1645
3.4890,-0.2033,1.0235,0.1645
3.4900,-0.2033,1.0235,0.1645
3.4910,-0.2033,1.0235,0.1645
3.4910,-0.2068,1.0274,0.1615
3.4920,-0.2072,1.0311,0.1618
3.5100,-0.2072,1.0311,0.1618
3.5110,-0.2072,1.0311,0.1618
3.5120,-0.2072,1.0311,0.1618
3.5140,-0.2026,1.0284,0.1659
3.5150,-0.2026,1.0284,0.1659
3.5410,-0.2026,1.0284,0.1659
3.5420,-0.2026,1.0284,0.1659
3.5420,-0.2026,1.0284,0.1659
3.5430,-0.2024,1.0252,0.1701
3.5750,-0.2024,1.0252,0.1701
3.5760,-0.2024,1.0252,0.1701
3.5770,-0.2024,1.0252,0.1701
3.5770,-0.2033,1.0274,0.1672
3.5780,-0.2014,1.0252,0.1662
3.5790,-0.2014,1.0252,0.1662
3.5800,-0.2014,1.0252,0.1662
3.5900,-0.2014,1.0252,0.1662
3.5910,-0.2014,1.0252,0.1662
3.5950,-0.2014,1.0252,0.1662
3.5960,-0.2048,1.0206,0.1689
3.5960,-0.2048,1.0206,0.1689
3.6200,-0.2048,1.0206,0.1689
3.6210,-0.2048,1.0206,0.1689
3.6210,-0.2048,1.0206,0.1689
3.6220,-0.2063,1.0230,0.1677
3.6490,-0.2063,1.0230,0.1677
3.6500,-0.2063,1.0230,0.1677
3.6510,-0.2063,1.0230,0.1677
3.6510,-0.2077,1.0267,0.1677
3.6520,-0.2058,1.0321,0.1618
3.6690,-0.2058,1.0321,0.1618
3.6710,-0.2058,1.0321,0.1618
3.6720,-0.2058,1.0321,0.1618
3.6730,-0.2068,1.0313,0.1623
3.6740,-0.2068,1.0313,0.1623
3.7000,-0.2068,1.0313,0.1623
3.7010,-0.2068,1.0313,0.1623
3.7010,-0.2068,1.0313,0.1623
3.7020,-0.2082,1.0294,0.1606
3.7310,-0.2082,1.0294,0.1606
3.7310,-0.2082,1.0294,0.1606
3.7320,-0.2082,1.0294,0.1606
3.7330,-0.2097,1.0255,0.1642
3.7340,-0.2153,1.0250,0.1672
3.7490,-0.2153,1.0250,0.1672
3.7500,-0.2153,1.0250,0.1672
3.7510,-0.2153,1.0250,0.1672
3.7520,-0.2175,1.0242,0.1645
3.7530,-0.2175,1.0242,0.1645
3.7740,-0.2175,1.0242,0.1645
3.7780,-0.2175,1.0242,0.1645
3.7800,-0.2175,1.0242,0.1645
3.7820,-0.2175,1.0242,0.1645
3.7830,-0.2175,1.0174,0.1598
3.8110,-0.2175,1.0174,0.1598
3.8120,-0.2175,1.0174,0.1598
3.8130,-0.2175,1.0174,0.1598
3.8140,-0.2200,1.0206,0.1581
3.8150,-0.2141,1.0301,0.1640
3.8320,-0.2141,1.0301,0.1640
3.8660,-0.2141,1.0301,0.1640
3.8670,-0.2141,1.0301,0.1640
3.8670,-0.2053,1.0321,0.1694
3.8670,-0.2053,1.0321,0.1694
3.8680,-0.2053,1.0321,0.1694
3.8680,-0.2053,1.0321,0.1694
3.8680,-0.2053,1.0321,0.1694
3.8690,-0.1984,1.0321,0.1677
3.8880,-0.1984,1.0321,0.1677
3.8890,-0.1984,1.0321,0.1677
3.8890,-0.1984,1.0321,0.1677
3.8890,-0.2014,1.0242,0.1674
3.8900,-0.2048,1.0176,0.1664
3.9110,-0.2048,1.0176,0.1664
3.9120,-0.2048,1.0176,0.1664
3.9120,-0.2048,1.0176,0.1664
3.9130,-0.2082,1.0176,0.1655
3.9140,-0.2082,1.0176,0.1655
3.9410,-0.2082,1.0176,0.1655
3.9410,-0.2082,1.0176,0.1655
3.9420,-0.2082,1.0176,0.1655
3.9420,-0.2126,1.0223,0.1672
3.9710,-0.2126,1.0223,0.1672
3.9720,-0.2126,1.0223,0.1672
3.9720,-0.2126,1.0223,0.1672
3.9730,-0.2141,1.0277,0.1657
3.9730,-0.2148,1.0264,0.1630
3.9740,-0.2148,1.0264,0.1630
3.9920,-0.2148,1.0264,0.1630
3.9930,-0.2148,1.0264,0.1630
3.9940,-0.2148,1.0264,0.1630
3.9950,-0.2097,1.0247,0.1640
3.9950,-0.2097,1.0247,0.1640
4.0210,-0.2097,1.0247,0.1640
4.0210,-0.2097,1.0247,0.1640
4.0230,-0.2097,1.0247,0.1640
4.0270,-0.2014,1.0289,0.1664
4.0500,-0.2014,1.0289,0.1664
4.0510,-0.2014,1.0289,0.1664
4.0520,-0.2014,1.0289,0.1664
4.0530,-0.1989,1.0267,0.1657
4.0530,-0.2033,1.0213,0.1662
4.0710,-0.2033,1.0213,0.1662
4.0710,-0.2033,1.0213,0.1662
4.0720,-0.2033,1.0213,0.1662
4.0730,-0.2028,1.0223,0.1650
4.0740,-0.2028,1.0223,0.1650
4.0990,-0.2028,1.0223,0.1650
4.0990,-0.2028,1.0223,0.1650
4.1000,-0.2028,1.0223,0.1650
4.1000,-0.2094,1.0284,0.1686
4.1290,-0.2094,1.0284,0.1686
4.1290,-0.2094,1.0284,0.1686
4.1300,-0.2094,1.0284,0.1686
4.1300,-0.2141,1.0269,0.1642
4.1300,-0.2153,1.0250,0.1669
4.1500,-0.2153,1.0250,0.1669
4.1500,-0.2153,1.0250,0.1669
4.1510,-0.2153,1.0250,0.1669
4.1510,-0.2129,1.0257,0.1694
4.1520,-0.2129,1.0257,0.1694
4.1730,-0.2129,1.0257,0.1694
4.1830,-0.2129,1.0257,0.1694
4.1840,-0.2129,1.0257,0.1694
4.1840,-0.2129,1.0257,0.1694
4.1870,-0.2082,1.0269,0.1642
4.2130,-0.2082,1.0269,0.1642
4.2140,-0.2082,1.0269,0.1642
4.2140,-0.2082,1.0269,0.1642
4.2140,-0.2092,1.0269,0.1608
4.2140,-0.2077,1.0272,0.1630
4.2350,-0.2077,1.0272,0.1630
4.2350,-0.2077,1.0272,0.1630
4.2350,-0.2077,1.0272,0.1630
4.2350,-0.2033,1.0308,0.1686
4.2350,-0.2033,1.0308,0.1686
4.2620,-0.2033,1.0308,0.1686
4.2620,-0.2033,1.0308,0.1686
4.2620,-0.2033,1.0308,0.1686
4.2630,-0.1994,1.0299,0.1745
4.2930,-0.1994,1.0299,0.1745
4.2940,-0.1994,1.0299,0.1745
4.2940,-0.1994,1.0299,0.1745
4.2940,-0.2014,1.0264,0.1703
4.2950,-0.2033,1.0203,0.1686
4.3140,-0.2033,1.0203,0.1686
4.3140,-0.2033,1.0203,0.1686
4.3150,-0.2033,1.0203,0.1686
4.3150,-0.2104,1.0211,0.1667
4.3150,-0.2104,1.0211,0.1667
4.3420,-0.2104,1.0211,0.1667
4.3430,-0.2104,1.0211,0.1667
4.3430,-0.2104,1.0211,0.1667
4.3440,-0.2195,1.0223,0.1633
4.3780,-0.2195,1.0223,0.1633
4.3780,-0.2195,1.0223,0.1633
4.3780,-0.2195,1.0223,0.1633
4.3780,-0.2190,1.0281,0.1593
4.3790,-0.2151,1.0313,0.1591
4.3790,-0.2151,1.0313,0.1591
4.3970,-0.2151,1.0313,0.1591
4.3980,-0.2151,1.0313,0.1591
4.3980,-0.2151,1.0313,0.1591
4.3980,-0.2085,1.0291,0.1603
4.3990,-0.2085,1.0291,0.1603
4.4210,-0.2085,1.0291,0.1603
4.4210,-0.2085,1.0291,0.1603
4.4210,-0.2085,1.0291,0.1603
4.4210,-0.2009,1.0257,0.1598
4.4490,-0.2009,1.0257,0.1598
4.4490,-0.2009,1.0257,0.1598
4.4500,-0.2009,1.0257,0.1598
4.4500,-0.1921,1.0218,0.1681
4.4500,-0.1838,1.0220,0.1645
4.4720,-0.1838,1.0220,0.1645
4.4730,-0.1838,1.0220,0.1645
4.4730,-0.1838,1.0220,0.1645
4.4730,-0.1904,1.0250,0.1618
4.4740,-0.1904,1.0250,0.1618
4.5010,-0.1904,1.0250,0.1618
4.5020,-0.1904,1.0250,0.1618
4.5020,-0.1904,1.0250,0.1618
4.5020,-0.2077,1.0308,0.1662
4.5330,-0.2077,1.0308,0.1662
4.5330,-0.2077,1.0308,0.1662
4.5330,-0.2077,1.0308,0.1662
4.5340,-0.2239,1.0299,0.1674
4.5340,-0.2217,1.0343,0.1667
4.5530,-0.2217,1.0343,0.1667
4.5540,-0.2217,1.0343,0.1667
4.5540,-0.2217,1.0343,0.1667
4.5540,-0.2065,1.0333,0.1664
4.5550,-0.2065,1.0333,0.1664
4.5720,-0.2065,1.0333,0.1664
4.5760,-0.2065,1.0333,0.1664
4.5830,-0.2065,1.0333,0.1664
4.5830,-0.2065,1.0333,0.1664
4.5830,-0.2065,1.0333,0.1664
4.5860,-0.1972,1.0250,0.1674
4.6130,-0.1972,1.0250,0.1674
4.6130,-0.1972,1.0250,0.1674
4.6130,-0.1972,1.0250,0.1674
4.6130,-0.1950,1.0176,0.1750
4.6140,-0.1955,1.0179,0.1728
4.6330,-0.1955,1.0179,0.1728
4.6330,-0.1955,1.0179,0.1728
4.6330,-0.1955,1.0179,0.1728
4.6360,-0.2009,1.0242,0.1667
4.6360,-0.2009,1.0242,0.1667
4.6620,-0.2009,1.0242,0.1667
4.6620,-0.2009,1.0242,0.1667
4.6620,-0.2009,1.0242,0.1667
4.6650,-0.2033,1.0303,0.1672
4.6920,-0.2033,1.0303,0.1672
4.6920,-0.2033,1.0303,0.1672
4.6930,-0.2033,1.0303,0.1672
4.6950,-0.2090,1.0316,0.1647
4.6960,-0.2058,1.0296,0.1645
4.7140,-0.2058,1.0296,0.1645
4.7140,-0.2058,1.0296,0.1645
4.7150,-0.2058,1.0296,0.1645
4.7150,-0.2011,1.0223,0.1677
4.7160,-0.2011,1.0223,0.1677
4.7430,-0.2011,1.0223,0.1677
4.7430,-0.2011,1.0223,0.1677
4.7440,-0.2011,1.0223,0.1677
4.7470,-0.1999,1.0211,0.1684
4.7750,-0.1999,1.0211,0.1684
4.7750,-0.1999,1.0211,0.1684
4.7750,-0.1999,1.0211,0.1684
4.7760,-0.2004,1.0242,0.1681
4.7760,-0.2065,1.0208,0.1689
4.7790,-0.2065,1.0208,0.1689
4.7920,-0.2065,1.0208,0.1689
4.7950,-0.2065,1.0208,0.1689
4.7960,-0.2065,1.0208,0.1689
4.7960,-0.2092,1.0245,0.1713
4.7960,-0.2092,1.0245,0.1713
4.8210,-0.2092,1.0245,0.1713
4.8220,-0.2092,1.0245,0.1713
4.8220,-0.2092,1.0245,0.1713
4.8240,-0.2102,1.0274,0.1640
4.8530,-0.2102,1.0274,0.1640
4.8530,-0.2102,1.0274,0.1640
4.8530,-0.2102,1.0274,0.1640
4.8530,-0.2143,1.0237,0.1620
4.8540,-0.2148,1.0228,0.1701
4.8720,-0.2148,1.0228,0.1701
4.8720,-0.2148,1.0228,0.1701
4.8720,-0.2148,1.0228,0.1701
4.8750,-0.2097,1.0269,0.1750
4.8750,-0.2097,1.0269,0.1750
4.9020,-0.2097,1.0269,0.1750
4.9020,-0.2097,1.0269,0.1750
4.9020,-0.2097,1.0269,0.1750
4.9050,-0.2046,1.0281,0.1779
4.9330,-0.2046,1.0281,0.1779
4.9330,-0.2046,1.0281,0.1779
4.9330,-0.2046,1.0281,0.1779
4.9360,-0.2014,1.0242,0.1745
4.9460,-0.2028,1.0247,0.1647
4.9520,-0.2028,1.0247,0.1647
4.9520,-0.2028,1.0247,0.1647
4.9530,-0.2028,1.0247,0.1647
4.9540,-0.2050,1.0272,0.1581
4.9550,-0.2050,1.0272,0.1581
4.9710,-0.2050,1.0272,0.1581
4.9820,-0.2050,1.0272,0.1581
4.9820,-0.2050,1.0272,0.1581
4.9830,-0.2050,1.0272,0.1581
4.9850,-0.2075,1.0306,0.1620
5.0130,-0.2075,1.0306,0.1620
5.0140,-0.2075,1.0306,0.1620
5.0140,-0.2075,1.0306,0.1620
5.0150,-0.2068,1.0252,0.1662
5.0150,-0.2080,1.0245,0.1721
5.0330,-0.2080,1.0245,0.1721
5.0340,-0.2080,1.0245,0.1721
5.0340,-0.2080,1.0245,0.1721
5.0340,-0.2038,1.0196,0.1799
5.0350,-0.2038,1.0196,0.1799
5.0620,-0.2038,1.0196,0.1799
5.0620,-0.2038,1.0196,0.1799
5.0630,-0.2038,1.0196,0.1799
5.0640,-0.1948,1.0218,0.1745
5.0930,-0.1948,1.0218,0.1745
5.0930,-0.1948,1.0218,0.1745
5.0940,-0.1948,1.0218,0.1745
5.0940,-0.1948,1.0274,0.1635
5.0950,-0.1999,1.0279,0.1628
5.1130,-0.1999,1.0279,0.1628
5.1140,-0.1999,1.0279,0.1628
5.1140,-0.1999,1.0279,0.1628
5.1150,-0.2053,1.0291,0.1635
5.1150,-0.2053,1.0291,0.1635
5.1420,-0.2053,1.0291,0.1635
5.1430,-0.2053,1.0291,0.1635
5.1430,-0.2053,1.0291,0.1635
5.1440,-0.2053,1.0301,0.1645
5.1690,-0.2053,1.0301,0.1645
5.1740,-0.2053,1.0301,0.1645
5.1750,-0.2053,1.0301,0.1645
5.1750,-0.2053,1.0301,0.1645
5.1760,-0.2055,1.0220,0.1662
5.1770,-0.2097,1.0174,0.1679
5.1930,-0.2097,1.0174,0.1679
5.1940,-0.2097,1.0174,0.1679
5.1940,-0.2097,1.0174,0.1679
5.1970,-0.2124,1.0198,0.1706
5.1970,-0.2124,1.0198,0.1706
5.2230,-0.2124,1.0198,0.1706
5.2230,-0.2124,1.0198,0.1706
5.2230,-0.2124,1.0198,0.1706
5.2250,-0.2099,1.0286,0.1723
5.2530,-0.2099,1.0286,0.1723
5.2530,-0.2099,1.0286,0.1723
5.2530,-0.2099,1.0286,0.1723
5.2540,-0.2075,1.0338,0.1689
5.2540,-0.2041,1.0338,0.1655
5.2730,-0.2041,1.0338,0.1655
5.2740,-0.2041,1.0338,0.1655
5.2740,-0.2041,1.0338,0.1655
5.2760,-0.1953,1.0269,0.1664
5.2770,-0.1953,1.0269,0.1664
5.3020,-0.1953,1.0269,0.1664
5.3020,-0.1953,1.0269,0.1664
5.3020,-0.1953,1.0269,0.1664
5.3050,-0.1896,1.0228,0.1730
5.3330,-0.1896,1.0228,0.1730
5.3340,-0.1896,1.0228,0.1730
5.3340,-0.1896,1.0228,0.1730
5.3350,-0.1936,1.0213,0.1740
5.3350,-0.2016,1.0267,0.1684
5.3540,-0.2016,1.0267,0.1684
5.3540,-0.2016,1.0267,0.1684
5.3550,-0.2016,1.0267,0.1684
5.3550,-0.2112,1.0264,0.1647
5.3560,-0.2112,1.0264,0.1647
5.3740,-0.2112,1.0264,0.1647
5.3810,-0.2112,1.0264,0.1647
5.3820,-0.2112,1.0264,0.1647
5.3820,-0.2112,1.0264,0.1647
5.3830,-0.2182,1.0267,0.1637
5.4140,-0.2182,1.0267,0.1637
5.4140,-0.2182,1.0267,0.1637
5.4150,-0.2182,1.0267,0.1637
5.4150,-0.2141,1.0279,0.1657
5.4150,-0.2065,1.0313,0.1713
5.4340,-0.2065,1.0313,0.1713
5.4340,-0.2065,1.0313,0.1713
5.4350,-0.2065,1.0313,0.1713
5.4350,-0.2011,1.0211,0.1711
5.4360,-0.2011,1.0211,0.1711
5.4630,-0.2011,1.0211,0.1711
5.4640,-0.2011,1.0211,0.1711
5.4640,-0.2011,1.0211,0.1711
5.4640,-0.1955,1.0164,0.1730
5.4930,-0.1955,1.0164,0.1730
5.4940,-0.1955,1.0164,0.1730
5.4940,-0.1955,1.0164,0.1730
5.5030,-0.1921,1.0181,0.1769
5.5040,-0.1926,1.0240,0.1672
5.5110,-0.1926,1.0240,0.1672
5.5120,-0.1926,1.0240,0.1672
5.5120,-0.1926,1.0240,0.1672
5.5130,-0.2041,1.0235,0.1608
5.5140,-0.2041,1.0235,0.1608
5.5410,-0.2041,1.0235,0.1608
5.5410,-0.2041,1.0235,0.1608
5.5420,-0.2041,1.0235,0.1608
5.5420,-0.2175,1.0218,0.1642
5.5700,-0.2175,1.0218,0.1642
5.5740,-0.2175,1.0218,0.1642
5.5750,-0.2175,1.0218,0.1642
5.5750,-0.2175,1.0218,0.1642
5.5750,-0.2190,1.0259,0.1681
5.5750,-0.2148,1.0306,0.1686
5.5920,-0.2148,1.0306,0.1686
5.5920,-0.2148,1.0306,0.1686
5.5920,-0.2148,1.0306,0.1686
5.5920,-0.2102,1.0274,0.1657
5.5920,-0.2102,1.0274,0.1657
5.6210,-0.2102,1.0274,0.1657
5.6220,-0.2102,1.0274,0.1657
5.6220,-0.2102,1.0274,0.1657
5.6230,-0.2048,1.0255,0.1642
5.6510,-0.2048,1.0255,0.1642
5.6510,-0.2048,1.0255,0.1642
5.6520,-0.2048,1.0255,0.1642
5.6520,-0.2006,1.0259,0.1662
5.6520,-0.2028,1.0245,0.1681
5.6710,-0.2028,1.0245,0.1681
5.6710,-0.2028,1.0245,0.1681
5.6720,-0.2028,1.0245,0.1681
5.6720,-0.2050,1.0262,0.1645
5.6720,-0.2050,1.0262,0.1645
5.7010,-0.2050,1.0262,0.1645
5.7010,-0.2050,1.0262,0.1645
5.7020,-0.2050,1.0262,0.1645
5.7020,-0.2063,1.0296,0.1625
5.7330,-0.2063,1.0296,0.1625
5.7330,-0.2063,1.0296,0.1625
5.7330,-0.2063,1.0296,0.1625
5.7330,-0.2072,1.0281,0.1667
5.7340,-0.2048,1.0277,0.1696
5.7530,-0.2048,1.0277,0.1696
5.7530,-0.2048,1.0277,0.1696
5.7540,-0.2048,1.0277,0.1696
5.7540,-0.2041,1.0259,0.1684
5.7540,-0.2041,1.0259,0.1684
5.7730,-0.2041,1.0259,0.1684
5.7730,-0.2041,1.0259,0.1684
5.7850,-0.2041,1.0259,0.1684
5.7850,-0.2041,1.0259,0.1684
5.7850,-0.2041,1.0259,0.1684
5.7860,-0.2046,1.0225,0.1677
5.8120,-0.2046,1.0225,0.1677
5.8120,-0.2046,1.0225,0.1677
5.8130,-0.2046,1.0225,0.1677
5.8130,-0.2055,1.0211,0.1662
5.8130,-0.2065,1.0228,0.1679
5.8330,-0.2065,1.0228,0.1679
5.8330,-0.2065,1.0228,0.1679
5.8330,-0.2065,1.0228,0.1679
5.8340,-0.2028,1.0279,0.1713
5.8340,-0.2028,1.0279,0.1713
5.8630,-0.2028,1.0279,0.1713
5.8630,-0.2028,1.0279,0.1713
5.8630,-0.2028,1.0279,0.1713
5.8630,-0.2009,1.0306,0.1716
5.8920,-0.2009,1.0306,0.1716
5.8930,-0.2009,1.0306,0.1716
5.8930,-0.2009,1.0306,0.1716
5.8940,-0.1984,1.0267,0.1681
5.8940,-0.2026,1.0230,0.1664
5.9130,-0.2026,1.0230,0.1664
5.9140,-0.2026,1.0230,0.1664
5.9140,-0.2026,1.0230,0.1664
5.9140,-0.2065,1.0267,0.1650
5.9150,-0.2065,1.0267,0.1650
5.9450,-0.2065,1.0267,0.1650
5.9450,-0.2065,1.0267,0.1650
5.9450,-0.2065,1.0267,0.1650
5.9450,-0.2092,1.0279,0.1667
5.9700,-0.2092,1.0279,0.1667
5.9730,-0.2092,1.0279,0.1667
5.9740,-0.2092,1.0279,0.1667
5.9740,-0.2092,1.0279,0.1667
6.0900,-0.2090,1.0286,0.1667
6.0900,-0.2065,1.0262,0.1677
6.0940,-0.2065,1.0262,0.1677
6.0950,-0.2065,1.0262,0.1677
6.0950,-0.2065,1.0262,0.1677
6.0950,-0.2065,1.0262,0.1677
6.0950,-0.2065,1.0262,0.1677
6.0960,-0.2065,1.0262,0.1677
6.0960,-0.2065,1.0262,0.1677
6.0960,-0.2065,1.0262,0.1677
6.0970,-0.2065,1.0262,0.1677
6.0970,-0.2065,1.0262,0.1677
6.1080,-0.2065,1.0262,0.1677
6.1090,-0.2065,1.0262,0.1677
6.1090,-0.2065,1.0262,0.1677
6.1090,-0.2065,1.0262,0.1677
6.1100,-0.2041,1.0220,0.1681
6.1100,-0.2038,1.0235,0.1650
6.1100,-0.2065,1.0242,0.1659
6.1110,-0.2090,1.0262,0.1699
6.1110,-0.2065,1.0252,0.1730
6.1110,-0.2053,1.0242,0.1684
6.1120,-0.2053,1.0242,0.1684
6.1120,-0.2053,1.0242,0.1684
6.1230,-0.2053,1.0242,0.1684
6.1230,-0.2053,1.0242,0.1684
6.1240,-0.2053,1.0242,0.1684
6.1240,-0.2058,1.0296,0.1635
6.1530,-0.2058,1.0296,0.1635
6.1530,-0.2058,1.0296,0.1635
6.1540,-0.2058,1.0296,0.1635
6.1540,-0.2058,1.0296,0.1635
6.1550,-0.2099,1.0299,0.1640
6.1550,-0.2114,1.0257,0.1703
6.1550,-0.2114,1.0257,0.1703
6.1700,-0.2114,1.0257,0.1703
6.1740,-0.2114,1.0257,0.1703
6.1830,-0.2114,1.0257,0.1703
6.1830,-0.2114,1.0257,0.1703
6.1830,-0.2114,1.0257,0.1703
6.1830,-0.2104,1.0250,0.1694
6.2130,-0.2104,1.0250,0.1694
6.2140,-0.2104,1.0250,0.1694
6.2140,-0.2104,1.0250,0.1694
6.2140,-0.2094,1.0252,0.1711
6.2140,-0.2070,1.0274,0.1701
6.2330,-0.2070,1.0274,0.1701
6.2330,-0.2070,1.0274,0.1701
6.2340,-0.2070,1.0274,0.1701
6.2340,-0.2082,1.0277,0.1650
6.2340,-0.2082,1.0277,0.1650
6.2660,-0.2082,1.0277,0.1650
6.2670,-0.2082,1.0277,0.1650
6.2670,-0.2082,1.0277,0.1650
6.2670,-0.2085,1.0255,0.1618
6.2940,-0.2085,1.0255,0.1618
6.2940,-0.2085,1.0255,0.1618
6.2950,-0.2085,1.0255,0.1618
6.2950,-0.2121,1.0245,0.1611
6.2960,-0.2148,1.0245,0.1637
6.3140,-0.2148,1.0245,0.1637
6.3150,-0.2148,1.0245,0.1637
6.3150,-0.2148,1.0245,0.1637
6.3160,-0.2148,1.0211,0.1652
6.3160,-0.2148,1.0211,0.1652
6.3470,-0.2148,1.0211,0.1652
6.3470,-0.2148,1.0211,0.1652
6.3470,-0.2148,1.0211,0.1652
6.3470,-0.2119,1.0240,0.1667
6.3770,-0.2119,1.0240,0.1667
6.3770,-0.2119,1.0240,0.1667
6.3780,-0.2119,1.0240,0.1667
6.3780,-0.2119,1.0240,0.1667
6.3780,-0.2109,1.0230,0.1664
6.3790,-0.2107,1.0257,0.1689
6.3790,-0.2107,1.0257,0.1689
6.3950,-0.2107,1.0257,0.1689
6.3950,-0.2107,1.0257,0.1689
6.3960,-0.2107,1.0257,0.1689
6.3960,-0.2146,1.0301,0.1647
6.3970,-0.2146,1.0301,0.1647
6.4260,-0.2146,1.0301,0.1647
6.4260,-0.2146,1.0301,0.1647
6.4270,-0.2146,1.0301,0.1647
6.4270,-0.2153,1.0281,0.1623
6.4550,-0.2153,1.0281,0.1623
6.4550,-0.2153,1.0281,0.1623
6.4560,-0.2153,1.0281,0.1623
6.4560,-0.2146,1.0240,0.1672
6.4570,-0.2126,1.0228,0.1721
6.4750,-0.2126,1.0228,0.1721
6.4760,-0.2126,1.0228,0.1721
6.4760,-0.2126,1.0228,0.1721
6.4760,-0.2082,1.0198,0.1733
6.4760,-0.2082,1.0198,0.1733
6.5050,-0.2082,1.0198,0.1733
6.5050,-0.2082,1.0198,0.1733
6.5050,-0.2082,1.0198,0.1733
6.5060,-0.2070,1.0262,0.1662
6.5350,-0.2070,1.0262,0.1662
6.5350,-0.2070,1.0262,0.1662
6.5360,-0.2070,1.0262,0.1662
6.5360,-0.2068,1.0308,0.1657
6.5370,-0.2038,1.0299,0.1674
6.5550,-0.2038,1.0299,0.1674
6.5560,-0.2038,1.0299,0.1674
6.5560,-0.2038,1.0299,0.1674
6.5560,-0.2011,1.0228,0.1694
6.5570,-0.2011,1.0228,0.1694
6.5750,-0.2011,1.0228,0.1694
6.5830,-0.2011,1.0228,0.1694
6.5840,-0.2011,1.0228,0.1694
6.6010,-0.2011,1.0228,0.1694
6.6010,-0.2002,1.0196,0.1706
6.6160,-0.2002,1.0196,0.1706
6.6170,-0.2002,1.0196,0.1706
6.6170,-0.2002,1.0196,0.1706
6.6180,-0.2019,1.0201,0.1696
6.6180,-0.2065,1.0274,0.1684
6.6330,-0.2065,1.0274,0.1684
6.6330,-0.2065,1.0274,0.1684
6.6330,-0.2065,1.0274,0.1684
6.6340,-0.2134,1.0330,0.1598
6.6340,-0.2134,1.0330,0.1598
6.6640,-0.2134,1.0330,0.1598
6.6650,-0.2134,1.0330,0.1598
6.6650,-0.2134,1.0330,0.1598
6.6650,-0.2129,1.0303,0.1669
6.6930,-0.2129,1.0303,0.1669
6.6940,-0.2129,1.0303,0.1669
6.6940,-0.2129,1.0303,0.1669
6.6940,-0.2080,1.0296,0.1703
6.6940,-0.2033,1.0279,0.1642
6.7140,-0.2033,1.0279,0.1642
6.7140,-0.2033,1.0279,0.1642
6.7150,-0.2033,1.0279,0.1642
6.7150,-0.2014,1.0286,0.1618
6.7160,-0.2014,1.0286,0.1618
6.7440,-0.2014,1.0286,0.1618
6.7440,-0.2014,1.0286,0.1618
6.7450,-0.2014,1.0286,0.1618
6.7470,-0.2038,1.0262,0.1645
6.7750,-0.2038,1.0262,0.1645
6.7750,-0.2038,1.0262,0.1645
6.7750,-0.2038,1.0262,0.1645
6.7760,-0.2038,1.0262,0.1645
6.7790,-0.2048,1.0196,0.1718
6.7790,-0.2033,1.0220,0.1718
6.7800,-0.2033,1.0220,0.1718
6.7940,-0.2033,1.0220,0.1718
6.7940,-0.2033,1.0220,0.1718
6.7950,-0.2033,1.0220,0.1718
6.7950,-0.2033,1.0240,0.1711
6.7950,-0.2033,1.0240,0.1711
6.8270,-0.2033,1.0240,0.1711
6.8280,-0.2033,1.0240,0.1711
6.8280,-0.2033,1.0240,0.1711
6.8280,-0.2070,1.0240,0.1679
6.8530,-0.2070,1.0240,0.1679
6.8530,-0.2070,1.0240,0.1679
6.8540,-0.2070,1.0240,0.1679
6.8540,-0.2082,1.0269,0.1664
6.8550,-0.2085,1.0303,0.1696
6.8750,-0.2085,1.0303,0.1696
6.8750,-0.2085,1.0303,0.1696
6.8760,-0.2085,1.0303,0.1696
6.8760,-0.2028,1.0274,0.1691
6.8770,-0.2028,1.0274,0.1691
6.9050,-0.2028,1.0274,0.1691
6.9050,-0.2028,1.0274,0.1691
6.9060,-0.2028,1.0274,0.1691
6.9060,-0.1977,1.0257,0.1711
6.9340,-0.1977,1.0257,0.1711
6.9340,-0.1977,1.0257,0.1711
6.9340,-0.1977,1.0257,0.1711
6.9340,-0.1948,1.0267,0.1738
6.9350,-0.1943,1.0294,0.1742
6.9550,-0.1943,1.0294,0.1742
6.9550,-0.1943,1.0294,0.1742
6.9550,-0.1943,1.0294,0.1742
6.9550,-0.1977,1.0269,0.1686
6.9560,-0.1977,1.0269,0.1686
6.9740,-0.1977,1.0269,0.1686
6.9860,-0.1977,1.0269,0.1686
6.9860,-0.1977,1.0269,0.1686
6.9870,-0.1977,1.0269,0.1686
6.9870,-0.2004,1.0213,0.1664
7.0150,-0.2004,1.0213,0.1664
7.0150,-0.2004,1.0213,0.1664
7.0150,-0.2004,1.0213,0.1664
7.0150,-0.2058,1.0230,0.1655
7.0160,-0.2104,1.0277,0.1674
7.0350,-0.2104,1.0277,0.1674
7.0350,-0.2104,1.0277,0.1674
7.0360,-0.2104,1.0277,0.1674
7.0360,-0.2099,1.0318,0.1659
7.0370,-0.2099,1.0318,0.1659
7.0660,-0.2099,1.0318,0.1659
7.0670,-0.2099,1.0318,0.1659
7.0670,-0.2099,1.0318,0.1659
7.0680,-0.2060,1.0308,0.1642
7.0960,-0.2060,1.0308,0.1642
7.0970,-0.2060,1.0308,0.1642
7.0970,-0.2060,1.0308,0.1642
7.0980,-0.2058,1.0279,0.1691
7.0980,-0.1999,1.0259,0.1733
7.1160,-0.1999,1.0259,0.1733
7.1170,-0.1999,1.0259,0.1733
7.1170,-0.1999,1.0259,0.1733
7.1170,-0.1943,1.0230,0.1728
7.1180,-0.1943,1.0230,0.1728
7.1460,-0.1943,1.0230,0.1728
7.1650,-0.1943,1.0230,0.1728
7.1650,-0.1943,1.0230,0.1728
7.1650,-0.1948,1.0242,0.1684
7.1690,-0.1948,1.0242,0.1684
7.1760,-0.1948,1.0242,0.1684
7.1760,-0.1948,1.0242,0.1684
7.1760,-0.1948,1.0242,0.1684
7.1760,-0.2004,1.0252,0.1684
7.1770,-0.2016,1.0272,0.1664
7.1940,-0.2016,1.0272,0.1664
7.1940,-0.2016,1.0272,0.1664
7.1950,-0.2016,1.0272,0.1664
7.1950,-0.1977,1.0250,0.1679
7.1950,-0.1977,1.0250,0.1679
7.2270,-0.1977,1.0250,0.1679
7.2270,-0.1977,1.0250,0.1679
7.2270,-0.1977,1.0250,0.1679
7.2280,-0.1994,1.0252,0.1711
7.2550,-0.1994,1.0252,0.1711
7.2550,-0.1994,1.0252,0.1711
7.2560,-0.1994,1.0252,0.1711
7.2560,-0.1992,1.0255,0.1735
7.2560,-0.1980,1.0250,0.1733
7.2750,-0.1980,1.0250,0.1733
7.2760,-0.1980,1.0250,0.1733
7.2760,-0.1980,1.0250,0.1733
7.2760,-0.1987,1.0259,0.1708
7.2770,-0.1987,1.0259,0.1708
7.3050,-0.1987,1.0259,0.1708
7.3060,-0.1987,1.0259,0.1708
7.3060,-0.1987,1.0259,0.1708
7.3080,-0.1960,1.0250,0.1713
7.3350,-0.1960,1.0250,0.1713
7.3350,-0.1960,1.0250,0.1713
7.3350,-0.1960,1.0250,0.1713
7.3360,-0.1948,1.0264,0.1718
7.3360,-0.1970,1.0245,0.1728
7.3570,-0.1970,1.0245,0.1728
7.3570,-0.1970,1.0245,0.1728
7.3580,-0.1970,1.0245,0.1728
7.3580,-0.2011,1.0230,0.1689
7.3590,-0.2011,1.0230,0.1689
7.3750,-0.2011,1.0230,0.1689
7.3860,-0.2011,1.0230,0.1689
7.3870,-0.2011,1.0230,0.1689
7.3870,-0.2011,1.0230,0.1689
7.3870,-0.2050,1.0252,0.1672
7.4170,-0.2050,1.0252,0.1672
7.4170,-0.2050,1.0252,0.1672
7.4170,-0.2050,1.0252,0.1672
7.4170,-0.2097,1.0259,0.1686
7.4180,-0.2085,1.0277,0.1718
7.4360,-0.2085,1.0277,0.1718
7.4360,-0.2085,1.0277,0.1718
7.4370,-0.2085,1.0277,0.1718
7.4370,-0.2063,1.0303,0.1738
7.4370,-0.2063,1.0303,0.1738
7.4680,-0.2063,1.0303,0.1738
7.4680,-0.2063,1.0303,0.1738
7.4680,-0.2063,1.0303,0.1738
7.4690,-0.2053,1.0311,0.1721
7.4960,-0.2053,1.0311,0.1721
7.4960,-0.2053,1.0311,0.1721
7.4970,-0.2053,1.0311,0.1721
7.4970,-0.2002,1.0279,0.1642
7.4970,-0.1958,1.0233,0.1669
7.5160,-0.1958,1.0233,0.1669
7.5160,-0.1958,1.0233,0.1669
7.5170,-0.1958,1.0233,0.1669
7.5170,-0.2011,1.0233,0.1706
7.5180,-0.2011,1.0233,0.1706
7.5470,-0.2011,1.0233,0.1706
7.5480,-0.2011,1.0233,0.1706
7.5480,-0.2011,1.0233,0.1706
7.5480,-0.2075,1.0245,0.1701
7.5720,-0.2075,1.0245,0.1701
7.5770,-0.2075,1.0245,0.1701
7.5770,-0.2075,1.0245,0.1701
7.5770,-0.2075,1.0245,0.1701
7.5780,-0.2114,1.0274,0.1664
7.5780,-0.2124,1.0267,0.1662
7.5960,-0.2124,1.0267,0.1662
7.5970,-0.2124,1.0267,0.1662
7.5970,-0.2124,1.0267,0.1662
7.5970,-0.2080,1.0235,0.1677
7.5970,-0.2080,1.0235,0.1677
7.6270,-0.2080,1.0235,0.1677
7.6270,-0.2080,1.0235,0.1677
7.6280,-0.2080,1.0235,0.1677
7.6280,-0.2036,1.0247,0.1645
7.6560,-0.2036,1.0247,0.1645
7.6560,-0.2036,1.0247,0.1645
7.6560,-0.2036,1.0247,0.1645
7.6570,-0.2053,1.0267,0.1691
7.6570,-0.2082,1.0259,0.1723
7.6770,-0.2082,1.0259,0.1723
7.6770,-0.2082,1.0259,0.1723
7.6770,-0.2082,1.0259,0.1723
7.6770,-0.2070,1.0225,0.1691
7.6780,-0.2070,1.0225,0.1691
7.7080,-0.2070,1.0225,0.1691
7.7100,-0.2070,1.0225,0.1691
7.7110,-0.2070,1.0225,0.1691
7.7130,-0.2031,1.0250,0.1664
7.7350,-0.2031,1.0250,0.1664
7.7350,-0.2031,1.0250,0.1664
7.7350,-0.2031,1.0250,0.1664
7.7350,-0.2028,1.0299,0.1691
7.7350,-0.2041,1.0281,0.1691
7.7550,-0.2041,1.0281,0.1691
7.7550,-0.2041,1.0281,0.1691
7.7550,-0.2041,1.0281,0.1691
7.7560,-0.1989,1.0262,0.1725
7.7560,-0.1989,1.0262,0.1725
7.7710,-0.1989,1.0262,0.1725
7.7860,-0.1989,1.0262,0.1725
7.7860,-0.1989,1.0262,0.1725
7.7860,-0.1989,1.0262,0.1725
7.7870,-0.1992,1.0255,0.1755
7.8170,-0.1992,1.0255,0.1755
7.8170,-0.1992,1.0255,0.1755
7.8180,-0.1992,1.0255,0.1755
7.8180,-0.1970,1.0252,0.1755
7.8180,-0.1980,1.0257,0.1725
7.8360,-0.1980,1.0257,0.1725
7.8360,-0.1980,1.0257,0.1725
7.8370,-0.1980,1.0257,0.1725
7.8370,-0.2004,1.0281,0.1699
7.8370,-0.2004,1.0281,0.1699
7.8650,-0.2004,1.0281,0.1699
7.8650,-0.2004,1.0281,0.1699
7.8660,-0.2004,1.0281,0.1699
7.8660,-0.2004,1.0306,0.1672
7.8940,-0.2004,1.0306,0.1672
7.8940,-0.2004,1.0306,0.1672
7.8940,-0.2004,1.0306,0.1672
7.8950,-0.2011,1.0311,0.1650
7.8950,-0.2036,1.0257,0.1652
7.9160,-0.2036,1.0257,0.1652
7.9160,-0.2036,1.0257,0.1652
7.9170,-0.2036,1.0257,0.1652
7.9170,-0.2058,1.0225,0.1669
7.9170,-0.2058,1.0225,0.1669
7.9450,-0.2058,1.0225,0.1669
7.9450,-0.2058,1.0225,0.1669
7.9460,-0.2058,1.0225,0.1669
7.9460,-0.2075,1.0247,0.1703
7.9740,-0.2075,1.0247,0.1703
7.9740,-0.2075,1.0247,0.1703
7.9780,-0.2075,1.0247,0.1703
7.9790,-0.2075,1.0247,0.1703
7.9790,-0.2075,1.0247,0.1703
7.9790,-0.2065,1.0269,0.1674
7.9800,-0.2065,1.0240,0.1696
7.9960,-0.2065,1.0240,0.1696
7.9960,-0.2065,1.0240,0.1696
7.9970,-0.2065,1.0240,0.1696
7.9970,-0.2055,1.0245,0.1711
7.9970,-0.2055,1.0245,0.1711
8.0270,-0.2055,1.0245,0.1711
8.0270,-0.2055,1.0245,0.1711
8.0280,-0.2055,1.0245,0.1711
8.0280,-0.2033,1.0220,0.1706
8.0560,-0.2033,1.0220,0.1706
8.0560,-0.2033,1.0220,0.1706
8.0570,-0.2033,1.0220,0.1706
8.0570,-0.2055,1.0179,0.1721
8.0570,-0.2104,1.0211,0.1735
8.0760,-0.2104,1.0211,0.1735
8.0760,-0.2104,1.0211,0.1735
8.0770,-0.2104,1.0211,0.1735
8.0770,-0.2063,1.0230,0.1747
8.0770,-0.2063,1.0230,0.1747
8.1090,-0.2063,1.0230,0.1747
8.1090,-0.2063,1.0230,0.1747
8.1090,-0.2063,1.0230,0.1747
8.1100,-0.1999,1.0264,0.1723
8.1370,-0.1999,1.0264,0.1723
8.1370,-0.1999,1.0264,0.1723
8.1370,-0.1999,1.0264,0.1723
8.1380,-0.1997,1.0281,0.1679
8.1380,-0.1980,1.0286,0.1708
8.1570,-0.1980,1.0286,0.1708
8.1570,-0.1980,1.0286,0.1708
8.1570,-0.1980,1.0286,0.1708
8.1580,-0.1980,1.0289,0.1689
8.1580,-0.1980,1.0289,0.1689
8.1730,-0.1980,1.0289,0.1689
8.1740,-0.1980,1.0289,0.1689
8.1850,-0.1980,1.0289,0.1689
8.1850,-0.1980,1.0289,0.1689
8.1850,-0.1980,1.0289,0.1689
8.1860,-0.1997,1.0267,0.1677
8.2160,-0.1997,1.0267,0.1677
8.2160,-0.1997,1.0267,0.1677
8.2170,-0.1997,1.0267,0.1677
8.2170,-0.2021,1.0299,0.1689
8.2170,-0.2002,1.0267,0.1713
8.2370,-0.2002,1.0267,0.1713
8.2370,-0.2002,1.0267,0.1713
8.2580,-0.2002,1.0267,0.1713
8.2580,-0.1994,1.0245,0.1745
8.2580,-0.1994,1.0245,0.1745
8.2650,-0.1994,1.0245,0.1745
8.2650,-0.1994,1.0245,0.1745
8.2650,-0.1994,1.0245,0.1745
8.2650,-0.1984,1.0235,0.1713
8.2950,-0.1984,1.0235,0.1713
8.2950,-0.1984,1.0235,0.1713
8.2950,-0.1984,1.0235,0.1713
8.2960,-0.2024,1.0235,0.1684
8.2960,-0.2068,1.0235,0.1672
8.3160,-0.2068,1.0235,0.1672
8.3170,-0.2068,1.0235,0.1672
8.3170,-0.2068,1.0235,0.1672
8.3170,-0.2065,1.0262,0.1740
8.3180,-0.2065,1.0262,0.1740
8.3460,-0.2065,1.0262,0.1740
8.3470,-0.2065,1.0262,0.1740
8.3470,-0.2065,1.0262,0.1740
8.3470,-0.2031,1.0291,0.1721
8.3710,-0.2031,1.0291,0.1721
8.3770,-0.2031,1.0291,0.1721
8.3770,-0.2031,1.0291,0.1721
8.3780,-0.2031,1.0291,0.1721
8.3780,-0.1987,1.0284,0.1699
8.3780,-0.1987,1.0264,0.1672
8.3970,-0.1987,1.0264,0.1672
8.3980,-0.1987,1.0264,0.1672
8.3980,-0.1987,1.0264,0.1672
8.3980,-0.2019,1.0237,0.1686
8.3990,-0.2019,1.0237,0.1686
8.4270,-0.2019,1.0237,0.1686
8.4280,-0.2019,1.0237,0.1686
8.4280,-0.2019,1.0237,0.1686
8.4280,-0.2043,1.0242,0.1706
8.4560,-0.2043,1.0242,0.1706
8.4560,-0.2043,1.0242,0.1706
8.4570,-0.2043,1.0242,0.1706
8.4570,-0.2055,1.0259,0.1772
8.4570,-0.2033,1.0264,0.1742
8.4770,-0.2033,1.0264,0.1742
8.4780,-0.2033,1.0264,0.1742
8.4780,-0.2033,1.0264,0.1742
8.4780,-0.1965,1.0257,0.1721
8.4810,-0.1965,1.0257,0.1721
8.5070,-0.1965,1.0257,0.1721
8.5070,-0.1965,1.0257,0.1721
8.5080,-0.1965,1.0257,0.1721
8.5080,-0.1948,1.0245,0.1723
8.5380,-0.1948,1.0245,0.1723
8.5390,-0.1948,1.0245,0.1723
8.5390,-0.1948,1.0245,0.1723
8.5390,-0.1970,1.0284,0.1708
8.5400,-0.1938,1.0318,0.1696
8.5580,-0.1938,1.0318,0.1696
8.5580,-0.1938,1.0318,0.1696
8.5590,-0.1938,1.0318,0.1696
8.5590,-0.1967,1.0279,0.1742
8.5600,-0.1967,1.0279,0.1742
8.5750,-0.1967,1.0279,0.1742
8.5750,-0.1967,1.0279,0.1742
8.5880,-0.1967,1.0279,0.1742
8.5880,-0.1967,1.0279,0.1742
8.5890,-0.1967,1.0279,0.1742
8.5910,-0.2026,1.0272,0.1718
8.6160,-0.2026,1.0272,0.1718
8.6170,-0.2026,1.0272,0.1718
8.6170,-0.2026,1.0272,0.1718
8.6170,-0.1972,1.0299,0.1742
8.6180,-0.1938,1.0267,0.1764
8.6370,-0.1938,1.0267,0.1764
8.6370,-0.1938,1.0267,0.1764
8.6380,-0.1938,1.0267,0.1764
8.6380,-0.1945,1.0206,0.1696
8.6380,-0.1945,1.0206,0.1696
8.6660,-0.1945,1.0206,0.1696
8.6660,-0.1945,1.0206,0.1696
8.6670,-0.1945,1.0206,0.1696
8.6670,-0.1980,1.0250,0.1703
8.6970,-0.1980,1.0250,0.1703
8.6980,-0.1980,1.0250,0.1703
8.6980,-0.1980,1.0250,0.1703
8.6980,-0.1989,1.0289,0.1713
8.6990,-0.2038,1.0296,0.1672
8.7180,-0.2038,1.0296,0.1672
8.7180,-0.2038,1.0296,0.1672
8.7190,-0.2038,1.0296,0.1672
8.7190,-0.2048,1.0277,0.1694
8.7190,-0.2048,1.0277,0.1694
8.7470,-0.2048,1.0277,0.1694
8.7470,-0.2048,1.0277,0.1694
8.7480,-0.2048,1.0277,0.1694
8.7480,-0.2019,1.0257,0.1708
8.7760,-0.2019,1.0257,0.1708
8.7810,-0.2019,1.0257,0.1708
8.7820,-0.2019,1.0257,0.1708
8.7820,-0.2019,1.0257,0.1708
8.7820,-0.2019,1.0279,0.1701
8.7830,-0.2021,1.0252,0.1694
8.8020,-0.2021,1.0252,0.1694
8.8020,-0.2021,1.0252,0.1694
8.8030,-0.2021,1.0252,0.1694
8.8050,-0.2026,1.0220,0.1708
8.8050,-0.2026,1.0220,0.1708
8.8250,-0.2026,1.0220,0.1708
8.8260,-0.2026,1.0220,0.1708
8.8260,-0.2026,1.0220,0.1708
8.8270,-0.2075,1.0252,0.1721
8.8570,-0.2075,1.0252,0.1721
8.8570,-0.2075,1.0252,0.1721
8.8570,-0.2075,1.0252,0.1721
8.8580,-0.2094,1.0286,0.1701
8.8580,-0.2092,1.0267,0.1689
8.8760,-0.2092,1.0267,0.1689
8.8770,-0.2092,1.0267,0.1689
8.8770,-0.2092,1.0267,0.1689
8.8770,-0.2092,1.0257,0.1689
8.8770,-0.2092,1.0257,0.1689
8.9050,-0.2092,1.0257,0.1689
8.9060,-0.2092,1.0257,0.1689
8.9060,-0.2092,1.0257,0.1689
8.9060,-0.2094,1.0206,0.1684
8.9360,-0.2094,1.0206,0.1684
8.9370,-0.2094,1.0206,0.1684
8.9370,-0.2094,1.0206,0.1684
8.9370,-0.2077,1.0203,0.1703
8.9380,-0.2077,1.0220,0.1694
8.9570,-0.2077,1.0220,0.1694
8.9570,-0.2077,1.0220,0.1694
8.9580,-0.2077,1.0220,0.1694
8.9580,-0.2099,1.0262,0.1696
8.9590,-0.2099,1.0262,0.1696
8.9700,-0.2099,1.0262,0.1696
8.9730,-0.2099,1.0262,0.1696
8.9860,-0.2099,1.0262,0.1696
8.9870,-0.2099,1.0262,0.1696
8.9870,-0.2099,1.0262,0.1696
8.9880,-0.2070,1.0289,0.1677
9.0170,-0.2070,1.0289,0.1677
9.0180,-0.2070,1.0289,0.1677
9.0180,-0.2070,1.0289,0.1677
9.0180,-0.2046,1.0277,0.1699
9.0190,-0.2004,1.0294,0.1655
9.0380,-0.2004,1.0294,0.1655
9.0390,-0.2004,1.0294,0.1655
9.0390,-0.2004,1.0294,0.1655
9.0390,-0.1982,1.0274,0.1664
9.0400,-0.1982,1.0274,0.1664
9.0680,-0.1982,1.0274,0.1664
9.0680,-0.1982,1.0274,0.1664
9.0690,-0.1982,1.0274,0.1664
9.0690,-0.1962,1.0230,0.1718
9.0980,-0.1962,1.0230,0.1718
9.0980,-0.1962,1.0230,0.1718
9.0980,-0.1962,1.0230,0.1718
9.0990,-0.1955,1.0189,0.1747
9.0990,-0.2002,1.0240,0.1733
9.1190,-0.2002,1.0240,0.1733
9.1190,-0.2002,1.0240,0.1733
9.1190,-0.2002,1.0240,0.1733
9.1190,-0.1999,1.0284,0.1716
9.1200,-0.1999,1.0284,0.1716
9.1470,-0.1999,1.0284,0.1716
9.1480,-0.1999,1.0284,0.1716
9.1480,-0.1999,1.0284,0.1716
9.1480,-0.1994,1.0321,0.1718
9.1760,-0.1994,1.0321,0.1718
9.1760,-0.1994,1.0321,0.1718
9.1760,-0.1994,1.0321,0.1718
9.1770,-0.1994,1.0321,0.1718
9.1770,-0.2004,1.0340,0.1674
9.1770,-0.2021,1.0289,0.1672
9.1990,-0.2021,1.0289,0.1672
9.2000,-0.2021,1.0289,0.1672
9.2000,-0.2021,1.0289,0.1672
9.2000,-0.2002,1.0257,0.1738
9.2010,-0.2002,1.0257,0.1738
9.2280,-0.2002,1.0257,0.1738
9.2280,-0.2002,1.0257,0.1738
9.2280,-0.2002,1.0257,0.1738
9.2290,-0.2009,1.0186,0.1760
9.2570,-0.2009,1.0186,0.1760
9.2570,-0.2009,1.0186,0.1760
9.2580,-0.2009,1.0186,0.1760
9.2580,-0.2004,1.0201,0.1738
9.2580,-0.2026,1.0223,0.1745
9.2780,-0.2026,1.0223,0.1745
9.2780,-0.2026,1.0223,0.1745
9.2780,-0.2026,1.0223,0.1745
9.2790,-0.2041,1.0281,0.1757
9.2790,-0.2041,1.0281,0.1757
9.3080,-0.2041,1.0281,0.1757
9.3080,-0.2041,1.0281,0.1757
9.3090,-0.2041,1.0281,0.1757
9.3090,-0.2006,1.0296,0.1721
9.3370,-0.2006,1.0296,0.1721
9.3380,-0.2006,1.0296,0.1721
9.3380,-0.2006,1.0296,0.1721
9.3380,-0.2002,1.0289,0.1689
9.3580,-0.1970,1.0225,0.1677
9.3610,-0.1970,1.0225,0.1677
9.3620,-0.1970,1.0225,0.1677
9.3620,-0.1970,1.0225,0.1677
9.3620,-0.1982,1.0255,0.1701
9.3620,-0.1982,1.0255,0.1701
9.3700,-0.1982,1.0255,0.1701
9.3860,-0.1982,1.0255,0.1701
9.3870,-0.1982,1.0255,0.1701
9.3870,-0.1982,1.0255,0.1701
9.3870,-0.2004,1.0255,0.1762
9.4180,-0.2004,1.0255,0.1762
9.4190,-0.2004,1.0255,0.1762
9.4190,-0.2004,1.0255,0.1762
9.4200,-0.1984,1.0215,0.1730
9.4200,-0.2043,1.0252,0.1677
9.4380,-0.2043,1.0252,0.1677
9.4380,-0.2043,1.0252,0.1677
9.4390,-0.2043,1.0252,0.1677
9.4390,-0.2058,1.0311,0.1640
9.4390,-0.2058,1.0311,0.1640
9.4670,-0.2058,1.0311,0.1640
9.4670,-0.2058,1.0311,0.1640
9.4680,-0.2058,1.0311,0.1640
9.4680,-0.2038,1.0306,0.1677
9.4980,-0.2038,1.0306,0.1677
9.4980,-0.2038,1.0306,0.1677
9.4990,-0.2038,1.0306,0.1677
9.4990,-0.2004,1.0286,0.1706
9.4990,-0.1960,1.0269,0.1747
9.5180,-0.1960,1.0269,0.1747
9.5190,-0.1960,1.0269,0.1747
9.5190,-0.1960,1.0269,0.1747
9.5190,-0.1936,1.0245,0.1757
9.5200,-0.1936,1.0245,0.1757
9.5490,-0.1936,1.0245,0.1757
9.5490,-0.1936,1.0245,0.1757
9.5490,-0.1936,1.0245,0.1757
9.5500,-0.1940,1.0272,0.1777
9.5720,-0.1940,1.0272,0.1777
9.5780,-0.1940,1.0272,0.1777
9.5790,-0.1940,1.0272,0.1777
9.5790,-0.1940,1.0272,0.1777
9.5800,-0.1970,1.0267,0.1769
9.5800,-0.1987,1.0233,0.1723
9.6000,-0.1987,1.0233,0.1723
9.6000,-0.1987,1.0233,0.1723
9.6010,-0.1987,1.0233,0.1723
9.6010,-0.2009,1.0125,0.1694
9.6010,-0.2009,1.0125,0.1694
9.6280,-0.2009,1.0125,0.1694
9.6280,-0.2009,1.0125,0.1694
9.6290,-0.2009,1.0125,0.1694
9.6290,-0.2014,1.0147,0.1655
9.6580,-0.2014,1.0147,0.1655
9.6580,-0.2014,1.0147,0.1655
9.6590,-0.2014,1.0147,0.1655
9.6590,-0.2041,1.0413,0.1767
9.6590,-0.2138,1.0492,0.1794
9.6820,-0.2138,1.0492,0.1794
9.6830,-0.2138,1.0492,0.1794
9.6830,-0.2138,1.0492,0.1794
9.6830,-0.2102,1.0250,0.1635
9.6870,-0.2102,1.0250,0.1635
9.7090,-0.2102,1.0250,0.1635
9.7100,-0.2102,1.0250,0.1635
9.7100,-0.2102,1.0250,0.1635
9.7110,-0.1975,1.0230,0.1701
9.7410,-0.1975,1.0230,0.1701
9.7420,-0.1975,1.0230,0.1701
9.7420,-0.1975,1.0230,0.1701
9.7420,-0.1953,1.0206,0.1789
9.7430,-0.1962,1.0169,0.1767
9.7590,-0.1962,1.0169,0.1767
9.7600,-0.1962,1.0169,0.1767
9.7600,-0.1962,1.0169,0.1767
9.7610,-0.1967,1.0198,0.1711
9.7610,-0.1967,1.0198,0.1711
9.7720,-0.1967,1.0198,0.1711
9.7890,-0.1967,1.0198,0.1711
9.7890,-0.1967,1.0198,0.1711
9.7900,-0.1967,1.0198,0.1711
9.7900,-0.2011,1.0343,0.1774
9.8190,-0.2011,1.0343,0.1774
9.8200,-0.2011,1.0343,0.1774
9.8200,-0.2011,1.0343,0.1774
9.8200,-0.2055,1.0396,0.1786
9.8210,-0.2043,1.0323,0.1708
9.8390,-0.2043,1.0323,0.1708
9.8390,-0.2043,1.0323,0.1708
9.8400,-0.2043,1.0323,0.1708
9.8400,-0.1997,1.0306,0.1745
9.8400,-0.1997,1.0306,0.1745
9.8730,-0.1997,1.0306,0.1745
9.8730,-0.1997,1.0306,0.1745
9.8740,-0.1997,1.0306,0.1745
9.8770,-0.2004,1.0240,0.1740
9.9000,-0.2004,1.0240,0.1740
9.9010,-0.2004,1.0240,0.1740
9.9010,-0.2004,1.0240,0.1740
9.9250,-0.1997,1.0193,0.1667
9.9250,-0.2028,1.0196,0.1650
9.9260,-0.2028,1.0196,0.1650
9.9260,-0.2028,1.0196,0.1650
9.9260,-0.2028,1.0196,0.1650
9.9260,-0.2092,1.0201,0.1701
9.9280,-0.2092,1.0201,0.1701
9.9470,-0.2092,1.0201,0.1701
9.9470,-0.2092,1.0201,0.1701
9.9480,-0.2092,1.0201,0.1701
9.9480,-0.2156,1.0218,0.1708
9.9720,-0.2156,1.0218,0.1708
9.9770,-0.2156,1.0218,0.1708
9.9770,-0.2156,1.0218,0.1708
9.9780,-0.2156,1.0218,0.1708
9.9780,-0.2116,1.0252,0.1738
9.9780,-0.2082,1.0264,0.1752
9.9980,-0.2082,1.0264,0.1752
9.9980,-0.2082,1.0264,0.1752
9.9980,-0.2082,1.0264,0.1752
9.9980,-0.2087,1.0235,0.1711
9.9980,-0.2087,1.0235,0.1711
10.0280,-0.2087,1.0235,0.1711
10.0280,-0.2087,1.0235,0.1711
10.0280,-0.2087,1.0235,0.1711
10.0280,-0.2092,1.0299,0.1703
10.0580,-0.2092,1.0299,0.1703
10.0580,-0.2092,1.0299,0.1703
10.0590,-0.2092,1.0299,0.1703
10.0590,-0.2060,1.0303,0.1721
10.0590,-0.1977,1.0242,0.1760
10.0790,-0.1977,1.0242,0.1760
10.0800,-0.1977,1.0242,0.1760
10.0800,-0.1977,1.0242,0.1760
10.0800,-0.1896,1.0262,0.1801
10.0800,-0.1896,1.0262,0.1801
10.1090,-0.1896,1.0262,0.1801
10.1090,-0.1896,1.0262,0.1801
10.1090,-0.1896,1.0262,0.1801
10.1100,-0.1884,1.0262,0.1708
10.1430,-0.1884,1.0262,0.1708
10.1430,-0.1884,1.0262,0.1708
10.1430,-0.1884,1.0262,0.1708
10.1440,-0.1940,1.0255,0.1689
10.1440,-0.2009,1.0242,0.1757
10.1610,-0.2009,1.0242,0.1757
10.1610,-0.2009,1.0242,0.1757
10.1610,-0.2009,1.0242,0.1757
10.1610,-0.1962,1.0286,0.1801
10.1620,-0.1962,1.0286,0.1801
10.1720,-0.1962,1.0286,0.1801
10.1740,-0.1962,1.0286,0.1801
10.1880,-0.1962,1.0286,0.1801
10.1880,-0.1962,1.0286,0.1801
10.1880,-0.1962,1.0286,0.1801
10.1890,-0.1931,1.0313,0.1735
10.2190,-0.1931,1.0313,0.1735
10.2190,-0.1931,1.0313,0.1735
10.2200,-0.1931,1.0313,0.1735
10.2200,-0.1970,1.0289,0.1664
10.2210,-0.2011,1.0208,0.1699
10.2390,-0.2011,1.0208,0.1699
10.2400,-0.2011,1.0208,0.1699
10.2400,-0.2011,1.0208,0.1699
10.2410,-0.2026,1.0272,0.1740
10.2410,-0.2026,1.0272,0.1740
10.2680,-0.2026,1.0272,0.1740
10.2690,-0.2026,1.0272,0.1740
10.2690,-0.2026,1.0272,0.1740
10.2700,-0.2019,1.0333,0.1843
10.3010,-0.2019,1.0333,0.1843
10.3010,-0.2019,1.0333,0.1843
10.3010,-0.2019,1.0333,0.1843
10.3020,-0.2016,1.0233,0.1784
10.3020,-0.2063,1.0250,0.1760
10.3240,-0.2063,1.0250,0.1760
10.3240,-0.2063,1.0250,0.1760
10.3240,-0.2063,1.0250,0.1760
10.3250,-0.2168,1.0294,0.1735
10.3250,-0.2168,1.0294,0.1735
10.3510,-0.2168,1.0294,0.1735
10.3510,-0.2168,1.0294,0.1735
10.3520,-0.2168,1.0294,0.1735
10.3520,-0.2160,1.0176,0.1669
10.3720,-0.2160,1.0176,0.1669
10.3750,-0.2160,1.0176,0.1669
10.3800,-0.2160,1.0176,0.1669
10.3800,-0.2160,1.0176,0.1669
10.3800,-0.2160,1.0176,0.1669
10.3810,-0.2063,1.0213,0.1723
10.3810,-0.2033,1.0225,0.1677
10.4010,-0.2033,1.0225,0.1677
10.4020,-0.2033,1.0225,0.1677
10.4020,-0.2033,1.0225,0.1677
10.4020,-0.1950,1.0181,0.1615
10.4030,-0.1950,1.0181,0.1615
10.4300,-0.1950,1.0181,0.1615
10.4300,-0.1950,1.0181,0.1615
10.4310,-0.1950,1.0181,0.1615
10.4310,-0.1955,1.0147,0.1657
10.4590,-0.1955,1.0147,0.1657
10.4590,-0.1955,1.0147,0.1657
10.4590,-0.1955,1.0147,0.1657
10.4600,-0.2002,1.0179,0.1735
10.4600,-0.2043,1.0289,0.1799
10.4790,-0.2043,1.0289,0.1799
10.4800,-0.2043,1.0289,0.1799
10.4800,-0.2043,1.0289,0.1799
10.4800,-0.2065,1.0330,0.1740
10.4800,-0.2065,1.0330,0.1740
10.5080,-0.2065,1.0330,0.1740
10.5080,-0.2065,1.0330,0.1740
10.5080,-0.2065,1.0330,0.1740
10.5090,-0.2077,1.0352,0.1723
10.5390,-0.2077,1.0352,0.1723
10.5390,-0.2077,1.0352,0.1723
10.5400,-0.2077,1.0352,0.1723
10.5400,-0.2085,1.0350,0.1730
10.5400,-0.2028,1.0308,0.1667
10.5600,-0.2028,1.0308,0.1667
10.5600,-0.2028,1.0308,0.1667
10.5610,-0.2028,1.0308,0.1667
10.5610,-0.2009,1.0279,0.1615
10.5620,-0.2009,1.0279,0.1615
10.5750,-0.2009,1.0279,0.1615
10.5750,-0.2009,1.0279,0.1615
10.5890,-0.2009,1.0279,0.1615
10.5890,-0.2009,1.0279,0.1615
10.5900,-0.2009,1.0279,0.1615
10.5900,-0.2006,1.0213,0.1657
10.6190,-0.2006,1.0213,0.1657
10.6200,-0.2006,1.0213,0.1657
10.6200,-0.2006,1.0213,0.1657
10.6210,-0.1992,1.0152,0.1801
10.6210,-0.1958,1.0164,0.1818
10.6400,-0.1958,1.0164,0.1818
10.6400,-0.1958,1.0164,0.1818
10.6410,-0.1958,1.0164,0.1818
10.6410,-0.1970,1.0255,0.1828
10.6420,-0.1970,1.0255,0.1828
10.6710,-0.1970,1.0255,0.1828
10.6720,-0.1970,1.0255,0.1828
10.6720,-0.1970,1.0255,0.1828
10.6720,-0.1997,1.0250,0.1806
10.7000,-0.1997,1.0250,0.1806
10.7010,-0.1997,1.0250,0.1806
10.7010,-0.1997,1.0250,0.1806
10.7010,-0.1960,1.0269,0.1740
10.7020,-0.1936,1.0289,0.1757
10.7210,-0.1936,1.0289,0.1757
10.7210,-0.1936,1.0289,0.1757
10.7210,-0.1936,1.0289,0.1757
10.7220,-0.1931,1.0257,0.1686
10.7220,-0.1931,1.0257,0.1686
10.7510,-0.1931,1.0257,0.1686
10.7510,-0.1931,1.0257,0.1686
10.7510,-0.1931,1.0257,0.1686
10.7510,-0.1950,1.0264,0.1699
10.7720,-0.1950,1.0264,0.1699
10.7810,-0.1950,1.0264,0.1699
10.7810,-0.1950,1.0264,0.1699
10.7820,-0.1950,1.0264,0.1699
10.7820,-0.1984,1.0369,0.1728
10.7820,-0.2006,1.0313,0.1725
10.8020,-0.2006,1.0313,0.1725
10.8030,-0.2006,1.0313,0.1725
10.8030,-0.2006,1.0313,0.1725
10.8040,-0.2014,1.0159,0.1733
10.8040,-0.2014,1.0159,0.1733
10.8300,-0.2014,1.0159,0.1733
10.8310,-0.2014,1.0159,0.1733
10.8310,-0.2014,1.0159,0.1733
10.8320,-0.2002,1.0015,0.1806
10.8600,-0.2002,1.0015,0.1806
10.8610,-0.2002,1.0015,0.1806
10.8610,-0.2002,1.0015,0.1806
10.8610,-0.1962,1.0145,0.1801
10.8610,-0.2002,1.0470,0.1850
10.8800,-0.2002,1.0470,0.1850
10.8800,-0.2002,1.0470,0.1850
10.8800,-0.2002,1.0470,0.1850
10.8810,-0.2094,1.0411,0.1716
10.8810,-0.2094,1.0411,0.1716
10.9100,-0.2094,1.0411,0.1716
10.9110,-0.2094,1.0411,0.1716
10.9110,-0.2094,1.0411,0.1716
10.9120,-0.2055,1.0343,0.1699
10.9400,-0.2055,1.0343,0.1699
10.9410,-0.2055,1.0343,0.1699
10.9410,-0.2055,1.0343,0.1699
10.9420,-0.2009,1.0457,0.1784
10.9420,-0.2026,1.0299,0.1752
10.9610,-0.2026,1.0299,0.1752
10.9620,-0.2026,1.0299,0.1752
10.9620,-0.2026,1.0299,0.1752
10.9620,-0.2004,1.0093,0.1672
10.9630,-0.2004,1.0093,0.1672
10.9720,-0.2004,1.0093,0.1672
10.9750,-0.2004,1.0093,0.1672
10.9900,-0.2004,1.0093,0.1672
11.0090,-0.2004,1.0093,0.1672
11.0090,-0.2004,1.0093,0.1672
11.0090,-0.2014,1.0059,0.1711
11.0180,-0.2014,1.0059,0.1711
11.0180,-0.2014,1.0059,0.1711
11.0180,-0.2014,1.0059,0.1711
11.0180,-0.2028,1.0140,0.1808
11.0180,-0.2019,1.0247,0.1747
11.0390,-0.2019,1.0247,0.1747
11.0390,-0.2019,1.0247,0.1747
11.0400,-0.2019,1.0247,0.1747
11.0400,-0.2033,1.0291,0.1728
11.0400,-0.2033,1.0291,0.1728
11.0700,-0.2033,1.0291,0.1728
11.0700,-0.2033,1.0291,0.1728
11.0710,-0.2033,1.0291,0.1728
11.0710,-0.2077,1.0308,0.1752
11.0990,-0.2077,1.0308,0.1752
11.0990,-0.2077,1.0308,0.1752
11.1000,-0.2077,1.0308,0.1752
11.1000,-0.2087,1.0308,0.1701
11.1010,-0.2129,1.0215,0.1733
11.1190,-0.2129,1.0215,0.1733
11.1200,-0.2129,1.0215,0.1733
11.1200,-0.2129,1.0215,0.1733
11.1200,-0.2119,1.0211,0.1762
11.1210,-0.2119,1.0211,0.1762
11.1490,-0.2119,1.0211,0.1762
11.1500,-0.2119,1.0211,0.1762
11.1500,-0.2119,1.0211,0.1762
11.1500,-0.2090,1.0211,0.1808
11.1700,-0.2090,1.0211,0.1808
11.1800,-0.2090,1.0211,0.1808
11.1800,-0.2090,1.0211,0.1808
11.1810,-0.2090,1.0211,0.1808
11.1810,-0.2036,1.0179,0.1786
11.1810,-0.2011,1.0189,0.1767
11.2000,-0.2011,1.0189,0.1767
11.2010,-0.2011,1.0189,0.1767
11.2010,-0.2011,1.0189,0.1767
11.2020,-0.2014,1.0242,0.1703
11.2020,-0.2014,1.0242,0.1703
11.2310,-0.2014,1.0242,0.1703
11.2310,-0.2014,1.0242,0.1703
11.2310,-0.2014,1.0242,0.1703
11.2320,-0.2019,1.0299,0.1672
11.2610,-0.2019,1.0299,0.1672
11.2610,-0.2019,1.0299,0.1672
11.2620,-0.2019,1.0299,0.1672
11.2620,-0.2026,1.0335,0.1721
11.2630,-0.1987,1.0301,0.1838
11.2810,-0.1987,1.0301,0.1838
11.2820,-0.1987,1.0301,0.1838
11.2820,-0.1987,1.0301,0.1838
11.2820,-0.1958,1.0135,0.1914
11.2820,-0.1958,1.0135,0.1914
11.3110,-0.1958,1.0135,0.1914
11.3110,-0.1958,1.0135,0.1914
11.3120,-0.1958,1.0135,0.1914
11.3120,-0.1904,1.0147,0.1857
11.3440,-0.1904,1.0147,0.1857
11.3440,-0.1904,1.0147,0.1857
11.3450,-0.1904,1.0147,0.1857
11.3450,-0.1892,1.0223,0.1740
11.3460,-0.1955,1.0259,0.1672
11.3620,-0.1955,1.0259,0.1672
11.3620,-0.1955,1.0259,0.1672
11.3630,-0.1955,1.0259,0.1672
11.3630,-0.1992,1.0318,0.1679
11.3640,-0.1992,1.0318,0.1679
11.3740,-0.1992,1.0318,0.1679
11.3890,-0.1992,1.0318,0.1679
11.3890,-0.1992,1.0318,0.1679
11.3900,-0.1992,1.0318,0.1679
11.3900,-0.1955,1.0418,0.1745
11.4190,-0.1955,1.0418,0.1745
11.4190,-0.1955,1.0418,0.1745
11.4200,-0.1955,1.0418,0.1745
11.4200,-0.1921,1.0362,0.1801
11.4210,-0.1852,1.0230,0.1799
11.4390,-0.1852,1.0230,0.1799
11.4390,-0.1852,1.0230,0.1799
11.4390,-0.1852,1.0230,0.1799
11.4400,-0.1862,1.0291,0.1857
11.4400,-0.1862,1.0291,0.1857
11.4680,-0.1862,1.0291,0.1857
11.4680,-0.1862,1.0291,0.1857
11.4690,-0.1862,1.0291,0.1857
11.4690,-0.1931,1.0237,0.1823
11.4980,-0.1931,1.0237,0.1823
11.4990,-0.1931,1.0237,0.1823
11.4990,-0.1931,1.0237,0.1823
11.5000,-0.1921,1.0191,0.1772
11.5000,-0.1977,1.0257,0.1801
11.5180,-0.1977,1.0257,0.1801
11.5190,-0.1977,1.0257,0.1801
11.5190,-0.1977,1.0257,0.1801
11.5200,-0.2014,1.0220,0.1733
11.5200,-0.2014,1.0220,0.1733
11.5490,-0.2014,1.0220,0.1733
11.5610,-0.2014,1.0220,0.1733
11.5610,-0.2014,1.0220,0.1733
11.5620,-0.1958,1.0230,0.1723
11.5690,-0.1958,1.0230,0.1723
11.5720,-0.1958,1.0230,0.1723
11.5780,-0.1958,1.0230,0.1723
11.5780,-0.1958,1.0230,0.1723
11.5790,-0.1958,1.0230,0.1723
11.5790,-0.1980,1.0250,0.1681
11.5800,-0.2038,1.0299,0.1757
11.5990,-0.2038,1.0299,0.1757
11.6000,-0.2038,1.0299,0.1757
11.6000,-0.2038,1.0299,0.1757
11.6000,-0.2082,1.0323,0.1804
11.6010,-0.2082,1.0323,0.1804
11.6300,-0.2082,1.0323,0.1804
11.6300,-0.2082,1.0323,0.1804
11.6300,-0.2082,1.0323,0.1804
11.6310,-0.2041,1.0272,0.1747
11.6600,-0.2041,1.0272,0.1747
11.6610,-0.2041,1.0272,0.1747
11.6610,-0.2041,1.0272,0.1747
11.6610,-0.2011,1.0245,0.1728
11.6620,-0.2016,1.0247,0.1689
11.6830,-0.2016,1.0247,0.1689
11.6830,-0.2016,1.0247,0.1689
11.6840,-0.2016,1.0247,0.1689
11.6840,-0.2009,1.0259,0.1657
11.6840,-0.2009,1.0259,0.1657
11.7110,-0.2009,1.0259,0.1657
11.7110,-0.2009,1.0259,0.1657
11.7120,-0.2009,1.0259,0.1657
11.7120,-0.2038,1.0252,0.1642
11.7410,-0.2038,1.0252,0.1642
11.7410,-0.2038,1.0252,0.1642
11.7420,-0.2038,1.0252,0.1642
11.7420,-0.2026,1.0296,0.1701
11.7430,-0.1980,1.0321,0.1752
11.7620,-0.1980,1.0321,0.1752
11.7630,-0.1980,1.0321,0.1752
11.7630,-0.1980,1.0321,0.1752
11.7640,-0.2002,1.0250,0.1745
11.7640,-0.2002,1.0250,0.1745
11.7700,-0.2002,1.0250,0.1745
11.7890,-0.2002,1.0250,0.1745
11.7890,-0.2002,1.0250,0.1745
11.7900,-0.2002,1.0250,0.1745
11.7900,-0.2016,1.0228,0.1767
11.8190,-0.2016,1.0228,0.1767
11.8190,-0.2016,1.0228,0.1767
11.8200,-0.2016,1.0228,0.1767
11.8200,-0.1950,1.0255,0.1779
11.8200,-0.1958,1.0279,0.1740
11.8410,-0.1958,1.0279,0.1740
11.8410,-0.1958,1.0279,0.1740
11.8410,-0.1958,1.0279,0.1740
11.8420,-0.1950,1.0291,0.1718
11.8420,-0.1950,1.0291,0.1718
11.8690,-0.1950,1.0291,0.1718
11.8700,-0.1950,1.0291,0.1718
11.8700,-0.1950,1.0291,0.1718
11.8700,-0.1928,1.0323,0.1686
11.9010,-0.1928,1.0323,0.1686
11.9010,-0.1928,1.0323,0.1686
11.9010,-0.1928,1.0323,0.1686
11.9010,-0.1909,1.0301,0.1696
11.9020,-0.1965,1.0279,0.1701
11.9210,-0.1965,1.0279,0.1701
11.9210,-0.1965,1.0279,0.1701
11.9210,-0.1965,1.0279,0.1701
11.9220,-0.2006,1.0230,0.1745
11.9220,-0.2006,1.0230,0.1745
11.9510,-0.2006,1.0230,0.1745
11.9510,-0.2006,1.0230,0.1745
11.9520,-0.2006,1.0230,0.1745
11.9520,-0.2036,1.0213,0.1769
11.9730,-0.2036,1.0213,0.1769
11.9800,-0.2036,1.0213,0.1769
11.9810,-0.2036,1.0213,0.1769
11.9810,-0.2036,1.0213,0.1769
11.9810,-0.2031,1.0228,0.1755
11.9810,-0.2019,1.0284,0.1742
12.0020,-0.2019,1.0284,0.1742
12.0030,-0.2019,1.0284,0.1742
12.0030,-0.2019,1.0284,0.1742
12.0030,-0.1982,1.0284,0.1760
12.0040,-0.1982,1.0284,0.1760
12.0290,-0.1982,1.0284,0.1760
12.0290,-0.1982,1.0284,0.1760
12.0290,-0.1982,1.0284,0.1760
12.0300,-0.1982,1.0262,0.1716
12.0580,-0.1982,1.0262,0.1716
12.0590,-0.1982,1.0262,0.1716
12.0590,-0.1982,1.0262,0.1716
12.0600,-0.1965,1.0240,0.1728
12.0600,-0.1984,1.0230,0.1725
12.0800,-0.1984,1.0230,0.1725
12.0800,-0.1984,1.0230,0.1725
12.0810,-0.1984,1.0230,0.1725
12.0810,-0.1972,1.0191,0.1711
12.0900,-0.1972,1.0191,0.1711
12.1110,-0.1972,1.0191,0.1711
12.1110,-0.1972,1.0191,0.1711
12.1110,-0.1972,1.0191,0.1711
12.1110,-0.1989,1.0267,0.1716
12.1400,-0.1989,1.0267,0.1716
12.1400,-0.1989,1.0267,0.1716
12.1400,-0.1989,1.0267,0.1716
12.1410,-0.2033,1.0333,0.1772
12.1410,-0.2053,1.0228,0.1679
12.1650,-0.2053,1.0228,0.1679
12.1650,-0.2053,1.0228,0.1679
12.1660,-0.2053,1.0228,0.1679
12.1660,-0.2058,1.0255,0.1718
12.1670,-0.2058,1.0255,0.1718
12.1720,-0.2058,1.0255,0.1718
12.1910,-0.2058,1.0255,0.1718
12.1920,-0.2058,1.0255,0.1718
12.1920,-0.2058,1.0255,0.1718
12.1940,-0.2060,1.0262,0.1742
12.2210,-0.2060,1.0262,0.1742
12.2210,-0.2060,1.0262,0.1742
12.2210,-0.2060,1.0262,0.1742
12.2220,-0.2046,1.0220,0.1677
12.2220,-0.2038,1.0235,0.1679
12.2420,-0.2038,1.0235,0.1679
12.2430,-0.2038,1.0235,0.1679
12.2430,-0.2038,1.0235,0.1679
12.2430,-0.2055,1.0289,0.1684
12.2440,-0.2055,1.0289,0.1684
12.2710,-0.2055,1.0289,0.1684
12.2710,-0.2055,1.0289,0.1684
12.2720,-0.2055,1.0289,0.1684
12.2720,-0.2092,1.0308,0.1750
12.3030,-0.2092,1.0308,0.1750
12.3030,-0.2092,1.0308,0.1750
12.3040,-0.2092,1.0308,0.1750
12.3040,-0.2028,1.0296,0.1745
12.3040,-0.2021,1.0242,0.1742
12.3270,-0.2021,1.0242,0.1742
12.3270,-0.2021,1.0242,0.1742
12.3280,-0.2021,1.0242,0.1742
12.3280,-0.1982,1.0242,0.1762
12.3280,-0.1982,1.0242,0.1762
12.3510,-0.1982,1.0242,0.1762
12.3520,-0.1982,1.0242,0.1762
12.3520,-0.1982,1.0242,0.1762
12.3520,-0.1943,1.0206,0.1718
12.3720,-0.1943,1.0206,0.1718
12.3820,-0.1943,1.0206,0.1718
12.3820,-0.1943,1.0206,0.1718
12.3830,-0.1943,1.0206,0.1718
12.3830,-0.1936,1.0179,0.1711
12.3830,-0.1948,1.0264,0.1755
12.4030,-0.1948,1.0264,0.1755
12.4030,-0.1948,1.0264,0.1755
12.4040,-0.1948,1.0264,0.1755
12.4040,-0.1994,1.0279,0.1757
12.4040,-0.1994,1.0279,0.1757
12.4320,-0.1994,1.0279,0.1757
12.4320,-0.1994,1.0279,0.1757
12.4320,-0.1994,1.0279,0.1757
12.4320,-0.2021,1.0303,0.1740
12.4630,-0.2021,1.0303,0.1740
12.4630,-0.2021,1.0303,0.1740
12.4640,-0.2021,1.0303,0.1740
12.4640,-0.2041,1.0301,0.1735
12.4640,-0.2019,1.0242,0.1703
12.4850,-0.2019,1.0242,0.1703
12.4860,-0.2019,1.0242,0.1703
12.4860,-0.2019,1.0242,0.1703
12.4860,-0.1967,1.0264,0.1677
12.4870,-0.1967,1.0264,0.1677
12.5130,-0.1967,1.0264,0.1677
12.5130,-0.1967,1.0264,0.1677
12.5130,-0.1967,1.0264,0.1677
12.5140,-0.1975,1.0299,0.1686
12.5430,-0.1975,1.0299,0.1686
12.5440,-0.1975,1.0299,0.1686
12.5440,-0.1975,1.0299,0.1686
12.5440,-0.1984,1.0296,0.1730
12.5440,-0.2011,1.0281,0.1713
12.5630,-0.2011,1.0281,0.1713
12.5630,-0.2011,1.0281,0.1713
12.5640,-0.2011,1.0281,0.1713
12.5640,-0.2048,1.0252,0.1696
12.5640,-0.2048,1.0252,0.1696
12.5710,-0.2048,1.0252,0.1696
12.5910,-0.2048,1.0252,0.1696
12.5920,-0.2048,1.0252,0.1696
12.5920,-0.2048,1.0252,0.1696
12.5920,-0.2082,1.0220,0.1740
12.6210,-0.2082,1.0220,0.1740
12.6210,-0.2082,1.0220,0.1740
12.6220,-0.2082,1.0220,0.1740
12.6220,-0.2112,1.0233,0.1750
12.6220,-0.2070,1.0233,0.1718
12.6410,-0.2070,1.0233,0.1718
12.6410,-0.2070,1.0233,0.1718
12.6420,-0.2070,1.0233,0.1718
12.6560,-0.1987,1.0247,0.1721
12.6560,-0.1987,1.0247,0.1721
12.6710,-0.1987,1.0247,0.1721
12.6710,-0.1987,1.0247,0.1721
12.6720,-0.1987,1.0247,0.1721
12.6720,-0.1943,1.0250,0.1691
12.7020,-0.1943,1.0250,0.1691
12.7020,-0.1943,1.0250,0.1691
12.7030,-0.1943,1.0250,0.1691
12.7030,-0.1931,1.0291,0.1718
12.7040,-0.1953,1.0284,0.1706
12.7240,-0.1953,1.0284,0.1706
12.7240,-0.1953,1.0284,0.1706
12.7250,-0.1953,1.0284,0.1706
12.7250,-0.1928,1.0277,0.1677
12.7260,-0.1928,1.0277,0.1677
12.7530,-0.1928,1.0277,0.1677
12.7540,-0.1928,1.0277,0.1677
12.7540,-0.1928,1.0277,0.1677
12.7550,-0.1914,1.0267,0.1689
12.7750,-0.1914,1.0267,0.1689
12.7850,-0.1914,1.0267,0.1689
12.7850,-0.1914,1.0267,0.1689
12.7850,-0.1914,1.0267,0.1689
12.7850,-0.1987,1.0267,0.1681
12.7860,-0.2050,1.0316,0.1674
12.8060,-0.2050,1.0316,0.1674
12.8060,-0.2050,1.0316,0.1674
12.8070,-0.2050,1.0316,0.1674
12.8070,-0.2011,1.0303,0.1674
12.8080,-0.2011,1.0303,0.1674
12.8330,-0.2011,1.0303,0.1674
12.8340,-0.2011,1.0303,0.1674
12.8340,-0.2011,1.0303,0.1674
12.8350,-0.1972,1.0272,0.1672
12.8630,-0.1972,1.0272,0.1672
12.8630,-0.1972,1.0272,0.1672
12.8640,-0.1972,1.0272,0.1672
12.8640,-0.1896,1.0240,0.1684
12.8640,-0.1879,1.0223,0.1738
12.8830,-0.1879,1.0223,0.1738
12.8840,-0.1879,1.0223,0.1738
12.8840,-0.1879,1.0223,0.1738
12.8840,-0.1958,1.0255,0.1742
12.8850,-0.1958,1.0255,0.1742
12.9110,-0.1958,1.0255,0.1742
12.9120,-0.1958,1.0255,0.1742
12.9120,-0.1958,1.0255,0.1742
12.9120,-0.2024,1.0291,0.1679
12.9440,-0.2024,1.0291,0.1679
12.9440,-0.2024,1.0291,0.1679
12.9440,-0.2024,1.0291,0.1679
12.9440,-0.2085,1.0279,0.1703
12.9450,-0.2107,1.0250,0.1735
12.9630,-0.2107,1.0250,0.1735
12.9630,-0.2107,1.0250,0.1735
12.9630,-0.2107,1.0250,0.1735
12.9640,-0.2068,1.0267,0.1701
12.9640,-0.2068,1.0267,0.1701
12.9720,-0.2068,1.0267,0.1701
12.9920,-0.2068,1.0267,0.1701
12.9930,-0.2068,1.0267,0.1701
12.9940,-0.2068,1.0267,0.1701
12.9940,-0.2014,1.0252,0.1694
13.0210,-0.2014,1.0252,0.1694
13.0220,-0.2014,1.0252,0.1694
13.0220,-0.2014,1.0252,0.1694
13.0230,-0.2021,1.0237,0.1677
13.0230,-0.1992,1.0272,0.1735
13.0480,-0.1992,1.0272,0.1735
13.0480,-0.1992,1.0272,0.1735
13.0490,-0.1992,1.0272,0.1735
13.0490,-0.1980,1.0299,0.1779
13.0490,-0.1980,1.0299,0.1779
13.0750,-0.1980,1.0299,0.1779
13.0750,-0.1980,1.0299,0.1779
13.0750,-0.1980,1.0299,0.1779
13.0760,-0.2021,1.0272,0.1782
13.1040,-0.2021,1.0272,0.1782
13.1050,-0.2021,1.0272,0.1782
13.1050,-0.2021,1.0272,0.1782
13.1050,-0.2063,1.0264,0.1740
13.1060,-0.2058,1.0272,0.1762
13.1280,-0.2058,1.0272,0.1762
13.1290,-0.2058,1.0272,0.1762
13.1290,-0.2058,1.0272,0.1762
13.1300,-0.2063,1.0245,0.1767
13.1300,-0.2063,1.0245,0.1767
13.1540,-0.2063,1.0245,0.1767
13.1550,-0.2063,1.0245,0.1767
13.1550,-0.2063,1.0245,0.1767
13.1560,-0.2041,1.0247,0.1760
13.1730,-0.2041,1.0247,0.1760
13.1870,-0.2041,1.0247,0.1760
13.1870,-0.2041,1.0247,0.1760
13.1880,-0.2041,1.0247,0.1760
13.1880,-0.1987,1.0267,0.1791
13.1880,-0.1945,1.0286,0.1782
13.2050,-0.1945,1.0286,0.1782
13.2050,-0.1945,1.0286,0.1782
13.2200,-0.1945,1.0286,0.1782
13.2210,-0.1918,1.0264,0.1721
13.2220,-0.1918,1.0264,0.1721
13.2310,-0.1918,1.0264,0.1721
13.2320,-0.1918,1.0264,0.1721
13.2320,-0.1918,1.0264,0.1721
13.2320,-0.1953,1.0259,0.1725
13.2610,-0.1953,1.0259,0.1725
13.2610,-0.1953,1.0259,0.1725
13.2610,-0.1953,1.0259,0.1725
13.2620,-0.1975,1.0289,0.1784
13.2620,-0.1992,1.0272,0.1772
13.2810,-0.1992,1.0272,0.1772
13.2820,-0.1992,1.0272,0.1772
13.2820,-0.1992,1.0272,0.1772
13.2840,-0.1970,1.0252,0.1806
13.2840,-0.1970,1.0252,0.1806
13.3110,-0.1970,1.0252,0.1806
13.3110,-0.1970,1.0252,0.1806
13.3110,-0.1970,1.0252,0.1806
13.3120,-0.1955,1.0235,0.1786
13.3420,-0.1955,1.0235,0.1786
13.3430,-0.1955,1.0235,0.1786
13.3430,-0.1955,1.0235,0.1786
13.3440,-0.1904,1.0262,0.1794
13.3440,-0.1914,1.0303,0.1735
13.3630,-0.1914,1.0303,0.1735
13.3630,-0.1914,1.0303,0.1735
13.3640,-0.1914,1.0303,0.1735
13.3640,-0.1962,1.0262,0.1711
13.3650,-0.1962,1.0262,0.1711
13.3710,-0.1962,1.0262,0.1711
13.3940,-0.1962,1.0262,0.1711
13.3940,-0.1962,1.0262,0.1711
13.3950,-0.1962,1.0262,0.1711
13.3950,-0.1948,1.0250,0.1740
13.4240,-0.1948,1.0250,0.1740
13.4240,-0.1948,1.0250,0.1740
13.4250,-0.1948,1.0250,0.1740
13.4250,-0.1999,1.0262,0.1767
13.4250,-0.2024,1.0286,0.1806
13.4440,-0.2024,1.0286,0.1806
13.4450,-0.2024,1.0286,0.1806
13.4450,-0.2024,1.0286,0.1806
13.4450,-0.2006,1.0274,0.1833
13.4460,-0.2006,1.0274,0.1833
13.4760,-0.2006,1.0274,0.1833
13.4760,-0.2006,1.0274,0.1833
13.4770,-0.2006,1.0274,0.1833
13.4770,-0.1972,1.0215,0.1806
13.5040,-0.1972,1.0215,0.1806
13.5040,-0.1972,1.0215,0.1806
13.5040,-0.1972,1.0215,0.1806
13.5050,-0.1926,1.0269,0.1804
13.5050,-0.1914,1.0264,0.1786
13.5250,-0.1914,1.0264,0.1786
13.5250,-0.1914,1.0264,0.1786
13.5250,-0.1914,1.0264,0.1786
13.5260,-0.1923,1.0237,0.1760
13.5260,-0.1923,1.0237,0.1760
13.5540,-0.1923,1.0237,0.1760
13.5550,-0.1923,1.0237,0.1760
13.5550,-0.1923,1.0237,0.1760
13.5560,-0.1982,1.0259,0.1723
13.5760,-0.1982,1.0259,0.1723
13.5850,-0.1982,1.0259,0.1723
13.5850,-0.1982,1.0259,0.1723
13.5860,-0.1982,1.0259,0.1723
13.5860,-0.2043,1.0230,0.1777
13.5860,-0.2014,1.0201,0.1816
13.6040,-0.2014,1.0201,0.1816
13.6040,-0.2014,1.0201,0.1816
13.6050,-0.2014,1.0201,0.1816
13.6050,-0.1972,1.0230,0.1850
13.6050,-0.1972,1.0230,0.1850
13.6330,-0.1972,1.0230,0.1850
13.6340,-0.1972,1.0230,0.1850
13.6340,-0.1972,1.0230,0.1850
13.6350,-0.1982,1.0318,0.1779
13.6640,-0.1982,1.0318,0.1779
13.6640,-0.1982,1.0318,0.1779
13.6650,-0.1982,1.0318,0.1779
13.6650,-0.1992,1.0308,0.1804
13.6660,-0.2038,1.0233,0.1852
13.6840,-0.2038,1.0233,0.1852
13.6850,-0.2038,1.0233,0.1852
13.6860,-0.2038,1.0233,0.1852
13.6860,-0.2053,1.0230,0.1757
13.6870,-0.2053,1.0230,0.1757
13.7150,-0.2053,1.0230,0.1757
13.7150,-0.2053,1.0230,0.1757
13.7160,-0.2053,1.0230,0.1757
13.7160,-0.2160,1.0277,0.1689
13.7450,-0.2160,1.0277,0.1689
13.7450,-0.2160,1.0277,0.1689
13.7460,-0.2160,1.0277,0.1689
13.7460,-0.2302,1.0257,0.1623
13.7470,-0.2246,1.0189,0.1659
13.7640,-0.2246,1.0189,0.1659
13.7650,-0.2246,1.0189,0.1659
13.7820,-0.2246,1.0189,0.1659
13.7830,-0.2050,1.0179,0.1843
13.7830,-0.2050,1.0179,0.1843
13.7840,-0.2050,1.0179,0.1843
13.7930,-0.2050,1.0179,0.1843
13.7930,-0.2050,1.0179,0.1843
13.7930,-0.2050,1.0179,0.1843
13.7930,-0.1843,1.0164,0.1874
13.8230,-0.1843,1.0164,0.1874
13.8230,-0.1843,1.0164,0.1874
13.8230,-0.1843,1.0164,0.1874
13.8240,-0.1728,1.0118,0.1818
13.8240,-0.1694,1.0215,0.1784
13.8430,-0.1694,1.0215,0.1784
13.8430,-0.1694,1.0215,0.1784
13.8440,-0.1694,1.0215,0.1784
13.8440,-0.1791,1.0343,0.1708
13.8450,-0.1791,1.0343,0.1708
13.8740,-0.1791,1.0343,0.1708
13.8740,-0.1791,1.0343,0.1708
13.8750,-0.1791,1.0343,0.1708
13.8750,-0.1887,1.0428,0.1684
13.9050,-0.1887,1.0428,0.1684
13.9060,-0.1887,1.0428,0.1684
13.9060,-0.1887,1.0428,0.1684
13.9070,-0.1940,1.0462,0.1718
13.9070,-0.1914,1.0350,0.1716
13.9240,-0.1914,1.0350,0.1716
13.9250,-0.1914,1.0350,0.1716
13.9250,-0.1914,1.0350,0.1716
13.9260,-0.1865,1.0279,0.1740
13.9260,-0.1865,1.0279,0.1740
13.9540,-0.1865,1.0279,0.1740
13.9550,-0.1865,1.0279,0.1740
13.9550,-0.1865,1.0279,0.1740
13.9560,-0.1872,1.0291,0.1764
13.9720,-0.1872,1.0291,0.1764
13.9900,-0.1872,1.0291,0.1764
13.9910,-0.1872,1.0291,0.1764
13.9910,-0.1872,1.0291,0.1764
13.9920,-0.1909,1.0333,0.1721
13.9920,-0.1970,1.0347,0.1699
14.0060,-0.1970,1.0347,0.1699
14.0070,-0.1970,1.0347,0.1699
14.0070,-0.1970,1.0347,0.1699
14.0080,-0.2058,1.0262,0.1755
14.0080,-0.2058,1.0262,0.1755
14.0340,-0.2058,1.0262,0.1755
14.0350,-0.2058,1.0262,0.1755
14.0350,-0.2058,1.0262,0.1755
14.0360,-0.2136,1.0215,0.1811
14.0640,-0.2136,1.0215,0.1811
14.0650,-0.2136,1.0215,0.1811
14.0650,-0.2136,1.0215,0.1811
14.0660,-0.2063,1.0157,0.1835
14.0660,-0.1999,1.0142,0.1784
14.0830,-0.1999,1.0142,0.1784
14.0840,-0.1999,1.0142,0.1784
14.0840,-0.1999,1.0142,0.1784
14.0850,-0.2038,1.0191,0.1789
14.0850,-0.2038,1.0191,0.1789
14.1130,-0.2038,1.0191,0.1789
14.1140,-0.2038,1.0191,0.1789
14.1140,-0.2038,1.0191,0.1789
14.1150,-0.2053,1.0257,0.1799
14.1450,-0.2053,1.0257,0.1799
14.1450,-0.2053,1.0257,0.1799
14.1460,-0.2053,1.0257,0.1799
14.1460,-0.1987,1.0333,0.1767
14.1460,-0.1975,1.0328,0.1721
14.1660,-0.1975,1.0328,0.1721
14.1660,-0.1975,1.0328,0.1721
14.1670,-0.1975,1.0328,0.1721
14.1670,-0.2016,1.0303,0.1779
14.1680,-0.2016,1.0303,0.1779
14.1700,-0.2016,1.0303,0.1779
14.1940,-0.2016,1.0303,0.1779
14.1940,-0.2016,1.0303,0.1779
14.1950,-0.2016,1.0303,0.1779
14.1950,-0.2024,1.0240,0.1806
14.2260,-0.2024,1.0240,0.1806
14.2260,-0.2024,1.0240,0.1806
14.2260,-0.2024,1.0240,0.1806
14.2270,-0.1948,1.0191,0.1816
14.2270,-0.1906,1.0179,0.1806
14.2460,-0.1906,1.0179,0.1806
14.2470,-0.1906,1.0179,0.1806
14.2470,-0.1906,1.0179,0.1806
14.2470,-0.1909,1.0279,0.1733
14.2470,-0.1909,1.0279,0.1733
14.2750,-0.1909,1.0279,0.1733
14.2750,-0.1909,1.0279,0.1733
14.2760,-0.1909,1.0279,0.1733
14.2760,-0.1958,1.0316,0.1708
14.3110,-0.1958,1.0316,0.1708
14.3110,-0.1958,1.0316,0.1708
14.3120,-0.1958,1.0316,0.1708
14.3120,-0.2041,1.0242,0.1703
14.3120,-0.2070,1.0223,0.1779
14.3290,-0.2070,1.0223,0.1779
14.3470,-0.2070,1.0223,0.1779
14.3470,-0.2070,1.0223,0.1779
14.3480,-0.2006,1.0240,0.1774
14.3480,-0.2006,1.0240,0.1774
14.3560,-0.2006,1.0240,0.1774
14.3570,-0.2006,1.0240,0.1774
14.3580,-0.2006,1.0240,0.1774
14.3590,-0.1992,1.0242,0.1718
14.3720,-0.1992,1.0242,0.1718
14.3830,-0.1992,1.0242,0.1718
14.3840,-0.1992,1.0242,0.1718
14.3840,-0.1992,1.0242,0.1718
14.3840,-0.1984,1.0296,0.1716
14.3840,-0.2014,1.0269,0.1703
14.4030,-0.2014,1.0269,0.1703
14.4060,-0.2014,1.0269,0.1703
14.4060,-0.2014,1.0269,0.1703
14.4060,-0.2060,1.0225,0.1728
14.4060,-0.2060,1.0225,0.1728
14.4340,-0.2060,1.0225,0.1728
14.4340,-0.2060,1.0225,0.1728
14.4340,-0.2060,1.0225,0.1728
14.4340,-0.2119,1.0215,0.1764
14.4630,-0.2119,1.0215,0.1764
14.4630,-0.2119,1.0215,0.1764
14.4630,-0.2119,1.0215,0.1764
14.4640,-0.2134,1.0213,0.1752
14.4640,-0.2109,1.0233,0.1777
14.4840,-0.2109,1.0233,0.1777
14.4840,-0.2109,1.0233,0.1777
14.4840,-0.2109,1.0233,0.1777
14.4850,-0.2068,1.0213,0.1760
14.4870,-0.2068,1.0213,0.1760
14.5130,-0.2068,1.0213,0.1760
14.5140,-0.2068,1.0213,0.1760
14.5140,-0.2068,1.0213,0.1760
14.5170,-0.1977,1.0255,0.1679
14.5430,-0.1977,1.0255,0.1679
14.5430,-0.1977,1.0255,0.1679
14.5430,-0.1977,1.0255,0.1679
14.5450,-0.1958,1.0369,0.1706
14.5450,-0.2006,1.0345,0.1664
14.5660,-0.2006,1.0345,0.1664
14.5660,-0.2006,1.0345,0.1664
14.5660,-0.2006,1.0345,0.1664
14.5670,-0.2085,1.0281,0.1647
14.5670,-0.2085,1.0281,0.1647
14.5740,-0.2085,1.0281,0.1647
14.5940,-0.2085,1.0281,0.1647
14.5950,-0.2085,1.0281,0.1647
14.5950,-0.2085,1.0281,0.1647
14.5950,-0.2124,1.0289,0.1747
14.6230,-0.2124,1.0289,0.1747
14.6240,-0.2124,1.0289,0.1747
14.6240,-0.2124,1.0289,0.1747
14.6250,-0.2114,1.0262,0.1774
14.6250,-0.2060,1.0262,0.1772
14.6460,-0.2060,1.0262,0.1772
14.6470,-0.2060,1.0262,0.1772
14.6470,-0.2060,1.0262,0.1772
14.6480,-0.1967,1.0262,0.1806
14.6480,-0.1967,1.0262,0.1806
14.6750,-0.1967,1.0262,0.1806
14.6760,-0.1967,1.0262,0.1806
14.6760,-0.1967,1.0262,0.1806
14.6770,-0.1872,1.0262,0.1852
14.7050,-0.1872,1.0262,0.1852
14.7060,-0.1872,1.0262,0.1852
14.7060,-0.1872,1.0262,0.1852
14.7070,-0.1799,1.0250,0.1882
14.7070,-0.1808,1.0233,0.1830
14.7260,-0.1808,1.0233,0.1830
14.7270,-0.1808,1.0233,0.1830
14.7270,-0.1808,1.0233,0.1830
14.7270,-0.1999,1.0228,0.1794
14.7280,-0.1999,1.0228,0.1794
14.7560,-0.1999,1.0228,0.1794
14.7560,-0.1999,1.0228,0.1794
14.7570,-0.1999,1.0228,0.1794
14.7570,-0.2192,1.0267,0.1823
14.7740,-0.2192,1.0267,0.1823
14.7860,-0.2192,1.0267,0.1823
14.7870,-0.2192,1.0267,0.1823
14.7870,-0.2192,1.0267,0.1823
14.7870,-0.2226,1.0350,0.1733
14.7880,-0.2141,1.0377,0.1716
14.8060,-0.2141,1.0377,0.1716
14.8070,-0.2141,1.0377,0.1716
14.8070,-0.2141,1.0377,0.1716
14.8080,-0.1965,1.0330,0.1738
14.8080,-0.1965,1.0330,0.1738
14.8360,-0.1965,1.0330,0.1738
14.8360,-0.1965,1.0330,0.1738
14.8370,-0.1965,1.0330,0.1738
14.8370,-0.1808,1.0272,0.1833
14.8670,-0.1808,1.0272,0.1833
14.8680,-0.1808,1.0272,0.1833
14.8680,-0.1808,1.0272,0.1833
14.8680,-0.1796,1.0179,0.1889
14.8690,-0.1892,1.0174,0.1901
14.8920,-0.1892,1.0174,0.1901
14.8920,-0.1892,1.0174,0.1901
14.8920,-0.1892,1.0174,0.1901
14.8930,-0.2011,1.0215,0.1826
14.8930,-0.2011,1.0215,0.1826
14.9130,-0.2011,1.0215,0.1826
14.9140,-0.2011,1.0215,0.1826
14.9140,-0.2011,1.0215,0.1826
14.9140,-0.2024,1.0233,0.1769
14.9450,-0.2024,1.0233,0.1769
14.9460,-0.2024,1.0233,0.1769
14.9460,-0.2024,1.0233,0.1769
14.9470,-0.2038,1.0267,0.1764
14.9470,-0.2011,1.0289,0.1786
14.9640,-0.2011,1.0289,0.1786
14.9640,-0.2011,1.0289,0.1786
14.9650,-0.2011,1.0289,0.1786
14.9650,-0.2048,1.0316,0.1838
14.9650,-0.2048,1.0316,0.1838
14.9700,-0.2048,1.0316,0.1838
14.9940,-0.2048,1.0316,0.1838
14.9950,-0.2048,1.0316,0.1838
14.9950,-0.2048,1.0316,0.1838
14.9960,-0.2143,1.0284,0.1862
15.0240,-0.2143,1.0284,0.1862
15.0250,-0.2143,1.0284,0.1862
15.0250,-0.2143,1.0284,0.1862
15.0250,-0.2080,1.0240,0.1874
15.0260,-0.2002,1.0191,0.1852
15.0440,-0.2002,1.0191,0.1852
15.0450,-0.2002,1.0191,0.1852
15.0450,-0.2002,1.0191,0.1852
15.0450,-0.1989,1.0186,0.1818
15.0450,-0.1989,1.0186,0.1818
15.0750,-0.1989,1.0186,0.1818
15.0750,-0.1989,1.0186,0.1818
15.0760,-0.1989,1.0186,0.1818
15.0760,-0.1965,1.0189,0.1828
15.1050,-0.1965,1.0189,0.1828
15.1050,-0.1965,1.0189,0.1828
15.1060,-0.1965,1.0189,0.1828
15.1060,-0.2002,1.0220,0.1845
15.1070,-0.2038,1.0272,0.1818
15.1260,-0.2038,1.0272,0.1818
15.1260,-0.2038,1.0272,0.1818
15.1260,-0.2038,1.0272,0.1818
15.1270,-0.2053,1.0328,0.1747
15.1270,-0.2053,1.0328,0.1747
15.1550,-0.2053,1.0328,0.1747
15.1560,-0.2053,1.0328,0.1747
15.1560,-0.2053,1.0328,0.1747
15.1570,-0.2038,1.0291,0.1774
15.1720,-0.2038,1.0291,0.1774
15.1860,-0.2038,1.0291,0.1774
15.1860,-0.2038,1.0291,0.1774
15.1870,-0.2038,1.0291,0.1774
15.1870,-0.1962,1.0262,0.1821
15.1880,-0.1840,1.0269,0.1904
15.2050,-0.1840,1.0269,0.1904
15.2080,-0.1840,1.0269,0.1904
15.2090,-0.1840,1.0269,0.1904
15.2090,-0.1774,1.0218,0.1914
15.2090,-0.1774,1.0218,0.1914
15.2370,-0.1774,1.0218,0.1914
15.2380,-0.1774,1.0218,0.1914
15.2380,-0.1774,1.0218,0.1914
15.2390,-0.1769,1.0211,0.1848
15.2650,-0.1769,1.0211,0.1848
15.2660,-0.1769,1.0211,0.1848
15.2660,-0.1769,1.0211,0.1848
15.2670,-0.1848,1.0255,0.1801
15.2670,-0.1960,1.0284,0.1777
15.2850,-0.1960,1.0284,0.1777
15.2860,-0.1960,1.0284,0.1777
15.2860,-0.1960,1.0284,0.1777
15.2870,-0.2028,1.0355,0.1804
15.2870,-0.2028,1.0355,0.1804
15.3150,-0.2028,1.0355,0.1804
15.3150,-0.2028,1.0355,0.1804
15.3160,-0.2028,1.0355,0.1804
15.3160,-0.1980,1.0379,0.1852
15.3460,-0.1980,1.0379,0.1852
15.3460,-0.1980,1.0379,0.1852
15.3470,-0.1980,1.0379,0.1852
15.3470,-0.1923,1.0237,0.1806
15.3480,-0.1840,0.9986,0.1804
15.3670,-0.1840,0.9986,0.1804
15.3670,-0.1840,0.9986,0.1804
15.3680,-0.1840,0.9986,0.1804
15.3680,-0.1769,1.0088,0.1838
15.3690,-0.1769,1.0088,0.1838
15.3720,-0.1769,1.0088,0.1838
15.3970,-0.1769,1.0088,0.1838
15.3980,-0.1769,1.0088,0.1838
15.3980,-0.1769,1.0088,0.1838
15.3980,-0.1943,1.0479,0.2070
15.4240,-0.1943,1.0479,0.2070
15.4250,-0.1943,1.0479,0.2070
15.4250,-0.1943,1.0479,0.2070
15.4260,-0.2004,1.0159,0.1740
15.4460,-0.1855,1.0215,0.1750
15.4460,-0.1855,1.0215,0.1750
15.4470,-0.1855,1.0215,0.1750
15.4470,-0.1855,1.0215,0.1750
15.4480,-0.1953,1.0690,0.1982
15.4490,-0.1953,1.0690,0.1982
15.4740,-0.1953,1.0690,0.1982
15.4750,-0.1953,1.0690,0.1982
15.4750,-0.1953,1.0690,0.1982
15.4750,-0.1977,1.0340,0.1711
15.5050,-0.1977,1.0340,0.1711
15.5050,-0.1977,1.0340,0.1711
15.5050,-0.1977,1.0340,0.1711
15.5060,-0.1931,1.0120,0.1755
15.5060,-0.1987,1.0081,0.1928
15.5250,-0.1987,1.0081,0.1928
15.5250,-0.1987,1.0081,0.1928
15.5250,-0.1987,1.0081,0.1928
15.5280,-0.1940,1.0047,0.1904
15.5280,-0.1940,1.0047,0.1904
15.5550,-0.1940,1.0047,0.1904
15.5550,-0.1940,1.0047,0.1904
15.5560,-0.1940,1.0047,0.1904
15.5570,-0.1955,1.0301,0.1821
15.5750,-0.1955,1.0301,0.1821
15.5860,-0.1955,1.0301,0.1821
15.5860,-0.1955,1.0301,0.1821
15.5870,-0.1955,1.0301,0.1821
15.5870,-0.1977,1.0391,0.1818
15.5870,-0.1962,1.0330,0.1833
15.6050,-0.1962,1.0330,0.1833
15.6060,-0.1962,1.0330,0.1833
15.6060,-0.1962,1.0330,0.1833
15.6070,-0.1972,1.0325,0.1757
15.6070,-0.1972,1.0325,0.1757
15.6360,-0.1972,1.0325,0.1757
15.6360,-0.1972,1.0325,0.1757
15.6360,-0.1972,1.0325,0.1757
15.6370,-0.1965,1.0321,0.1843
15.6670,-0.1965,1.0321,0.1843
15.6670,-0.1965,1.0321,0.1843
15.6680,-0.1965,1.0321,0.1843
15.6680,-0.1989,1.0196,0.1901
15.6690,-0.1987,1.0086,0.1855
15.6870,-0.1987,1.0086,0.1855
15.6870,-0.1987,1.0086,0.1855
15.6870,-0.1987,1.0086,0.1855
15.6880,-0.1967,1.0135,0.1862
15.6880,-0.1967,1.0135,0.1862
15.7170,-0.1967,1.0135,0.1862
15.7180,-0.1967,1.0135,0.1862
15.7180,-0.1967,1.0135,0.1862
15.7190,-0.1950,1.0220,0.1855
15.7470,-0.1950,1.0220,0.1855
15.7470,-0.1950,1.0220,0.1855
15.7480,-0.1950,1.0220,0.1855
15.7480,-0.1972,1.0272,0.1835
15.7490,-0.1955,1.0306,0.1833
15.7700,-0.1955,1.0306,0.1833
15.7700,-0.1955,1.0306,0.1833
15.7710,-0.1955,1.0306,0.1833
15.7710,-0.1953,1.0279,0.1882
15.7710,-0.1953,1.0279,0.1882
15.7710,-0.1953,1.0279,0.1882
15.7960,-0.1953,1.0279,0.1882
15.7970,-0.1953,1.0279,0.1882
15.7970,-0.1953,1.0279,0.1882
15.7970,-0.1904,1.0262,0.1845
15.8260,-0.1904,1.0262,0.1845
15.8270,-0.1904,1.0262,0.1845
15.8270,-0.1904,1.0262,0.1845
15.8270,-0.1894,1.0225,0.1855
15.8270,-0.1928,1.0215,0.1887
15.8490,-0.1928,1.0215,0.1887
15.8490,-0.1928,1.0215,0.1887
15.8490,-0.1928,1.0215,0.1887
15.8500,-0.1982,1.0228,0.1850
15.8500,-0.1982,1.0228,0.1850
15.8770,-0.1982,1.0228,0.1850
15.8770,-0.1982,1.0228,0.1850
15.8780,-0.1982,1.0228,0.1850
15.8780,-0.1994,1.0213,0.1833
15.9060,-0.1994,1.0213,0.1833
15.9070,-0.1994,1.0213,0.1833
15.9070,-0.1994,1.0213,0.1833
15.9070,-0.2009,1.0218,0.1835
15.9080,-0.2009,1.0264,0.1823
15.9280,-0.2009,1.0264,0.1823
15.9280,-0.2009,1.0264,0.1823
15.9280,-0.2009,1.0264,0.1823
15.9280,-0.1970,1.0281,0.1808
15.9290,-0.1970,1.0281,0.1808
15.9570,-0.1970,1.0281,0.1808
15.9570,-0.1970,1.0281,0.1808
15.9580,-0.1970,1.0281,0.1808
15.9580,-0.1953,1.0250,0.1835
15.9740,-0.1953,1.0250,0.1835
15.9750,-0.1953,1.0250,0.1835
15.9880,-0.1953,1.0250,0.1835
15.9880,-0.1953,1.0250,0.1835
16.0020,-0.1953,1.0250,0.1835
16.0030,-0.1926,1.0196,0.1828
16.0030,-0.1931,1.0198,0.1818
16.0060,-0.1931,1.0198,0.1818
16.0060,-0.1931,1.0198,0.1818
16.0070,-0.1931,1.0198,0.1818
16.0070,-0.2004,1.0218,0.1804
16.0070,-0.2004,1.0218,0.1804
16.0350,-0.2004,1.0218,0.1804
16.0350,-0.2004,1.0218,0.1804
16.0360,-0.2004,1.0218,0.1804
16.0360,-0.2033,1.0284,0.1808
16.0660,-0.2033,1.0284,0.1808
16.0660,-0.2033,1.0284,0.1808
16.0670,-0.2033,1.0284,0.1808
16.0670,-0.2028,1.0321,0.1852
16.0670,-0.1992,1.0299,0.1918
16.0850,-0.1992,1.0299,0.1918
16.0860,-0.1992,1.0299,0.1918
16.0860,-0.1992,1.0299,0.1918
16.0870,-0.1931,1.0255,0.1896
16.0870,-0.1931,1.0255,0.1896
16.1180,-0.1931,1.0255,0.1896
16.1180,-0.1931,1.0255,0.1896
16.1190,-0.1931,1.0255,0.1896
16.1190,-0.1872,1.0230,0.1828
16.1470,-0.1872,1.0230,0.1828
16.1470,-0.1872,1.0230,0.1828
16.1480,-0.1872,1.0230,0.1828
16.1480,-0.1879,1.0245,0.1830
16.1490,-0.1970,1.0255,0.1762
16.1680,-0.1970,1.0255,0.1762
16.1690,-0.1970,1.0255,0.1762
16.1690,-0.1970,1.0255,0.1762
16.1690,-0.2058,1.0252,0.1728
16.1700,-0.2058,1.0252,0.1728
16.1700,-0.2058,1.0252,0.1728
16.1970,-0.2058,1.0252,0.1728
16.1970,-0.2058,1.0252,0.1728
16.1980,-0.2058,1.0252,0.1728
16.1980,-0.2077,1.0242,0.1826
16.2280,-0.2077,1.0242,0.1826
16.2290,-0.2077,1.0242,0.1826
16.2300,-0.2077,1.0242,0.1826
16.2300,-0.2102,1.0259,0.1852
16.2310,-0.2043,1.0264,0.1852
16.2480,-0.2043,1.0264,0.1852
16.2490,-0.2043,1.0264,0.1852
16.2490,-0.2043,1.0264,0.1852
16.2500,-0.1923,1.0237,0.1867
16.2500,-0.1923,1.0237,0.1867
16.2780,-0.1923,1.0237,0.1867
16.2780,-0.1923,1.0237,0.1867
16.2790,-0.1923,1.0237,0.1867
16.2790,-0.1826,1.0252,0.1879
16.3070,-0.1826,1.0252,0.1879
16.3070,-0.1826,1.0252,0.1879
16.3080,-0.1826,1.0252,0.1879
16.3080,-0.1801,1.0289,0.1848
16.3080,-0.1852,1.0277,0.1845
16.3270,-0.1852,1.0277,0.1845
16.3280,-0.1852,1.0277,0.1845
16.3280,-0.1852,1.0277,0.1845
16.3290,-0.1879,1.0269,0.1882
16.3290,-0.1879,1.0269,0.1882
16.3580,-0.1879,1.0269,0.1882
16.3590,-0.1879,1.0269,0.1882
16.3590,-0.1879,1.0269,0.1882
16.3600,-0.1926,1.0279,0.1884
16.3710,-0.1926,1.0279,0.1884
16.3870,-0.1926,1.0279,0.1884
16.3880,-0.1926,1.0279,0.1884
16.3880,-0.1926,1.0279,0.1884
16.3890,-0.1948,1.0218,0.1879
16.3890,-0.1958,1.0206,0.1892
16.4070,-0.1958,1.0206,0.1892
16.4070,-0.1958,1.0206,0.1892
16.4070,-0.1958,1.0206,0.1892
16.4080,-0.2006,1.0230,0.1857
16.4080,-0.2006,1.0230,0.1857
16.4380,-0.2006,1.0230,0.1857
16.4380,-0.2006,1.0230,0.1857
16.4380,-0.2006,1.0230,0.1857
16.4380,-0.2038,1.0257,0.1855
16.4680,-0.2038,1.0257,0.1855
16.4680,-0.2038,1.0257,0.1855
16.4690,-0.2038,1.0257,0.1855
16.4690,-0.2038,1.0272,0.1835
16.4700,-0.1992,1.0291,0.1830
16.4870,-0.1992,1.0291,0.1830
16.4880,-0.1992,1.0291,0.1830
16.4880,-0.1992,1.0291,0.1830
16.4890,-0.1970,1.0218,0.1872
16.4910,-0.1970,1.0218,0.1872
16.5160,-0.1970,1.0218,0.1872
16.5160,-0.1970,1.0218,0.1872
16.5160,-0.1970,1.0218,0.1872
16.5180,-0.1950,1.0184,0.1877
16.5470,-0.1950,1.0184,0.1877
16.5470,-0.1950,1.0184,0.1877
16.5620,-0.1950,1.0184,0.1877
16.5620,-0.1965,1.0250,0.1821
16.5630,-0.2036,1.0250,0.1806
16.5680,-0.2036,1.0250,0.1806
16.5690,-0.2036,1.0250,0.1806
16.5690,-0.2036,1.0250,0.1806
16.5690,-0.2077,1.0220,0.1874
16.5690,-0.2077,1.0220,0.1874
16.5720,-0.2077,1.0220,0.1874
16.5960,-0.2077,1.0220,0.1874
16.5960,-0.2077,1.0220,0.1874
16.5960,-0.2077,1.0220,0.1874
16.5970,-0.2043,1.0240,0.1936
16.6280,-0.2043,1.0240,0.1936
16.6290,-0.2043,1.0240,0.1936
16.6290,-0.2043,1.0240,0.1936
16.6300,-0.1923,1.0286,0.1918
16.6300,-0.1843,1.0291,0.1845
16.6470,-0.1843,1.0291,0.1845
16.6470,-0.1843,1.0291,0.1845
16.6480,-0.1843,1.0291,0.1845
16.6480,-0.1823,1.0252,0.1840
16.6480,-0.1823,1.0252,0.1840
16.6770,-0.1823,1.0252,0.1840
16.6780,-0.1823,1.0252,0.1840
16.6780,-0.1823,1.0252,0.1840
16.6790,-0.1833,1.0250,0.1794
16.7070,-0.1833,1.0250,0.1794
16.7070,-0.1833,1.0250,0.1794
16.7070,-0.1833,1.0250,0.1794
16.7080,-0.1950,1.0240,0.1772
16.7080,-0.2006,1.0245,0.1865
16.7270,-0.2006,1.0245,0.1865
16.7280,-0.2006,1.0245,0.1865
16.7280,-0.2006,1.0245,0.1865
16.7280,-0.1987,1.0264,0.1872
16.7290,-0.1987,1.0264,0.1872
16.7590,-0.1987,1.0264,0.1872
16.7590,-0.1987,1.0264,0.1872
16.7600,-0.1987,1.0264,0.1872
16.7600,-0.1958,1.0301,0.1845
16.7740,-0.1958,1.0301,0.1845
16.7880,-0.1958,1.0301,0.1845
16.7880,-0.1958,1.0301,0.1845
16.7880,-0.1958,1.0301,0.1845
16.7890,-0.1970,1.0264,0.1850
16.7890,-0.1948,1.0274,0.1906
16.8070,-0.1948,1.0274,0.1906
16.8080,-0.1948,1.0274,0.1906
16.8080,-0.1948,1.0274,0.1906
16.8080,-0.1928,1.0259,0.1896
16.8080,-0.1928,1.0259,0.1896
16.8370,-0.1928,1.0259,0.1896
16.8380,-0.1928,1.0259,0.1896
16.8380,-0.1928,1.0259,0.1896
16.8380,-0.1950,1.0257,0.1840
16.8670,-0.1950,1.0257,0.1840
16.8680,-0.1950,1.0257,0.1840
16.8680,-0.1950,1.0257,0.1840
16.8680,-0.1987,1.0272,0.1811
16.8690,-0.1962,1.0252,0.1767
16.8880,-0.1962,1.0252,0.1767
16.8880,-0.1962,1.0252,0.1767
16.8880,-0.1962,1.0252,0.1767
16.8890,-0.1970,1.0242,0.1823
16.8890,-0.1970,1.0242,0.1823
16.9170,-0.1970,1.0242,0.1823
16.9180,-0.1970,1.0242,0.1823
16.9180,-0.1970,1.0242,0.1823
16.9190,-0.1989,1.0242,0.1884
16.9490,-0.1989,1.0242,0.1884
16.9490,-0.1989,1.0242,0.1884
16.9490,-0.1989,1.0242,0.1884
16.9500,-0.1972,1.0223,0.1882
16.9500,-0.1906,1.0291,0.1899
16.9690,-0.1906,1.0291,0.1899
16.9690,-0.1906,1.0291,0.1899
16.9700,-0.1906,1.0291,0.1899
16.9700,-0.1909,1.0321,0.1926
16.9710,-0.1909,1.0321,0.1926
16.9710,-0.1909,1.0321,0.1926
17.0020,-0.1909,1.0321,0.1926
17.0030,-0.1909,1.0321,0.1926
17.0030,-0.1909,1.0321,0.1926
17.0030,-0.1958,1.0284,0.1872
17.0280,-0.1958,1.0284,0.1872
17.0280,-0.1958,1.0284,0.1872
17.0290,-0.1958,1.0284,0.1872
17.0290,-0.1989,1.0272,0.1794
17.0290,-0.2021,1.0264,0.1779
17.0480,-0.2021,1.0264,0.1779
17.0490,-0.2021,1.0264,0.1779
17.0490,-0.2021,1.0264,0.1779
17.0490,-0.2043,1.0223,0.1813
17.0500,-0.2043,1.0223,0.1813
17.0790,-0.2043,1.0223,0.1813
17.0800,-0.2043,1.0223,0.1813
17.0800,-0.2043,1.0223,0.1813
17.0810,-0.2024,1.0252,0.1845
17.1060,-0.2024,1.0252,0.1845
17.1240,-0.2024,1.0252,0.1845
17.1240,-0.2024,1.0252,0.1845
17.1250,-0.2016,1.0264,0.1884
17.1250,-0.1933,1.0289,0.1821
17.1290,-0.1933,1.0289,0.1821
17.1290,-0.1933,1.0289,0.1821
17.1290,-0.1933,1.0289,0.1821
17.1300,-0.1874,1.0296,0.1808
17.1300,-0.1874,1.0296,0.1808
17.1580,-0.1874,1.0296,0.1808
17.1580,-0.1874,1.0296,0.1808
17.1590,-0.1874,1.0296,0.1808
17.1590,-0.1892,1.0252,0.1877
17.1710,-0.1892,1.0252,0.1877
17.1870,-0.1892,1.0252,0.1877
17.1880,-0.1892,1.0252,0.1877
17.1880,-0.1892,1.0252,0.1877
17.1890,-0.1872,1.0245,0.1921
17.1890,-0.1860,1.0267,0.1911
17.2080,-0.1860,1.0267,0.1911
17.2080,-0.1860,1.0267,0.1911
17.2080,-0.1860,1.0267,0.1911
17.2090,-0.1909,1.0250,0.1860
17.2090,-0.1909,1.0250,0.1860
17.2390,-0.1909,1.0250,0.1860
17.2390,-0.1909,1.0250,0.1860
17.2400,-0.1909,1.0250,0.1860
17.2400,-0.1992,1.0179,0.1813
17.2680,-0.1992,1.0179,0.1813
17.2690,-0.1992,1.0179,0.1813
17.2690,-0.1992,1.0179,0.1813
17.2700,-0.2028,1.0203,0.1808
17.2700,-0.2036,1.0215,0.1855
17.2910,-0.2036,1.0215,0.1855
17.2910,-0.2036,1.0215,0.1855
17.2920,-0.2036,1.0215,0.1855
17.2920,-0.2112,1.0245,0.1848
17.2920,-0.2112,1.0245,0.1848
17.3200,-0.2112,1.0245,0.1848
17.3200,-0.2112,1.0245,0.1848
17.3200,-0.2112,1.0245,0.1848
17.3210,-0.2168,1.0299,0.1855
17.3480,-0.2168,1.0299,0.1855
17.3480,-0.2168,1.0299,0.1855
17.3480,-0.2168,1.0299,0.1855
17.3490,-0.2102,1.0262,0.1921
17.3490,-0.2068,1.0179,0.1955
17.3700,-0.2068,1.0179,0.1955
17.3700,-0.2068,1.0179,0.1955
17.3710,-0.2068,1.0179,0.1955
17.3710,-0.2082,1.0120,0.1997
17.3710,-0.2082,1.0120,0.1997
17.3760,-0.2082,1.0120,0.1997
17.3990,-0.2082,1.0120,0.1997
17.4000,-0.2082,1.0120,0.1997
17.4000,-0.2082,1.0120,0.1997
17.4010,-0.2090,1.0150,0.2019
17.4280,-0.2090,1.0150,0.2019
17.4280,-0.2090,1.0150,0.2019
17.4280,-0.2090,1.0150,0.2019
17.4290,-0.2146,1.0167,0.1909
17.4290,-0.2141,1.0245,0.1843
17.4480,-0.2141,1.0245,0.1843
17.4480,-0.2141,1.0245,0.1843
17.4490,-0.2141,1.0245,0.1843
17.4490,-0.2060,1.0333,0.1850
17.4490,-0.2060,1.0333,0.1850
17.4810,-0.2060,1.0333,0.1850
17.4810,-0.2060,1.0333,0.1850
17.4820,-0.2060,1.0333,0.1850
17.4820,-0.1950,1.0355,0.1850
17.5090,-0.1950,1.0355,0.1850
17.5090,-0.1950,1.0355,0.1850
17.5090,-0.1950,1.0355,0.1850
17.5100,-0.1894,1.0323,0.1811
17.5100,-0.1901,1.0286,0.1826
17.5300,-0.1901,1.0286,0.1826
17.5310,-0.1901,1.0286,0.1826
17.5310,-0.1901,1.0286,0.1826
17.5320,-0.1909,1.0250,0.1914
17.5320,-0.1909,1.0250,0.1914
17.5600,-0.1909,1.0250,0.1914
17.5610,-0.1909,1.0250,0.1914
17.5610,-0.1909,1.0250,0.1914
17.5620,-0.1916,1.0215,0.1926
17.5760,-0.1916,1.0215,0.1926
17.5760,-0.1916,1.0215,0.1926
17.5880,-0.1916,1.0215,0.1926
17.5890,-0.1916,1.0215,0.1926
17.5890,-0.1916,1.0215,0.1926
17.5890,-0.1945,1.0203,0.1882
17.5900,-0.1962,1.0215,0.1840
17.6090,-0.1962,1.0215,0.1840
17.6090,-0.1962,1.0215,0.1840
17.6100,-0.1962,1.0215,0.1840
17.6100,-0.1977,1.0257,0.1799
17.6110,-0.1977,1.0257,0.1799
17.6400,-0.1977,1.0257,0.1799
17.6410,-0.1977,1.0257,0.1799
17.6410,-0.1977,1.0257,0.1799
17.6600,-0.2031,1.0284,0.1789
17.6710,-0.2031,1.0284,0.1789
17.6720,-0.2031,1.0284,0.1789
17.6730,-0.2031,1.0284,0.1789
17.6730,-0.2075,1.0259,0.1818
17.6740,-0.2068,1.0225,0.1855
17.6880,-0.2068,1.0225,0.1855
17.6880,-0.2068,1.0225,0.1855
17.6880,-0.2068,1.0225,0.1855
17.6880,-0.2104,1.0191,0.1865
17.6890,-0.2104,1.0191,0.1865
17.7170,-0.2104,1.0191,0.1865
17.7170,-0.2104,1.0191,0.1865
17.7180,-0.2104,1.0191,0.1865
17.7180,-0.2114,1.0193,0.1850
17.7470,-0.2114,1.0193,0.1850
17.7480,-0.2114,1.0193,0.1850
17.7480,-0.2114,1.0193,0.1850
17.7480,-0.2138,1.0279,0.1857
17.7480,-0.2163,1.0321,0.1826
17.7710,-0.2163,1.0321,0.1826
17.7710,-0.2163,1.0321,0.1826
17.7710,-0.2163,1.0321,0.1826
17.7720,-0.2185,1.0228,0.1767
17.7720,-0.2185,1.0228,0.1767
17.7750,-0.2185,1.0228,0.1767
17.7980,-0.2185,1.0228,0.1767
17.7990,-0.2185,1.0228,0.1767
17.7990,-0.2185,1.0228,0.1767
17.7990,-0.2151,1.0186,0.1782
17.8270,-0.2151,1.0186,0.1782
17.8280,-0.2151,1.0186,0.1782
17.8280,-0.2151,1.0186,0.1782
17.8280,-0.2087,1.0208,0.1833
17.8280,-0.2072,1.0198,0.1840
17.8480,-0.2072,1.0198,0.1840
17.8480,-0.2072,1.0198,0.1840
17.8480,-0.2072,1.0198,0.1840
17.8490,-0.2099,1.0213,0.1796
17.8490,-0.2099,1.0213,0.1796
17.8790,-0.2099,1.0213,0.1796
17.8790,-0.2099,1.0213,0.1796
17.8790,-0.2099,1.0213,0.1796
17.8790,-0.2099,1.0272,0.1777
17.9100,-0.2099,1.0272,0.1777
17.9100,-0.2099,1.0272,0.1777
17.9110,-0.2099,1.0272,0.1777
17.9110,-0.2068,1.0272,0.1794
17.9120,-0.2053,1.0269,0.1823
17.9300,-0.2053,1.0269,0.1823
17.9310,-0.2053,1.0269,0.1823
17.9310,-0.2053,1.0269,0.1823
17.9320,-0.2070,1.0218,0.1813
17.9320,-0.2070,1.0218,0.1813
17.9590,-0.2070,1.0218,0.1813
17.9600,-0.2070,1.0218,0.1813
17.9600,-0.2070,1.0218,0.1813
17.9600,-0.2028,1.0203,0.1808
17.9740,-0.2028,1.0203,0.1808
17.9890,-0.2028,1.0203,0.1808
17.9900,-0.2028,1.0203,0.1808
17.9900,-0.2028,1.0203,0.1808
17.9900,-0.2016,1.0259,0.1794
17.9910,-0.2053,1.0277,0.1760
18.0110,-0.2053,1.0277,0.1760
18.0110,-0.2053,1.0277,0.1760
18.0120,-0.2053,1.0277,0.1760
18.0120,-0.2072,1.0272,0.1742
18.0120,-0.2072,1.0272,0.1742
18.0390,-0.2072,1.0272,0.1742
18.0400,-0.2072,1.0272,0.1742
18.0400,-0.2072,1.0272,0.1742
18.0400,-0.2075,1.0237,0.1801
18.0710,-0.2075,1.0237,0.1801
18.0710,-0.2075,1.0237,0.1801
18.0710,-0.2075,1.0237,0.1801
18.0710,-0.2072,1.0181,0.1848
18.0720,-0.2033,1.0150,0.1848
18.0900,-0.2033,1.0150,0.1848
18.0900,-0.2033,1.0150,0.1848
18.0910,-0.2033,1.0150,0.1848
18.0910,-0.1997,1.0203,0.1843
18.0920,-0.1997,1.0203,0.1843
18.1210,-0.1997,1.0203,0.1843
18.1210,-0.1997,1.0203,0.1843
18.1210,-0.1997,1.0203,0.1843
18.1220,-0.1987,1.0343,0.1896
18.1490,-0.1987,1.0343,0.1896
18.1500,-0.1987,1.0343,0.1896
18.1500,-0.1987,1.0343,0.1896
18.1500,-0.2016,1.0340,0.1840
18.1500,-0.2011,1.0247,0.1794
18.1760,-0.2011,1.0247,0.1794
18.1770,-0.2011,1.0247,0.1794
18.1770,-0.2011,1.0247,0.1794
18.1780,-0.2031,1.0279,0.1838
18.1780,-0.2031,1.0279,0.1838
18.1790,-0.2031,1.0279,0.1838
18.2030,-0.2031,1.0279,0.1838
18.2030,-0.2031,1.0279,0.1838
18.2190,-0.2031,1.0279,0.1838
18.2200,-0.2075,1.0267,0.1826
18.2320,-0.2075,1.0267,0.1826
18.2330,-0.2075,1.0267,0.1826
18.2330,-0.2075,1.0267,0.1826
18.2330,-0.2099,1.0213,0.1843
18.2330,-0.2102,1.0186,0.1833
18.2490,-0.2102,1.0186,0.1833
18.2490,-0.2102,1.0186,0.1833
18.2490,-0.2102,1.0186,0.1833
18.2500,-0.2090,1.0152,0.1791
18.2500,-0.2090,1.0152,0.1791
18.2830,-0.2090,1.0152,0.1791
18.2840,-0.2090,1.0152,0.1791
18.2840,-0.2090,1.0152,0.1791
18.2850,-0.2053,1.0211,0.1813
18.3090,-0.2053,1.0211,0.1813
18.3090,-0.2053,1.0211,0.1813
18.3100,-0.2053,1.0211,0.1813
18.3100,-0.2002,1.0281,0.1857
18.3110,-0.2002,1.0277,0.1901
18.3310,-0.2002,1.0277,0.1901
18.3310,-0.2002,1.0277,0.1901
18.3320,-0.2002,1.0277,0.1901
18.3320,-0.2016,1.0211,0.1877
18.3330,-0.2016,1.0211,0.1877
18.3610,-0.2016,1.0211,0.1877
18.3620,-0.2016,1.0211,0.1877
18.3620,-0.2016,1.0211,0.1877
18.3630,-0.1972,1.0198,0.1872
18.3710,-0.1972,1.0198,0.1872
18.3910,-0.1972,1.0198,0.1872
18.3910,-0.1972,1.0198,0.1872
18.3920,-0.1972,1.0198,0.1872
18.3920,-0.1936,1.0250,0.1862
18.3920,-0.1999,1.0269,0.1794
18.4100,-0.1999,1.0269,0.1794
18.4110,-0.1999,1.0269,0.1794
18.4110,-0.1999,1.0269,0.1794
18.4120,-0.2085,1.0262,0.1828
18.4120,-0.2085,1.0262,0.1828
18.4400,-0.2085,1.0262,0.1828
18.4410,-0.2085,1.0262,0.1828
18.4410,-0.2085,1.0262,0.1828
18.4410,-0.2195,1.0242,0.1816
18.4700,-0.2195,1.0242,0.1816
18.4710,-0.2195,1.0242,0.1816
18.4710,-0.2195,1.0242,0.1816
18.4710,-0.2153,1.0247,0.1821
18.4720,-0.2148,1.0142,0.1850
18.4910,-0.2148,1.0142,0.1850
18.4910,-0.2148,1.0142,0.1850
18.4910,-0.2148,1.0142,0.1850
18.4920,-0.1992,1.0096,0.1943
18.4920,-0.1992,1.0096,0.1943
18.5210,-0.1992,1.0096,0.1943
18.5210,-0.1992,1.0096,0.1943
18.5220,-0.1992,1.0096,0.1943
18.5220,-0.2041,1.0277,0.1801
18.5510,-0.2041,1.0277,0.1801
18.5510,-0.2041,1.0277,0.1801
18.5520,-0.2041,1.0277,0.1801
18.5520,-0.2080,1.0296,0.1684
18.5520,-0.2141,1.0343,0.1740
18.5740,-0.2141,1.0343,0.1740
18.5740,-0.2141,1.0343,0.1740
18.5750,-0.2141,1.0343,0.1740
18.5750,-0.2102,1.0289,0.1862
18.5750,-0.2102,1.0289,0.1862
18.5760,-0.2102,1.0289,0.1862
18.6050,-0.2102,1.0289,0.1862
18.6060,-0.2102,1.0289,0.1862
18.6060,-0.2102,1.0289,0.1862
18.6070,-0.2019,1.0220,0.1838
18.6300,-0.2019,1.0220,0.1838
18.6310,-0.2019,1.0220,0.1838
18.6310,-0.2019,1.0220,0.1838
18.6320,-0.2014,1.0184,0.1833
18.6320,-0.1982,1.0215,0.1838
18.6500,-0.1982,1.0215,0.1838
18.6510,-0.1982,1.0215,0.1838
18.6510,-0.1982,1.0215,0.1838
18.6520,-0.2019,1.0225,0.1730
18.6520,-0.2019,1.0225,0.1730
18.6830,-0.2019,1.0225,0.1730
18.6840,-0.2019,1.0225,0.1730
18.6840,-0.2019,1.0225,0.1730
18.6840,-0.2065,1.0242,0.1757
18.7110,-0.2065,1.0242,0.1757
18.7120,-0.2065,1.0242,0.1757
18.7120,-0.2065,1.0242,0.1757
18.7130,-0.2028,1.0303,0.1892
18.7130,-0.2004,1.0323,0.1857
18.7310,-0.2004,1.0323,0.1857
18.7320,-0.2004,1.0323,0.1857
18.7320,-0.2004,1.0323,0.1857
18.7330,-0.2021,1.0247,0.1794
18.7330,-0.2021,1.0247,0.1794
18.7610,-0.2021,1.0247,0.1794
18.7610,-0.2021,1.0247,0.1794
18.7820,-0.2021,1.0247,0.1794
18.7820,-0.1999,1.0167,0.1813
18.7820,-0.1999,1.0167,0.1813
18.7930,-0.1999,1.0167,0.1813
18.7940,-0.1999,1.0167,0.1813
18.7950,-0.1999,1.0167,0.1813
18.7960,-0.2009,1.0220,0.1843
18.7970,-0.2036,1.0213,0.1894
18.8080,-0.2036,1.0213,0.1894
18.8100,-0.2036,1.0213,0.1894
18.8100,-0.2036,1.0213,0.1894
18.8110,-0.2050,1.0316,0.1808
18.8110,-0.2050,1.0316,0.1808
18.8380,-0.2050,1.0316,0.1808
18.8380,-0.2050,1.0316,0.1808
18.8380,-0.2050,1.0316,0.1808
18.8380,-0.2055,1.0328,0.1735
18.8680,-0.2055,1.0328,0.1735
18.8680,-0.2055,1.0328,0.1735
18.8690,-0.2055,1.0328,0.1735
18.8690,-0.2046,1.0257,0.1691
18.8690,-0.2102,1.0269,0.1664
18.8880,-0.2102,1.0269,0.1664
18.8880,-0.2102,1.0269,0.1664
18.8880,-0.2102,1.0269,0.1664
18.8900,-0.2158,1.0311,0.1818
18.8910,-0.2158,1.0311,0.1818
18.9180,-0.2158,1.0311,0.1818
18.9180,-0.2158,1.0311,0.1818
18.9190,-0.2158,1.0311,0.1818
18.9190,-0.2109,1.0252,0.1808
18.9480,-0.2109,1.0252,0.1808
18.9480,-0.2109,1.0252,0.1808
18.9490,-0.2109,1.0252,0.1808
18.9490,-0.2094,1.0152,0.1772
18.9490,-0.2024,1.0128,0.1789
18.9700,-0.2024,1.0128,0.1789
18.9710,-0.2024,1.0128,0.1789
18.9710,-0.2024,1.0128,0.1789
18.9720,-0.2002,1.0189,0.1816
18.9740,-0.2002,1.0189,0.1816
18.9740,-0.2002,1.0189,0.1816
18.9990,-0.2002,1.0189,0.1816
18.9990,-0.2002,1.0189,0.1816
18.9990,-0.2002,1.0189,0.1816
18.9990,-0.2033,1.0274,0.1850
19.0280,-0.2033,1.0274,0.1850
19.0290,-0.2033,1.0274,0.1850
19.0290,-0.2033,1.0274,0.1850
19.0290,-0.2075,1.0321,0.1801
19.0300,-0.2116,1.0306,0.1774
19.0490,-0.2116,1.0306,0.1774
19.0500,-0.2116,1.0306,0.1774
19.0500,-0.2116,1.0306,0.1774
19.0500,-0.2046,1.0289,0.1811
19.0510,-0.2046,1.0289,0.1811
19.0790,-0.2046,1.0289,0.1811
19.0800,-0.2046,1.0289,0.1811
19.0800,-0.2046,1.0289,0.1811
19.0800,-0.1992,1.0272,0.1867
