
time,AccelerometerX,AccelerometerY,AccelerometerZ
0.0190,-0.4621,0.9519,0.0511
0.0190,-0.4621,0.9519,0.0511
0.0190,-0.4621,0.9519,0.0511
0.0190,-0.4485,0.9463,0.0252
0.0480,-0.4485,0.9463,0.0252
0.0480,-0.4485,0.9463,0.0252
0.0490,-0.4485,0.9463,0.0252
0.0490,-0.4489,0.9649,0.0108
0.0490,-0.4489,0.9649,0.0108
0.0700,-0.4489,0.9649,0.0108
0.0700,-0.4489,0.9649,0.0108
0.0700,-0.4489,0.9649,0.0108
0.0700,-0.4526,0.9702,0.0435
0.0710,-0.4526,0.9429,0.0442
0.0980,-0.4526,0.9429,0.0442
0.0990,-0.4526,0.9429,0.0442
0.0990,-0.4526,0.9429,0.0442
0.0990,-0.4568,0.9404,0.0469
0.1190,-0.4568,0.9404,0.0469
0.1190,-0.4568,0.9404,0.0469
0.1200,-0.4568,0.9404,0.0469
0.1200,-0.4597,0.9460,0.0508
0.1200,-0.4597,0.9460,0.0508
0.1480,-0.4597,0.9460,0.0508
0.1490,-0.4597,0.9460,0.0508
0.1490,-0.4597,0.9460,0.0508
0.1490,-0.4560,0.9443,0.0440
0.1500,-0.4558,0.9426,0.0391
0.1590,-0.4558,0.9426,0.0391
0.1790,-0.4558,0.9426,0.0391
0.1790,-0.4558,0.9426,0.0391
0.1800,-0.4558,0.9426,0.0391
0.1800,-0.4619,0.9497,0.0415
0.1990,-0.4619,0.9497,0.0415
0.1990,-0.4619,0.9497,0.0415
0.1990,-0.4619,0.9497,0.0415
0.2000,-0.4646,0.9529,0.0474
0.2000,-0.4646,0.9529,0.0474
0.2290,-0.4646,0.9529,0.0474
0.2290,-0.4646,0.9529,0.0474
0.2290,-0.4646,0.9529,0.0474
0.2300,-0.4629,0.9519,0.0447
0.2300,-0.4639,0.9517,0.0425
0.2580,-0.4639,0.9517,0.0425
0.2590,-0.4639,0.9517,0.0425
0.2590,-0.4639,0.9517,0.0425
0.2600,-0.4641,0.9539,0.0371
0.2790,-0.4641,0.9539,0.0371
0.2820,-0.4641,0.9539,0.0371
0.2820,-0.4641,0.9539,0.0371
0.2820,-0.4609,0.9512,0.0386
0.2830,-0.4609,0.9512,0.0386
0.3090,-0.4609,0.9512,0.0386
0.3090,-0.4609,0.9512,0.0386
0.3090,-0.4609,0.9512,0.0386
0.3110,-0.4555,0.9470,0.0479
0.3110,-0.4536,0.9485,0.0503
0.3390,-0.4536,0.9485,0.0503
0.3390,-0.4536,0.9485,0.0503
0.3400,-0.4536,0.9485,0.0503
0.3410,-0.4485,0.9470,0.0455
0.3600,-0.4485,0.9470,0.0455
0.3610,-0.4485,0.9470,0.0455
0.3610,-0.4485,0.9470,0.0455
0.3630,-0.4485,0.9529,0.0418
0.3630,-0.4485,0.9529,0.0418
0.3650,-0.4485,0.9529,0.0418
0.3890,-0.4485,0.9529,0.0418
0.3890,-0.4485,0.9529,0.0418
0.3900,-0.4485,0.9529,0.0418
0.3920,-0.4509,0.9568,0.0403
0.3920,-0.4538,0.9536,0.0384
0.4190,-0.4538,0.9536,0.0384
0.4190,-0.4538,0.9536,0.0384
0.4190,-0.4538,0.9536,0.0384
0.4240,-0.4585,0.9536,0.0393
0.4390,-0.4585,0.9536,0.0393
0.4400,-0.4585,0.9536,0.0393
0.4400,-0.4585,0.9536,0.0393
0.4400,-0.4597,0.9536,0.0428
0.4400,-0.4597,0.9536,0.0428
0.4690,-0.4597,0.9536,0.0428
0.4700,-0.4597,0.9536,0.0428
0.4710,-0.4597,0.9536,0.0428
0.4710,-0.4599,0.9534,0.0452
0.4720,-0.4668,0.9551,0.0440
0.4990,-0.4668,0.9551,0.0440
0.5000,-0.4668,0.9551,0.0440
0.5000,-0.4668,0.9551,0.0440
0.5010,-0.4751,0.9553,0.0467
0.5190,-0.4751,0.9553,0.0467
0.5210,-0.4751,0.9553,0.0467
0.5210,-0.4751,0.9553,0.0467
0.5210,-0.4707,0.9499,0.0481
0.5220,-0.4707,0.9499,0.0481
0.5490,-0.4707,0.9499,0.0481
0.5500,-0.4707,0.9499,0.0481
0.5500,-0.4707,0.9499,0.0481
0.5510,-0.4595,0.9443,0.0464
0.5510,-0.4509,0.9475,0.0474
0.5590,-0.4509,0.9475,0.0474
0.5790,-0.4509,0.9475,0.0474
0.5790,-0.4509,0.9475,0.0474
0.5790,-0.4509,0.9475,0.0474
0.5800,-0.4477,0.9441,0.0477
0.6000,-0.4477,0.9441,0.0477
0.6000,-0.4477,0.9441,0.0477
0.6010,-0.4477,0.9441,0.0477
0.6010,-0.4521,0.9465,0.0411
0.6010,-0.4521,0.9465,0.0411
0.6300,-0.4521,0.9465,0.0411
0.6300,-0.4521,0.9465,0.0411
0.6310,-0.4521,0.9465,0.0411
0.6310,-0.4555,0.9470,0.0420
0.6310,-0.4580,0.9495,0.0425
0.6590,-0.4580,0.9495,0.0425
0.6590,-0.4580,0.9495,0.0425
0.6600,-0.4580,0.9495,0.0425
0.6600,-0.4555,0.9509,0.0442
0.6800,-0.4555,0.9509,0.0442
0.6800,-0.4555,0.9509,0.0442
0.6810,-0.4555,0.9509,0.0442
0.6810,-0.4580,0.9570,0.0440
0.6810,-0.4580,0.9570,0.0440
0.7090,-0.4580,0.9570,0.0440
0.7100,-0.4580,0.9570,0.0440
0.7100,-0.4580,0.9570,0.0440
0.7110,-0.4587,0.9570,0.0425
0.7110,-0.4573,0.9512,0.0430
0.7390,-0.4573,0.9512,0.0430
0.7390,-0.4573,0.9512,0.0430
0.7400,-0.4573,0.9512,0.0430
0.7400,-0.4543,0.9502,0.0440
0.7590,-0.4543,0.9502,0.0440
0.7640,-0.4543,0.9502,0.0440
0.7640,-0.4543,0.9502,0.0440
0.7650,-0.4543,0.9502,0.0440
0.7650,-0.4465,0.9443,0.0462
0.7650,-0.4465,0.9443,0.0462
0.7900,-0.4465,0.9443,0.0462
0.7900,-0.4465,0.9443,0.0462
0.7910,-0.4465,0.9443,0.0462
0.7910,-0.4477,0.9443,0.0391
0.7910,-0.4597,0.9558,0.0364
0.8190,-0.4597,0.9558,0.0364
0.8200,-0.4597,0.9558,0.0364
0.8200,-0.4597,0.9558,0.0364
0.8200,-0.4538,0.9587,0.0433
0.8400,-0.4538,0.9587,0.0433
0.8400,-0.4538,0.9587,0.0433
0.8400,-0.4538,0.9587,0.0433
0.8410,-0.4643,0.9558,0.0349
0.8410,-0.4643,0.9558,0.0349
0.8700,-0.4643,0.9558,0.0349
0.8700,-0.4643,0.9558,0.0349
0.8700,-0.4643,0.9558,0.0349
0.8710,-0.4712,0.9470,0.0464
0.8710,-0.4656,0.9443,0.0503
0.8990,-0.4656,0.9443,0.0503
0.9000,-0.4656,0.9443,0.0503
0.9000,-0.4656,0.9443,0.0503
0.9010,-0.4614,0.9451,0.0462
0.9200,-0.4614,0.9451,0.0462
0.9200,-0.4614,0.9451,0.0462
0.9210,-0.4614,0.9451,0.0462
0.9220,-0.4538,0.9451,0.0423
0.9220,-0.4538,0.9451,0.0423
0.9500,-0.4538,0.9451,0.0423
0.9500,-0.4538,0.9451,0.0423
0.9500,-0.4538,0.9451,0.0423
0.9510,-0.4487,0.9468,0.0381
0.9510,-0.4507,0.9517,0.0413
0.9590,-0.4507,0.9517,0.0413
0.9800,-0.4507,0.9517,0.0413
0.9800,-0.4507,0.9517,0.0413
0.9930,-0.4507,0.9517,0.0413
0.9930,-0.4582,0.9595,0.0425
1.0010,-0.4582,0.9595,0.0425
1.0010,-0.4582,0.9595,0.0425
1.0020,-0.4582,0.9595,0.0425
1.0030,-0.4621,0.9534,0.0423
1.0040,-0.4621,0.9534,0.0423
1.0310,-0.4621,0.9534,0.0423
1.0310,-0.4621,0.9534,0.0423
1.0310,-0.4621,0.9534,0.0423
1.0320,-0.4673,0.9465,0.0420
1.0320,-0.4646,0.9448,0.0491
1.0600,-0.4646,0.9448,0.0491
1.0610,-0.4646,0.9448,0.0491
1.0610,-0.4646,0.9448,0.0491
1.1770,-0.4626,0.9490,0.0457
1.1820,-0.4626,0.9490,0.0457
1.1850,-0.4626,0.9490,0.0457
1.1860,-0.4626,0.9490,0.0457
1.1860,-0.4626,0.9490,0.0457
1.1860,-0.4626,0.9490,0.0457
1.1870,-0.4626,0.9490,0.0457
1.1870,-0.4626,0.9490,0.0457
1.1870,-0.4626,0.9490,0.0457
1.1880,-0.4626,0.9490,0.0457
1.1880,-0.4626,0.9490,0.0457
1.1880,-0.4626,0.9490,0.0457
1.1890,-0.4626,0.9490,0.0457
1.1890,-0.4626,0.9490,0.0457
1.1890,-0.4626,0.9490,0.0457
1.1900,-0.4626,0.9490,0.0457
1.1900,-0.4604,0.9531,0.0406
1.1900,-0.4590,0.9453,0.0408
1.1900,-0.4595,0.9436,0.0450
1.1900,-0.4592,0.9438,0.0445
1.1910,-0.4602,0.9451,0.0459
1.1910,-0.4614,0.9463,0.0440
1.1910,-0.4614,0.9463,0.0440
1.1910,-0.4614,0.9463,0.0440
1.2100,-0.4614,0.9463,0.0440
1.2110,-0.4614,0.9463,0.0440
1.2110,-0.4614,0.9463,0.0440
1.2110,-0.4617,0.9453,0.0415
1.2110,-0.4612,0.9438,0.0430
1.2300,-0.4612,0.9438,0.0430
1.2310,-0.4612,0.9438,0.0430
1.2310,-0.4612,0.9438,0.0430
1.2320,-0.4631,0.9499,0.0455
1.2330,-0.4631,0.9499,0.0455
1.2610,-0.4631,0.9499,0.0455
1.2620,-0.4631,0.9499,0.0455
1.2620,-0.4631,0.9499,0.0455
1.2620,-0.4629,0.9482,0.0477
1.2910,-0.4629,0.9482,0.0477
1.2910,-0.4629,0.9482,0.0477
1.2910,-0.4629,0.9482,0.0477
1.2920,-0.4619,0.9475,0.0430
1.2930,-0.4614,0.9490,0.0428
1.3120,-0.4614,0.9490,0.0428
1.3130,-0.4614,0.9490,0.0428
1.3130,-0.4614,0.9490,0.0428
1.3140,-0.4639,0.9539,0.0459
1.3140,-0.4639,0.9539,0.0459
1.3420,-0.4639,0.9539,0.0459
1.3420,-0.4639,0.9539,0.0459
1.3430,-0.4639,0.9539,0.0459
1.3430,-0.4646,0.9568,0.0440
1.3610,-0.4646,0.9568,0.0440
1.3710,-0.4646,0.9568,0.0440
1.3720,-0.4646,0.9568,0.0440
1.3720,-0.4646,0.9568,0.0440
1.3720,-0.4639,0.9502,0.0408
1.3720,-0.4592,0.9475,0.0389
1.3930,-0.4592,0.9475,0.0389
1.3940,-0.4592,0.9475,0.0389
1.3940,-0.4592,0.9475,0.0389
1.3940,-0.4580,0.9473,0.0420
1.3950,-0.4580,0.9473,0.0420
1.4220,-0.4580,0.9473,0.0420
1.4220,-0.4580,0.9473,0.0420
1.4230,-0.4580,0.9473,0.0420
1.4230,-0.4546,0.9468,0.0457
1.4520,-0.4546,0.9468,0.0457
1.4520,-0.4546,0.9468,0.0457
1.4530,-0.4546,0.9468,0.0457
1.4530,-0.4546,0.9475,0.0452
1.4530,-0.4612,0.9482,0.0467
1.4730,-0.4612,0.9482,0.0467
1.4740,-0.4612,0.9482,0.0467
1.4750,-0.4612,0.9482,0.0467
1.4760,-0.4673,0.9490,0.0442
1.4760,-0.4673,0.9490,0.0442
1.5020,-0.4673,0.9490,0.0442
1.5030,-0.4673,0.9490,0.0442
1.5030,-0.4673,0.9490,0.0442
1.5040,-0.4741,0.9543,0.0435
1.5330,-0.4741,0.9543,0.0435
1.5340,-0.4741,0.9543,0.0435
1.5370,-0.4741,0.9543,0.0435
1.5380,-0.4719,0.9563,0.0457
1.5570,-0.4514,0.9502,0.0435
1.5580,-0.4514,0.9502,0.0435
1.5580,-0.4514,0.9502,0.0435
1.5590,-0.4514,0.9502,0.0435
1.5590,-0.4360,0.9438,0.0386
1.5590,-0.4360,0.9438,0.0386
1.5600,-0.4360,0.9438,0.0386
1.5810,-0.4360,0.9438,0.0386
1.5810,-0.4360,0.9438,0.0386
1.5820,-0.4360,0.9438,0.0386
1.5830,-0.4379,0.9441,0.0347
1.6130,-0.4379,0.9441,0.0347
1.6140,-0.4379,0.9441,0.0347
1.6150,-0.4379,0.9441,0.0347
1.6160,-0.4553,0.9492,0.0349
1.6160,-0.4726,0.9502,0.0413
1.6330,-0.4726,0.9502,0.0413
1.6340,-0.4726,0.9502,0.0413
1.6350,-0.4726,0.9502,0.0413
1.6350,-0.4800,0.9470,0.0479
1.6360,-0.4800,0.9470,0.0479
1.6630,-0.4800,0.9470,0.0479
1.6640,-0.4800,0.9470,0.0479
1.6650,-0.4800,0.9470,0.0479
1.6650,-0.4805,0.9448,0.0506
1.6970,-0.4805,0.9448,0.0506
1.6980,-0.4805,0.9448,0.0506
1.7010,-0.4805,0.9448,0.0506
1.7020,-0.4768,0.9382,0.0464
1.7030,-0.4683,0.9399,0.0469
1.7140,-0.4683,0.9399,0.0469
1.7150,-0.4683,0.9399,0.0469
1.7160,-0.4683,0.9399,0.0469
1.7170,-0.4553,0.9507,0.0474
1.7180,-0.4553,0.9507,0.0474
1.7440,-0.4553,0.9507,0.0474
1.7450,-0.4553,0.9507,0.0474
1.7460,-0.4553,0.9507,0.0474
1.7470,-0.4472,0.9536,0.0435
1.7630,-0.4472,0.9536,0.0435
1.7720,-0.4472,0.9536,0.0435
1.7730,-0.4472,0.9536,0.0435
1.7750,-0.4472,0.9536,0.0435
1.7760,-0.4441,0.9558,0.0393
1.7770,-0.4497,0.9583,0.0379
1.7940,-0.4497,0.9583,0.0379
1.7950,-0.4497,0.9583,0.0379
1.7970,-0.4497,0.9583,0.0379
1.7980,-0.4568,0.9583,0.0440
1.8010,-0.4568,0.9583,0.0440
1.8230,-0.4568,0.9583,0.0440
1.8240,-0.4568,0.9583,0.0440
1.8250,-0.4568,0.9583,0.0440
1.8260,-0.4587,0.9504,0.0486
1.8580,-0.4587,0.9504,0.0486
1.8610,-0.4587,0.9504,0.0486
1.8620,-0.4587,0.9504,0.0486
1.8630,-0.4614,0.9463,0.0474
1.8650,-0.4629,0.9504,0.0489
1.8740,-0.4629,0.9504,0.0489
1.8760,-0.4629,0.9504,0.0489
1.8770,-0.4629,0.9504,0.0489
1.8780,-0.4621,0.9541,0.0503
1.8790,-0.4621,0.9541,0.0503
1.9070,-0.4621,0.9541,0.0503
1.9080,-0.4621,0.9541,0.0503
1.9090,-0.4621,0.9541,0.0503
1.9100,-0.4646,0.9495,0.0491
1.9340,-0.4646,0.9495,0.0491
1.9350,-0.4646,0.9495,0.0491
1.9360,-0.4646,0.9495,0.0491
1.9360,-0.4614,0.9448,0.0489
1.9370,-0.4565,0.9424,0.0506
1.9600,-0.4565,0.9424,0.0506
1.9600,-0.4565,0.9424,0.0506
1.9610,-0.4565,0.9424,0.0506
1.9620,-0.4514,0.9414,0.0528
1.9620,-0.4514,0.9414,0.0528
1.9630,-0.4514,0.9414,0.0528
1.9830,-0.4514,0.9414,0.0528
1.9830,-0.4514,0.9414,0.0528
1.9840,-0.4514,0.9414,0.0528
1.9850,-0.4536,0.9490,0.0513
2.0170,-0.4536,0.9490,0.0513
2.0180,-0.4536,0.9490,0.0513
2.0210,-0.4536,0.9490,0.0513
2.0220,-0.4587,0.9514,0.0472
2.0220,-0.4629,0.9536,0.0411
2.0340,-0.4629,0.9536,0.0411
2.0360,-0.4629,0.9536,0.0411
2.0370,-0.4629,0.9536,0.0411
2.0380,-0.4592,0.9519,0.0411
2.0390,-0.4592,0.9519,0.0411
2.0640,-0.4592,0.9519,0.0411
2.0660,-0.4592,0.9519,0.0411
2.0670,-0.4592,0.9519,0.0411
2.0680,-0.4582,0.9509,0.0464
2.0940,-0.4582,0.9509,0.0464
2.0970,-0.4582,0.9509,0.0464
2.1000,-0.4582,0.9509,0.0464
2.1300,-0.4526,0.9495,0.0516
2.1310,-0.4441,0.9495,0.0501
2.1320,-0.4441,0.9495,0.0501
2.1320,-0.4441,0.9495,0.0501
2.1320,-0.4441,0.9495,0.0501
2.1330,-0.4377,0.9477,0.0440
2.1330,-0.4377,0.9477,0.0440
2.1420,-0.4377,0.9477,0.0440
2.1420,-0.4377,0.9477,0.0440
2.1430,-0.4377,0.9477,0.0440
2.1430,-0.4487,0.9565,0.0335
2.1590,-0.4487,0.9565,0.0335
2.1720,-0.4487,0.9565,0.0335
2.1720,-0.4487,0.9565,0.0335
2.1720,-0.4487,0.9565,0.0335
2.1730,-0.4631,0.9712,0.0389
2.1730,-0.4565,0.9624,0.0609
2.1930,-0.4565,0.9624,0.0609
2.1930,-0.4565,0.9624,0.0609
2.1940,-0.4565,0.9624,0.0609
2.1950,-0.4485,0.9328,0.0545
2.1950,-0.4485,0.9328,0.0545
2.2220,-0.4485,0.9328,0.0545
2.2220,-0.4485,0.9328,0.0545
2.2230,-0.4485,0.9328,0.0545
2.2230,-0.4685,0.9267,0.0428
2.2520,-0.4685,0.9267,0.0428
2.2530,-0.4685,0.9267,0.0428
2.2530,-0.4685,0.9267,0.0428
2.2540,-0.4827,0.9543,0.0513
2.2540,-0.4719,0.9778,0.0508
2.2740,-0.4719,0.9778,0.0508
2.2740,-0.4719,0.9778,0.0508
2.2750,-0.4719,0.9778,0.0508
2.2750,-0.4687,0.9607,0.0283
2.2760,-0.4687,0.9607,0.0283
2.3020,-0.4687,0.9607,0.0283
2.3020,-0.4687,0.9607,0.0283
2.3030,-0.4687,0.9607,0.0283
2.3030,-0.4697,0.9394,0.0352
2.3330,-0.4697,0.9394,0.0352
2.3340,-0.4697,0.9394,0.0352
2.3340,-0.4697,0.9394,0.0352
2.3350,-0.4641,0.9429,0.0611
2.3350,-0.4553,0.9597,0.0618
2.3540,-0.4553,0.9597,0.0618
2.3540,-0.4553,0.9597,0.0618
2.3550,-0.4553,0.9597,0.0618
2.3570,-0.4472,0.9590,0.0452
2.3580,-0.4472,0.9590,0.0452
2.3640,-0.4472,0.9590,0.0452
2.3850,-0.4472,0.9590,0.0452
2.3860,-0.4472,0.9590,0.0452
2.3860,-0.4472,0.9590,0.0452
2.3870,-0.4438,0.9487,0.0335
2.4170,-0.4438,0.9487,0.0335
2.4180,-0.4438,0.9487,0.0335
2.4200,-0.4438,0.9487,0.0335
2.4210,-0.4472,0.9451,0.0367
2.4210,-0.4573,0.9490,0.0435
2.4350,-0.4573,0.9490,0.0435
2.4350,-0.4573,0.9490,0.0435
2.4360,-0.4573,0.9490,0.0435
2.4370,-0.4629,0.9521,0.0491
2.4380,-0.4629,0.9521,0.0491
2.4650,-0.4629,0.9521,0.0491
2.4660,-0.4629,0.9521,0.0491
2.4670,-0.4629,0.9521,0.0491
2.4680,-0.4651,0.9536,0.0499
2.4950,-0.4651,0.9536,0.0499
2.4970,-0.4651,0.9536,0.0499
2.4980,-0.4651,0.9536,0.0499
2.4990,-0.4673,0.9502,0.0433
2.5010,-0.4651,0.9509,0.0369
2.5160,-0.4651,0.9509,0.0369
2.5180,-0.4651,0.9509,0.0369
2.5210,-0.4651,0.9509,0.0369
2.5220,-0.4617,0.9463,0.0437
2.5230,-0.4617,0.9463,0.0437
2.5440,-0.4617,0.9463,0.0437
2.5450,-0.4617,0.9463,0.0437
2.5460,-0.4617,0.9463,0.0437
2.5470,-0.4597,0.9460,0.0452
2.5620,-0.4597,0.9460,0.0452
2.5760,-0.4597,0.9460,0.0452
2.5770,-0.4597,0.9460,0.0452
2.5790,-0.4597,0.9460,0.0452
2.5810,-0.4575,0.9480,0.0433
2.5820,-0.4533,0.9448,0.0420
2.5970,-0.4533,0.9448,0.0420
2.5990,-0.4533,0.9448,0.0420
2.6010,-0.4533,0.9448,0.0420
2.6020,-0.4538,0.9455,0.0428
2.6030,-0.4538,0.9455,0.0428
2.6250,-0.4538,0.9455,0.0428
2.6270,-0.4538,0.9455,0.0428
2.6280,-0.4538,0.9455,0.0428
2.6300,-0.4573,0.9561,0.0423
2.6560,-0.4573,0.9561,0.0423
2.6570,-0.4573,0.9561,0.0423
2.6850,-0.4573,0.9561,0.0423
2.6850,-0.4607,0.9587,0.0376
2.6860,-0.4641,0.9514,0.0364
2.6860,-0.4641,0.9514,0.0364
2.6870,-0.4641,0.9514,0.0364
2.6870,-0.4641,0.9514,0.0364
2.6880,-0.4639,0.9517,0.0401
2.6880,-0.4639,0.9517,0.0401
2.7040,-0.4639,0.9517,0.0401
2.7040,-0.4639,0.9517,0.0401
2.7050,-0.4639,0.9517,0.0401
2.7050,-0.4595,0.9561,0.0386
2.7370,-0.4595,0.9561,0.0386
2.7370,-0.4595,0.9561,0.0386
2.7380,-0.4595,0.9561,0.0386
2.7390,-0.4509,0.9551,0.0393
2.7400,-0.4489,0.9499,0.0393
2.7550,-0.4489,0.9499,0.0393
2.7560,-0.4489,0.9499,0.0393
2.7570,-0.4489,0.9499,0.0393
2.7580,-0.4526,0.9497,0.0411
2.7590,-0.4526,0.9497,0.0411
2.7600,-0.4526,0.9497,0.0411
2.7850,-0.4526,0.9497,0.0411
2.7860,-0.4526,0.9497,0.0411
2.7870,-0.4526,0.9497,0.0411
2.7880,-0.4519,0.9487,0.0413
2.8170,-0.4519,0.9487,0.0413
2.8200,-0.4519,0.9487,0.0413
2.8210,-0.4519,0.9487,0.0413
2.8210,-0.4524,0.9492,0.0376
2.8220,-0.4577,0.9548,0.0354
2.8370,-0.4577,0.9548,0.0354
2.8380,-0.4577,0.9548,0.0354
2.8390,-0.4577,0.9548,0.0354
2.8410,-0.4624,0.9561,0.0337
2.8420,-0.4624,0.9561,0.0337
2.8650,-0.4624,0.9561,0.0337
2.8660,-0.4624,0.9561,0.0337
2.8670,-0.4624,0.9561,0.0337
2.8680,-0.4577,0.9561,0.0337
2.8970,-0.4577,0.9561,0.0337
2.8990,-0.4577,0.9561,0.0337
2.9000,-0.4577,0.9561,0.0337
2.9010,-0.4470,0.9541,0.0354
2.9030,-0.4431,0.9499,0.0403
2.9180,-0.4431,0.9499,0.0403
2.9190,-0.4431,0.9499,0.0403
2.9200,-0.4431,0.9499,0.0403
2.9210,-0.4450,0.9453,0.0437
2.9220,-0.4450,0.9453,0.0437
2.9450,-0.4450,0.9453,0.0437
2.9460,-0.4450,0.9453,0.0437
2.9460,-0.4450,0.9453,0.0437
2.9470,-0.4541,0.9473,0.0440
2.9640,-0.4541,0.9473,0.0440
2.9760,-0.4541,0.9473,0.0440
2.9770,-0.4541,0.9473,0.0440
2.9780,-0.4541,0.9473,0.0440
2.9790,-0.4565,0.9529,0.0384
2.9800,-0.4575,0.9565,0.0349
2.9960,-0.4575,0.9565,0.0349
2.9980,-0.4575,0.9565,0.0349
2.9990,-0.4575,0.9565,0.0349
3.0000,-0.4604,0.9568,0.0406
3.0010,-0.4604,0.9568,0.0406
3.0270,-0.4604,0.9568,0.0406
3.0280,-0.4604,0.9568,0.0406
3.0290,-0.4604,0.9568,0.0406
3.0300,-0.4597,0.9546,0.0474
3.0570,-0.4597,0.9546,0.0474
3.0580,-0.4597,0.9546,0.0474
3.0580,-0.4597,0.9546,0.0474
3.0590,-0.4558,0.9546,0.0462
3.0590,-0.4514,0.9541,0.0450
3.0790,-0.4514,0.9541,0.0450
3.0810,-0.4514,0.9541,0.0450
3.0820,-0.4514,0.9541,0.0450
3.0830,-0.4504,0.9553,0.0445
3.0840,-0.4504,0.9553,0.0445
3.1050,-0.4504,0.9553,0.0445
3.1060,-0.4504,0.9553,0.0445
3.1070,-0.4504,0.9553,0.0445
3.1080,-0.4509,0.9524,0.0391
3.1370,-0.4509,0.9524,0.0391
3.1380,-0.4509,0.9524,0.0391
3.1410,-0.4509,0.9524,0.0391
3.1420,-0.4560,0.9548,0.0408
3.1420,-0.4504,0.9580,0.0452
3.1620,-0.4504,0.9580,0.0452
3.1630,-0.4504,0.9580,0.0452
3.1640,-0.4504,0.9580,0.0452
3.1650,-0.4448,0.9565,0.0437
3.1660,-0.4448,0.9565,0.0437
3.1670,-0.4448,0.9565,0.0437
3.1860,-0.4448,0.9565,0.0437
3.1870,-0.4448,0.9565,0.0437
3.1880,-0.4448,0.9565,0.0437
3.1890,-0.4458,0.9539,0.0459
3.2160,-0.4458,0.9539,0.0459
3.2490,-0.4458,0.9539,0.0459
3.2510,-0.4458,0.9539,0.0459
3.2510,-0.4494,0.9546,0.0455
3.2520,-0.4509,0.9580,0.0486
3.2530,-0.4509,0.9580,0.0486
3.2540,-0.4509,0.9580,0.0486
3.2550,-0.4509,0.9580,0.0486
3.2580,-0.4519,0.9627,0.0489
3.2590,-0.4519,0.9627,0.0489
3.2640,-0.4519,0.9627,0.0489
3.2640,-0.4519,0.9627,0.0489
3.2650,-0.4519,0.9627,0.0489
3.2660,-0.4494,0.9575,0.0459
3.2940,-0.4494,0.9575,0.0459
3.2940,-0.4494,0.9575,0.0459
3.2950,-0.4494,0.9575,0.0459
3.2950,-0.4467,0.9556,0.0437
3.2960,-0.4443,0.9553,0.0445
3.3220,-0.4443,0.9553,0.0445
3.3230,-0.4443,0.9553,0.0445
3.3240,-0.4443,0.9553,0.0445
3.3240,-0.4428,0.9504,0.0425
3.3250,-0.4428,0.9504,0.0425
3.3450,-0.4428,0.9504,0.0425
3.3450,-0.4428,0.9504,0.0425
3.3460,-0.4428,0.9504,0.0425
3.3460,-0.4441,0.9509,0.0428
3.3610,-0.4441,0.9509,0.0428
3.3650,-0.4441,0.9509,0.0428
3.3770,-0.4441,0.9509,0.0428
3.3780,-0.4441,0.9509,0.0428
3.3800,-0.4441,0.9509,0.0428
3.3810,-0.4470,0.9548,0.0411
3.3820,-0.4519,0.9512,0.0420
3.3970,-0.4519,0.9512,0.0420
3.3980,-0.4519,0.9512,0.0420
3.3990,-0.4519,0.9512,0.0420
3.3990,-0.4516,0.9477,0.0481
3.4000,-0.4516,0.9477,0.0481
3.4250,-0.4516,0.9477,0.0481
3.4260,-0.4516,0.9477,0.0481
3.4260,-0.4516,0.9477,0.0481
3.4270,-0.4487,0.9551,0.0511
3.4560,-0.4487,0.9551,0.0511
3.4570,-0.4487,0.9551,0.0511
3.4580,-0.4487,0.9551,0.0511
3.4590,-0.4450,0.9568,0.0506
3.4600,-0.4489,0.9583,0.0472
3.4810,-0.4489,0.9583,0.0472
3.4820,-0.4489,0.9583,0.0472
3.4830,-0.4489,0.9583,0.0472
3.4840,-0.4521,0.9605,0.0462
3.4850,-0.4521,0.9605,0.0462
3.5050,-0.4521,0.9605,0.0462
3.5060,-0.4521,0.9605,0.0462
3.5070,-0.4521,0.9605,0.0462
3.5090,-0.4531,0.9607,0.0477
3.5340,-0.4531,0.9607,0.0477
3.5350,-0.4531,0.9607,0.0477
3.5360,-0.4531,0.9607,0.0477
3.5380,-0.4573,0.9563,0.0486
3.5390,-0.4585,0.9561,0.0506
3.5550,-0.4585,0.9561,0.0506
3.5560,-0.4585,0.9561,0.0506
3.5570,-0.4585,0.9561,0.0506
3.5610,-0.4543,0.9546,0.0555
3.5630,-0.4543,0.9546,0.0555
3.5640,-0.4543,0.9546,0.0555
3.5850,-0.4543,0.9546,0.0555
3.5860,-0.4543,0.9546,0.0555
3.5870,-0.4543,0.9546,0.0555
3.5880,-0.4470,0.9531,0.0569
3.6160,-0.4470,0.9531,0.0569
3.6170,-0.4470,0.9531,0.0569
3.6180,-0.4470,0.9531,0.0569
3.6190,-0.4397,0.9531,0.0540
3.6200,-0.4345,0.9585,0.0481
3.6380,-0.4345,0.9585,0.0481
3.6380,-0.4345,0.9585,0.0481
3.6390,-0.4345,0.9585,0.0481
3.6390,-0.4321,0.9558,0.0435
3.6390,-0.4321,0.9558,0.0435
3.6650,-0.4321,0.9558,0.0435
3.6660,-0.4321,0.9558,0.0435
3.6670,-0.4321,0.9558,0.0435
3.6680,-0.4375,0.9529,0.0418
3.6960,-0.4375,0.9529,0.0418
3.6970,-0.4375,0.9529,0.0418
3.6980,-0.4375,0.9529,0.0418
3.6980,-0.4416,0.9561,0.0408
3.6990,-0.4465,0.9575,0.0472
3.7150,-0.4465,0.9575,0.0472
3.7160,-0.4465,0.9575,0.0472
3.7160,-0.4465,0.9575,0.0472
3.7170,-0.4507,0.9575,0.0489
3.7180,-0.4507,0.9575,0.0489
3.7460,-0.4507,0.9575,0.0489
3.7470,-0.4507,0.9575,0.0489
3.7470,-0.4507,0.9575,0.0489
3.7480,-0.4524,0.9583,0.0496
3.7700,-0.4524,0.9583,0.0496
3.7700,-0.4524,0.9583,0.0496
3.7740,-0.4524,0.9583,0.0496
3.7750,-0.4524,0.9583,0.0496
3.7760,-0.4524,0.9583,0.0496
3.7770,-0.4489,0.9512,0.0540
3.7780,-0.4507,0.9548,0.0535
3.7960,-0.4507,0.9548,0.0535
3.7970,-0.4507,0.9548,0.0535
3.7980,-0.4507,0.9548,0.0535
3.7990,-0.4575,0.9551,0.0486
3.8000,-0.4575,0.9551,0.0486
3.8280,-0.4575,0.9551,0.0486
3.8290,-0.4575,0.9551,0.0486
3.8290,-0.4575,0.9551,0.0486
3.8300,-0.4592,0.9546,0.0457
3.8610,-0.4592,0.9546,0.0457
3.8620,-0.4592,0.9546,0.0457
3.8630,-0.4592,0.9546,0.0457
3.8640,-0.4546,0.9524,0.0479
3.8650,-0.4519,0.9509,0.0518
3.8790,-0.4519,0.9509,0.0518
3.8800,-0.4519,0.9509,0.0518
3.8810,-0.4519,0.9509,0.0518
3.8810,-0.4482,0.9512,0.0472
3.8820,-0.4482,0.9512,0.0472
3.9110,-0.4482,0.9512,0.0472
3.9120,-0.4482,0.9512,0.0472
3.9130,-0.4482,0.9512,0.0472
3.9140,-0.4465,0.9539,0.0435
3.9360,-0.4465,0.9539,0.0435
3.9380,-0.4465,0.9539,0.0435
3.9390,-0.4465,0.9539,0.0435
3.9390,-0.4502,0.9529,0.0452
3.9410,-0.4507,0.9517,0.0474
3.9590,-0.4507,0.9517,0.0474
3.9610,-0.4507,0.9517,0.0474
3.9630,-0.4507,0.9517,0.0474
3.9640,-0.4499,0.9551,0.0447
3.9650,-0.4499,0.9551,0.0447
3.9650,-0.4499,0.9551,0.0447
3.9850,-0.4499,0.9551,0.0447
3.9860,-0.4499,0.9551,0.0447
3.9870,-0.4499,0.9551,0.0447
3.9880,-0.4482,0.9561,0.0433
4.0190,-0.4482,0.9561,0.0433
4.0190,-0.4482,0.9561,0.0433
4.0200,-0.4482,0.9561,0.0433
4.0200,-0.4502,0.9509,0.0474
4.0210,-0.4524,0.9517,0.0452
4.0410,-0.4524,0.9517,0.0452
4.0420,-0.4524,0.9517,0.0452
4.0430,-0.4524,0.9517,0.0452
4.0430,-0.4511,0.9561,0.0442
4.0440,-0.4511,0.9561,0.0442
4.0650,-0.4511,0.9561,0.0442
4.0660,-0.4511,0.9561,0.0442
4.0670,-0.4511,0.9561,0.0442
4.0690,-0.4494,0.9563,0.0462
4.0950,-0.4494,0.9563,0.0462
4.0960,-0.4494,0.9563,0.0462
4.0960,-0.4494,0.9563,0.0462
4.0980,-0.4509,0.9556,0.0464
4.0990,-0.4568,0.9580,0.0455
4.1170,-0.4568,0.9580,0.0455
4.1180,-0.4568,0.9580,0.0455
4.1180,-0.4568,0.9580,0.0455
4.1180,-0.4602,0.9563,0.0433
4.1180,-0.4602,0.9563,0.0433
4.1460,-0.4602,0.9563,0.0433
4.1470,-0.4602,0.9563,0.0433
4.1470,-0.4602,0.9563,0.0433
4.1470,-0.4568,0.9543,0.0411
4.1610,-0.4568,0.9543,0.0411
4.1760,-0.4568,0.9543,0.0411
4.1770,-0.4568,0.9543,0.0411
4.1770,-0.4568,0.9543,0.0411
4.1770,-0.4485,0.9521,0.0437
4.1780,-0.4421,0.9514,0.0413
4.1970,-0.4421,0.9514,0.0413
4.1980,-0.4421,0.9514,0.0413
4.1980,-0.4421,0.9514,0.0413
4.1980,-0.4419,0.9539,0.0398
4.1990,-0.4419,0.9539,0.0398
4.2270,-0.4419,0.9539,0.0398
4.2280,-0.4419,0.9539,0.0398
4.2280,-0.4419,0.9539,0.0398
4.2280,-0.4450,0.9548,0.0398
4.2570,-0.4450,0.9548,0.0398
4.2570,-0.4450,0.9548,0.0398
4.2580,-0.4450,0.9548,0.0398
4.2580,-0.4477,0.9509,0.0408
4.2580,-0.4445,0.9541,0.0403
4.2780,-0.4445,0.9541,0.0403
4.2780,-0.4445,0.9541,0.0403
4.2790,-0.4445,0.9541,0.0403
4.3940,-0.4509,0.9565,0.0384
4.3950,-0.4509,0.9565,0.0384
4.4010,-0.4509,0.9565,0.0384
4.4060,-0.4509,0.9565,0.0384
4.4330,-0.4509,0.9565,0.0384
4.4330,-0.4509,0.9565,0.0384
4.4340,-0.4509,0.9565,0.0384
4.4340,-0.4509,0.9565,0.0384
4.4340,-0.4509,0.9565,0.0384
4.4340,-0.4509,0.9565,0.0384
4.4350,-0.4509,0.9565,0.0384
4.4350,-0.4509,0.9565,0.0384
4.4350,-0.4509,0.9565,0.0384
4.4360,-0.4509,0.9565,0.0384
4.4360,-0.4509,0.9565,0.0384
4.4360,-0.4509,0.9565,0.0384
4.4370,-0.4582,0.9531,0.0398
4.4370,-0.4665,0.9529,0.0408
4.4370,-0.4683,0.9509,0.0442
4.4380,-0.4643,0.9502,0.0481
4.4380,-0.4577,0.9492,0.0499
4.4380,-0.4514,0.9463,0.0428
4.4380,-0.4514,0.9463,0.0428
4.4380,-0.4514,0.9463,0.0428
4.4390,-0.4514,0.9463,0.0428
4.4390,-0.4514,0.9463,0.0428
4.4390,-0.4467,0.9492,0.0345
4.4480,-0.4467,0.9492,0.0345
4.4480,-0.4467,0.9492,0.0345
4.4480,-0.4467,0.9492,0.0345
4.4510,-0.4441,0.9517,0.0349
4.4510,-0.4441,0.9517,0.0349
4.4770,-0.4441,0.9517,0.0349
4.4770,-0.4441,0.9517,0.0349
4.4780,-0.4441,0.9517,0.0349
4.4800,-0.4443,0.9548,0.0401
4.4800,-0.4477,0.9573,0.0494
4.5070,-0.4477,0.9573,0.0494
4.5080,-0.4477,0.9573,0.0494
4.5080,-0.4477,0.9573,0.0494
4.5080,-0.4492,0.9531,0.0506
4.5280,-0.4492,0.9531,0.0506
4.5310,-0.4492,0.9531,0.0506
4.5320,-0.4492,0.9531,0.0506
4.5320,-0.4516,0.9526,0.0489
4.5320,-0.4516,0.9526,0.0489
4.5570,-0.4516,0.9526,0.0489
4.5570,-0.4516,0.9526,0.0489
4.5570,-0.4516,0.9526,0.0489
4.5580,-0.4573,0.9590,0.0442
4.5580,-0.4612,0.9563,0.0408
4.5610,-0.4612,0.9563,0.0408
4.5860,-0.4612,0.9563,0.0408
4.5870,-0.4612,0.9563,0.0408
4.5870,-0.4612,0.9563,0.0408
4.5870,-0.4592,0.9487,0.0398
4.6080,-0.4592,0.9487,0.0398
4.6090,-0.4592,0.9487,0.0398
4.6090,-0.4592,0.9487,0.0398
4.6100,-0.4553,0.9495,0.0440
4.6100,-0.4553,0.9495,0.0440
4.6370,-0.4553,0.9495,0.0440
4.6370,-0.4553,0.9495,0.0440
4.6380,-0.4553,0.9495,0.0440
4.6380,-0.4489,0.9529,0.0491
4.6380,-0.4524,0.9524,0.0474
4.6690,-0.4524,0.9524,0.0474
4.6690,-0.4524,0.9524,0.0474
4.6690,-0.4524,0.9524,0.0474
4.6690,-0.4604,0.9536,0.0462
4.6880,-0.4604,0.9536,0.0462
4.6890,-0.4604,0.9536,0.0462
4.6890,-0.4604,0.9536,0.0462
4.6910,-0.4621,0.9551,0.0442
4.6920,-0.4621,0.9551,0.0442
4.7190,-0.4621,0.9551,0.0442
4.7190,-0.4621,0.9551,0.0442
4.7190,-0.4621,0.9551,0.0442
4.7200,-0.4621,0.9543,0.0413
4.7200,-0.4573,0.9482,0.0411
4.7480,-0.4573,0.9482,0.0411
4.7490,-0.4573,0.9482,0.0411
4.7490,-0.4573,0.9482,0.0411
4.7490,-0.4487,0.9490,0.0462
4.7630,-0.4487,0.9490,0.0462
4.7690,-0.4487,0.9490,0.0462
4.7700,-0.4487,0.9490,0.0462
4.7700,-0.4487,0.9490,0.0462
4.7720,-0.4431,0.9526,0.0452
4.7720,-0.4431,0.9526,0.0452
4.7980,-0.4431,0.9526,0.0452
4.7980,-0.4431,0.9526,0.0452
4.7990,-0.4431,0.9526,0.0452
4.7990,-0.4409,0.9539,0.0413
4.8000,-0.4458,0.9536,0.0408
4.8290,-0.4458,0.9536,0.0408
4.8290,-0.4458,0.9536,0.0408
4.8300,-0.4458,0.9536,0.0408
4.8300,-0.4480,0.9551,0.0418
4.8490,-0.4480,0.9551,0.0418
4.8490,-0.4480,0.9551,0.0418
4.8500,-0.4480,0.9551,0.0418
4.8500,-0.4519,0.9580,0.0459
4.8510,-0.4519,0.9580,0.0459
4.8780,-0.4519,0.9580,0.0459
4.8790,-0.4519,0.9580,0.0459
4.8790,-0.4519,0.9580,0.0459
4.8790,-0.4560,0.9558,0.0457
4.8790,-0.4533,0.9531,0.0489
4.9080,-0.4533,0.9531,0.0489
4.9080,-0.4533,0.9531,0.0489
4.9080,-0.4533,0.9531,0.0489
4.9090,-0.4526,0.9531,0.0457
4.9290,-0.4526,0.9531,0.0457
4.9300,-0.4526,0.9531,0.0457
4.9300,-0.4526,0.9531,0.0457
4.9320,-0.4519,0.9541,0.0425
4.9320,-0.4519,0.9541,0.0425
4.9590,-0.4519,0.9541,0.0425
4.9590,-0.4519,0.9541,0.0425
4.9590,-0.4519,0.9541,0.0425
4.9600,-0.4541,0.9524,0.0440
4.9600,-0.4570,0.9495,0.0467
4.9600,-0.4570,0.9495,0.0467
4.9890,-0.4570,0.9495,0.0467
4.9890,-0.4570,0.9495,0.0467
4.9890,-0.4570,0.9495,0.0467
4.9900,-0.4558,0.9514,0.0467
5.0080,-0.4558,0.9514,0.0467
5.0090,-0.4558,0.9514,0.0467
5.0090,-0.4558,0.9514,0.0467
5.0150,-0.4563,0.9504,0.0467
5.0150,-0.4563,0.9504,0.0467
5.0390,-0.4563,0.9504,0.0467
5.0390,-0.4563,0.9504,0.0467
5.0390,-0.4563,0.9504,0.0467
5.0390,-0.4575,0.9512,0.0459
5.0400,-0.4551,0.9521,0.0455
5.0700,-0.4551,0.9521,0.0455
5.0710,-0.4551,0.9521,0.0455
5.0710,-0.4551,0.9521,0.0455
5.0720,-0.4502,0.9517,0.0452
5.0900,-0.4502,0.9517,0.0452
5.0910,-0.4502,0.9517,0.0452
5.0910,-0.4502,0.9517,0.0452
5.0940,-0.4509,0.9499,0.0435
5.0940,-0.4509,0.9499,0.0435
5.1200,-0.4509,0.9499,0.0435
5.1210,-0.4509,0.9499,0.0435
5.1210,-0.4509,0.9499,0.0435
5.1210,-0.4516,0.9556,0.0420
5.1210,-0.4499,0.9595,0.0430
5.1500,-0.4499,0.9595,0.0430
5.1510,-0.4499,0.9595,0.0430
5.1510,-0.4499,0.9595,0.0430
5.1510,-0.4441,0.9551,0.0447
5.1650,-0.4441,0.9551,0.0447
5.1710,-0.4441,0.9551,0.0447
5.1720,-0.4441,0.9551,0.0447
5.1720,-0.4441,0.9551,0.0447
5.1720,-0.4467,0.9521,0.0403
5.1730,-0.4467,0.9521,0.0403
5.1990,-0.4467,0.9521,0.0403
5.2000,-0.4467,0.9521,0.0403
5.2000,-0.4467,0.9521,0.0403
5.2010,-0.4502,0.9570,0.0447
5.2020,-0.4543,0.9607,0.0499
5.2280,-0.4543,0.9607,0.0499
5.2280,-0.4543,0.9607,0.0499
5.2290,-0.4543,0.9607,0.0499
5.2290,-0.4607,0.9580,0.0477
5.2510,-0.4607,0.9580,0.0477
5.2510,-0.4607,0.9580,0.0477
5.2520,-0.4607,0.9580,0.0477
5.2520,-0.4648,0.9482,0.0450
5.2530,-0.4648,0.9482,0.0450
5.2810,-0.4648,0.9482,0.0450
5.2810,-0.4648,0.9482,0.0450
5.2820,-0.4648,0.9482,0.0450
5.2820,-0.4595,0.9485,0.0435
5.2820,-0.4529,0.9468,0.0437
5.3120,-0.4529,0.9468,0.0437
5.3120,-0.4529,0.9468,0.0437
5.3120,-0.4529,0.9468,0.0437
5.3130,-0.4489,0.9458,0.0440
5.3330,-0.4489,0.9458,0.0440
5.3330,-0.4489,0.9458,0.0440
5.3340,-0.4489,0.9458,0.0440
5.3340,-0.4472,0.9497,0.0450
5.3350,-0.4472,0.9497,0.0450
5.3610,-0.4472,0.9497,0.0450
5.3610,-0.4472,0.9497,0.0450
5.3620,-0.4472,0.9497,0.0450
5.3620,-0.4465,0.9519,0.0435
5.3630,-0.4529,0.9561,0.0435
5.3630,-0.4529,0.9561,0.0435
5.3910,-0.4529,0.9561,0.0435
5.3910,-0.4529,0.9561,0.0435
5.3910,-0.4529,0.9561,0.0435
5.3920,-0.4634,0.9563,0.0467
5.4110,-0.4634,0.9563,0.0467
5.4110,-0.4634,0.9563,0.0467
5.4120,-0.4634,0.9563,0.0467
5.4140,-0.4717,0.9536,0.0484
5.4450,-0.4717,0.9536,0.0484
5.4460,-0.4717,0.9536,0.0484
5.4460,-0.4717,0.9536,0.0484
5.4460,-0.4717,0.9536,0.0484
5.4470,-0.4673,0.9504,0.0469
5.4470,-0.4511,0.9534,0.0452
5.4670,-0.4511,0.9534,0.0452
5.4670,-0.4511,0.9534,0.0452
5.4670,-0.4511,0.9534,0.0452
5.4680,-0.4387,0.9551,0.0447
5.4870,-0.4387,0.9551,0.0447
5.4870,-0.4387,0.9551,0.0447
5.4870,-0.4387,0.9551,0.0447
5.4880,-0.4443,0.9583,0.0423
5.4880,-0.4443,0.9583,0.0423
5.5180,-0.4443,0.9583,0.0423
5.5190,-0.4443,0.9583,0.0423
5.5190,-0.4443,0.9583,0.0423
5.5210,-0.4536,0.9563,0.0459
5.5210,-0.4580,0.9536,0.0445
5.5480,-0.4580,0.9536,0.0445
5.5480,-0.4580,0.9536,0.0445
5.5480,-0.4580,0.9536,0.0445
5.5480,-0.4580,0.9517,0.0442
5.5610,-0.4580,0.9517,0.0442
5.5680,-0.4580,0.9517,0.0442
5.5680,-0.4580,0.9517,0.0442
5.5690,-0.4580,0.9517,0.0442
5.5690,-0.4558,0.9502,0.0457
5.5690,-0.4558,0.9502,0.0457
5.5980,-0.4558,0.9502,0.0457
5.5990,-0.4558,0.9502,0.0457
5.5990,-0.4558,0.9502,0.0457
5.5990,-0.4526,0.9504,0.0440
5.6000,-0.4494,0.9526,0.0435
5.6290,-0.4494,0.9526,0.0435
5.6290,-0.4494,0.9526,0.0435
5.6300,-0.4494,0.9526,0.0435
5.6310,-0.4536,0.9517,0.0440
5.6500,-0.4536,0.9517,0.0440
5.6510,-0.4536,0.9517,0.0440
5.6510,-0.4536,0.9517,0.0440
5.6520,-0.4565,0.9531,0.0469
5.6520,-0.4565,0.9531,0.0469
5.6800,-0.4565,0.9531,0.0469
5.6810,-0.4565,0.9531,0.0469
5.6810,-0.4565,0.9531,0.0469
5.6820,-0.4560,0.9556,0.0481
5.6820,-0.4560,0.9504,0.0437
5.7100,-0.4560,0.9504,0.0437
5.7100,-0.4560,0.9504,0.0437
5.7110,-0.4560,0.9504,0.0437
5.7110,-0.4570,0.9485,0.0396
5.7300,-0.4570,0.9485,0.0396
5.7300,-0.4570,0.9485,0.0396
5.7310,-0.4570,0.9485,0.0396
5.7310,-0.4568,0.9514,0.0374
5.7320,-0.4568,0.9514,0.0374
5.7600,-0.4568,0.9514,0.0374
5.7600,-0.4568,0.9514,0.0374
5.7600,-0.4568,0.9514,0.0374
5.7610,-0.4529,0.9534,0.0418
5.7610,-0.4548,0.9534,0.0450
5.7610,-0.4548,0.9534,0.0450
5.7900,-0.4548,0.9534,0.0450
5.7900,-0.4548,0.9534,0.0450
5.7910,-0.4548,0.9534,0.0450
5.7910,-0.4609,0.9529,0.0442
5.8110,-0.4609,0.9529,0.0442
5.8120,-0.4609,0.9529,0.0442
5.8120,-0.4609,0.9529,0.0442
5.8120,-0.4626,0.9534,0.0423
5.8130,-0.4626,0.9534,0.0423
5.8410,-0.4626,0.9534,0.0423
5.8420,-0.4626,0.9534,0.0423
5.8420,-0.4626,0.9534,0.0423
5.8430,-0.4585,0.9512,0.0396
5.8430,-0.4524,0.9470,0.0389
5.8690,-0.4524,0.9470,0.0389
5.8700,-0.4524,0.9470,0.0389
5.8700,-0.4524,0.9470,0.0389
5.8700,-0.4494,0.9480,0.0401
5.8900,-0.4494,0.9480,0.0401
5.8900,-0.4494,0.9480,0.0401
5.8910,-0.4494,0.9480,0.0401
5.8910,-0.4509,0.9507,0.0406
5.8910,-0.4509,0.9507,0.0406
5.9230,-0.4509,0.9507,0.0406
5.9230,-0.4509,0.9507,0.0406
5.9240,-0.4509,0.9507,0.0406
5.9240,-0.4499,0.9495,0.0420
5.9250,-0.4489,0.9541,0.0455
5.9500,-0.4489,0.9541,0.0455
5.9510,-0.4489,0.9541,0.0455
5.9510,-0.4489,0.9541,0.0455
5.9520,-0.4526,0.9578,0.0437
5.9720,-0.4526,0.9578,0.0437
5.9730,-0.4526,0.9578,0.0437
5.9730,-0.4526,0.9578,0.0437
5.9740,-0.4526,0.9578,0.0437
5.9940,-0.4560,0.9568,0.0459
5.9960,-0.4560,0.9568,0.0459
5.9980,-0.4560,0.9568,0.0459
5.9980,-0.4560,0.9568,0.0459
5.9980,-0.4560,0.9568,0.0459
5.9990,-0.4599,0.9531,0.0472
5.9990,-0.4590,0.9556,0.0442
6.0300,-0.4590,0.9556,0.0442
6.0300,-0.4590,0.9556,0.0442
6.0300,-0.4590,0.9556,0.0442
6.0310,-0.4546,0.9558,0.0371
6.0480,-0.4546,0.9558,0.0371
6.0480,-0.4546,0.9558,0.0371
6.0480,-0.4546,0.9558,0.0371
6.0480,-0.4511,0.9529,0.0310
6.0490,-0.4511,0.9529,0.0310
6.0780,-0.4511,0.9529,0.0310
6.0780,-0.4511,0.9529,0.0310
6.0780,-0.4511,0.9529,0.0310
6.0780,-0.4489,0.9468,0.0308
6.0790,-0.4458,0.9477,0.0357
6.1080,-0.4458,0.9477,0.0357
6.1080,-0.4458,0.9477,0.0357
6.1080,-0.4458,0.9477,0.0357
6.1080,-0.4448,0.9548,0.0371
6.1300,-0.4448,0.9548,0.0371
6.1300,-0.4448,0.9548,0.0371
6.1300,-0.4448,0.9548,0.0371
6.1310,-0.4516,0.9563,0.0318
6.1310,-0.4516,0.9563,0.0318
6.1600,-0.4516,0.9563,0.0318
6.1600,-0.4516,0.9563,0.0318
6.1610,-0.4516,0.9563,0.0318
6.1610,-0.4592,0.9543,0.0354
6.1620,-0.4595,0.9568,0.0403
6.1640,-0.4595,0.9568,0.0403
6.1880,-0.4595,0.9568,0.0403
6.1880,-0.4595,0.9568,0.0403
6.1890,-0.4595,0.9568,0.0403
6.1890,-0.4551,0.9529,0.0381
6.2090,-0.4551,0.9529,0.0381
6.2100,-0.4551,0.9529,0.0381
6.2100,-0.4551,0.9529,0.0381
6.2100,-0.4455,0.9463,0.0323
6.2110,-0.4455,0.9463,0.0323
6.2410,-0.4455,0.9463,0.0323
6.2410,-0.4455,0.9463,0.0323
6.2420,-0.4455,0.9463,0.0323
6.2420,-0.4426,0.9487,0.0347
6.2430,-0.4489,0.9531,0.0367
6.2690,-0.4489,0.9531,0.0367
6.2690,-0.4489,0.9531,0.0367
6.2700,-0.4489,0.9531,0.0367
6.2700,-0.4580,0.9539,0.0345
6.2890,-0.4580,0.9539,0.0345
6.2890,-0.4580,0.9539,0.0345
6.2900,-0.4580,0.9539,0.0345
6.2900,-0.4582,0.9570,0.0379
6.2910,-0.4582,0.9570,0.0379
6.3200,-0.4582,0.9570,0.0379
6.3210,-0.4582,0.9570,0.0379
6.3210,-0.4582,0.9570,0.0379
6.3210,-0.4555,0.9585,0.0469
6.3220,-0.4543,0.9573,0.0472
6.3490,-0.4543,0.9573,0.0472
6.3490,-0.4543,0.9573,0.0472
6.3490,-0.4543,0.9573,0.0472
6.3500,-0.4560,0.9583,0.0364
6.3600,-0.4560,0.9583,0.0364
6.3690,-0.4560,0.9583,0.0364
6.3700,-0.4560,0.9583,0.0364
6.3700,-0.4560,0.9583,0.0364
6.3710,-0.4592,0.9580,0.0318
6.3710,-0.4592,0.9580,0.0318
6.3990,-0.4592,0.9580,0.0318
6.3990,-0.4592,0.9580,0.0318
6.4000,-0.4592,0.9580,0.0318
6.4000,-0.4585,0.9546,0.0342
6.4010,-0.4548,0.9475,0.0367
6.4290,-0.4548,0.9475,0.0367
6.4300,-0.4548,0.9475,0.0367
6.4300,-0.4548,0.9475,0.0367
6.4310,-0.4482,0.9497,0.0374
6.4490,-0.4482,0.9497,0.0374
6.4500,-0.4482,0.9497,0.0374
6.4500,-0.4482,0.9497,0.0374
6.4520,-0.4401,0.9531,0.0396
6.4530,-0.4401,0.9531,0.0396
6.4810,-0.4401,0.9531,0.0396
6.4820,-0.4401,0.9531,0.0396
6.4820,-0.4401,0.9531,0.0396
6.4830,-0.4387,0.9583,0.0411
6.4830,-0.4423,0.9627,0.0411
6.5100,-0.4423,0.9627,0.0411
6.5100,-0.4423,0.9627,0.0411
6.5110,-0.4423,0.9627,0.0411
6.5110,-0.4511,0.9612,0.0423
6.5300,-0.4511,0.9612,0.0423
6.5300,-0.4511,0.9612,0.0423
6.5300,-0.4511,0.9612,0.0423
6.5420,-0.4621,0.9575,0.0450
6.5420,-0.4621,0.9575,0.0450
6.5610,-0.4621,0.9575,0.0450
6.5610,-0.4621,0.9575,0.0450
6.5620,-0.4621,0.9575,0.0450
6.5620,-0.4687,0.9529,0.0415
6.5630,-0.4678,0.9519,0.0428
6.5630,-0.4678,0.9519,0.0428
6.5900,-0.4678,0.9519,0.0428
6.5900,-0.4678,0.9519,0.0428
6.5910,-0.4678,0.9519,0.0428
6.5910,-0.4604,0.9497,0.0430
6.6100,-0.4604,0.9497,0.0430
6.6110,-0.4604,0.9497,0.0430
6.6110,-0.4604,0.9497,0.0430
6.6120,-0.4558,0.9453,0.0437
6.6120,-0.4558,0.9453,0.0437
6.6400,-0.4558,0.9453,0.0437
6.6410,-0.4558,0.9453,0.0437
6.6410,-0.4558,0.9453,0.0437
6.6410,-0.4492,0.9468,0.0433
6.6420,-0.4448,0.9512,0.0433
6.6700,-0.4448,0.9512,0.0433
6.6700,-0.4448,0.9512,0.0433
6.6710,-0.4448,0.9512,0.0433
6.6710,-0.4489,0.9521,0.0401
6.6910,-0.4489,0.9521,0.0401
6.6910,-0.4489,0.9521,0.0401
6.6920,-0.4489,0.9521,0.0401
6.6920,-0.4529,0.9519,0.0374
6.6930,-0.4529,0.9519,0.0374
6.7230,-0.4529,0.9519,0.0374
6.7240,-0.4529,0.9519,0.0374
6.7240,-0.4529,0.9519,0.0374
6.7250,-0.4575,0.9543,0.0415
6.7250,-0.4585,0.9526,0.0450
6.7510,-0.4585,0.9526,0.0450
6.7510,-0.4585,0.9526,0.0450
6.7510,-0.4585,0.9526,0.0450
6.7520,-0.4570,0.9529,0.0474
6.7630,-0.4570,0.9529,0.0474
6.7710,-0.4570,0.9529,0.0474
6.7710,-0.4570,0.9529,0.0474
6.7720,-0.4570,0.9529,0.0474
6.7720,-0.4551,0.9541,0.0430
6.7720,-0.4551,0.9541,0.0430
6.8000,-0.4551,0.9541,0.0430
6.8010,-0.4551,0.9541,0.0430
6.8010,-0.4551,0.9541,0.0430
6.8010,-0.4504,0.9539,0.0447
6.8020,-0.4460,0.9546,0.0433
6.8310,-0.4460,0.9546,0.0433
6.8320,-0.4460,0.9546,0.0433
6.8320,-0.4460,0.9546,0.0433
6.8330,-0.4514,0.9556,0.0393
6.8520,-0.4514,0.9556,0.0393
6.8530,-0.4514,0.9556,0.0393
6.8530,-0.4514,0.9556,0.0393
6.8540,-0.4543,0.9551,0.0437
6.8540,-0.4543,0.9551,0.0437
6.8840,-0.4543,0.9551,0.0437
6.8840,-0.4543,0.9551,0.0437
6.8840,-0.4543,0.9551,0.0437
6.8840,-0.4580,0.9519,0.0481
6.8850,-0.4670,0.9499,0.0472
6.9120,-0.4670,0.9499,0.0472
6.9120,-0.4670,0.9499,0.0472
6.9130,-0.4670,0.9499,0.0472
6.9130,-0.4705,0.9470,0.0420
6.9320,-0.4705,0.9470,0.0420
6.9330,-0.4705,0.9470,0.0420
6.9330,-0.4705,0.9470,0.0420
6.9340,-0.4665,0.9446,0.0433
6.9340,-0.4665,0.9446,0.0433
6.9630,-0.4665,0.9446,0.0433
6.9640,-0.4665,0.9446,0.0433
6.9640,-0.4665,0.9446,0.0433
6.9650,-0.4568,0.9448,0.0437
6.9650,-0.4499,0.9521,0.0420
6.9650,-0.4499,0.9521,0.0420
6.9920,-0.4499,0.9521,0.0420
6.9920,-0.4499,0.9521,0.0420
6.9920,-0.4499,0.9521,0.0420
6.9930,-0.4489,0.9531,0.0420
7.0110,-0.4489,0.9531,0.0420
7.0110,-0.4489,0.9531,0.0420
7.0120,-0.4489,0.9531,0.0420
7.0120,-0.4482,0.9524,0.0420
7.0120,-0.4482,0.9524,0.0420
7.0400,-0.4482,0.9524,0.0420
7.0410,-0.4482,0.9524,0.0420
7.0410,-0.4482,0.9524,0.0420
7.0420,-0.4487,0.9521,0.0408
7.0420,-0.4551,0.9546,0.0420
7.0710,-0.4551,0.9546,0.0420
7.0710,-0.4551,0.9546,0.0420
7.0720,-0.4551,0.9546,0.0420
7.0720,-0.4612,0.9551,0.0467
7.0920,-0.4612,0.9551,0.0467
7.0930,-0.4612,0.9551,0.0467
7.1110,-0.4612,0.9551,0.0467
7.1120,-0.4621,0.9529,0.0518
7.1120,-0.4621,0.9529,0.0518
7.1220,-0.4621,0.9529,0.0518
7.1230,-0.4621,0.9529,0.0518
7.1230,-0.4621,0.9529,0.0518
7.1240,-0.4587,0.9509,0.0523
7.1240,-0.4597,0.9504,0.0467
7.1490,-0.4597,0.9504,0.0467
7.1490,-0.4597,0.9504,0.0467
7.1500,-0.4597,0.9504,0.0467
7.1500,-0.4595,0.9514,0.0445
7.1610,-0.4595,0.9514,0.0445
7.1710,-0.4595,0.9514,0.0445
7.1710,-0.4595,0.9514,0.0445
7.1720,-0.4595,0.9514,0.0445
7.1720,-0.4563,0.9541,0.0455
7.1720,-0.4563,0.9541,0.0455
7.2000,-0.4563,0.9541,0.0455
7.2000,-0.4563,0.9541,0.0455
7.2010,-0.4563,0.9541,0.0455
7.2010,-0.4533,0.9546,0.0418
7.2010,-0.4526,0.9499,0.0411
7.2310,-0.4526,0.9499,0.0411
7.2320,-0.4526,0.9499,0.0411
7.2320,-0.4526,0.9499,0.0411
7.2320,-0.4570,0.9495,0.0442
7.2500,-0.4570,0.9495,0.0442
7.2510,-0.4570,0.9495,0.0442
7.2510,-0.4570,0.9495,0.0442
7.2510,-0.4597,0.9497,0.0503
7.2520,-0.4597,0.9497,0.0503
7.2820,-0.4597,0.9497,0.0503
7.2820,-0.4597,0.9497,0.0503
7.2820,-0.4597,0.9497,0.0503
7.2830,-0.4568,0.9524,0.0496
7.2830,-0.4555,0.9543,0.0472
7.3120,-0.4555,0.9543,0.0472
7.3120,-0.4555,0.9543,0.0472
7.3120,-0.4555,0.9543,0.0472
7.3120,-0.4533,0.9526,0.0455
7.3310,-0.4533,0.9526,0.0455
7.3320,-0.4533,0.9526,0.0455
7.3320,-0.4533,0.9526,0.0455
7.3330,-0.4543,0.9551,0.0420
7.3330,-0.4543,0.9551,0.0420
7.3630,-0.4543,0.9551,0.0420
7.3630,-0.4543,0.9551,0.0420
7.3640,-0.4543,0.9551,0.0420
7.3640,-0.4538,0.9541,0.0433
7.3640,-0.4555,0.9492,0.0423
7.3650,-0.4555,0.9492,0.0423
7.3920,-0.4555,0.9492,0.0423
7.3920,-0.4555,0.9492,0.0423
7.3930,-0.4555,0.9492,0.0423
7.3930,-0.4580,0.9519,0.0411
7.4120,-0.4580,0.9519,0.0411
7.4120,-0.4580,0.9519,0.0411
7.4130,-0.4580,0.9519,0.0411
7.4130,-0.4580,0.9509,0.0440
7.4130,-0.4580,0.9509,0.0440
7.4430,-0.4580,0.9509,0.0440
7.4440,-0.4580,0.9509,0.0440
7.4440,-0.4580,0.9509,0.0440
7.4440,-0.4575,0.9482,0.0462
7.4440,-0.4604,0.9512,0.0479
7.4730,-0.4604,0.9512,0.0479
7.4730,-0.4604,0.9512,0.0479
7.4740,-0.4604,0.9512,0.0479
7.4740,-0.4577,0.9507,0.0474
7.4930,-0.4577,0.9507,0.0474
7.4930,-0.4577,0.9507,0.0474
7.4930,-0.4577,0.9507,0.0474
7.4940,-0.4526,0.9517,0.0435
7.4940,-0.4526,0.9517,0.0435
7.5220,-0.4526,0.9517,0.0435
7.5220,-0.4526,0.9517,0.0435
7.5230,-0.4526,0.9517,0.0435
7.5230,-0.4516,0.9570,0.0406
7.5240,-0.4533,0.9585,0.0462
7.5510,-0.4533,0.9585,0.0462
7.5520,-0.4533,0.9585,0.0462
7.5520,-0.4533,0.9585,0.0462
7.5520,-0.4526,0.9519,0.0472
7.5650,-0.4526,0.9519,0.0472
7.5740,-0.4526,0.9519,0.0472
7.5740,-0.4526,0.9519,0.0472
7.5750,-0.4526,0.9519,0.0472
7.5780,-0.4570,0.9521,0.0469
7.5780,-0.4570,0.9521,0.0469
7.6010,-0.4570,0.9521,0.0469
7.6020,-0.4570,0.9521,0.0469
7.6020,-0.4570,0.9521,0.0469
7.6020,-0.4585,0.9558,0.0494
7.6030,-0.4558,0.9521,0.0523
7.6320,-0.4558,0.9521,0.0523
7.6330,-0.4558,0.9521,0.0523
7.6330,-0.4558,0.9521,0.0523
7.6340,-0.4548,0.9502,0.0481
7.6530,-0.4548,0.9502,0.0481
7.6700,-0.4548,0.9502,0.0481
7.6710,-0.4548,0.9502,0.0481
7.6710,-0.4573,0.9482,0.0459
7.6720,-0.4573,0.9482,0.0459
7.6820,-0.4573,0.9482,0.0459
7.6820,-0.4573,0.9482,0.0459
7.6820,-0.4573,0.9482,0.0459
7.8000,-0.4553,0.9517,0.0481
7.8000,-0.4507,0.9517,0.0484
7.8050,-0.4507,0.9517,0.0484
7.8050,-0.4507,0.9517,0.0484
7.8060,-0.4507,0.9517,0.0484
7.8060,-0.4507,0.9517,0.0484
7.8070,-0.4507,0.9517,0.0484
7.8070,-0.4507,0.9517,0.0484
7.8080,-0.4507,0.9517,0.0484
7.8080,-0.4507,0.9517,0.0484
7.8090,-0.4507,0.9517,0.0484
7.8090,-0.4507,0.9517,0.0484
7.8100,-0.4507,0.9517,0.0484
7.8100,-0.4507,0.9517,0.0484
7.8100,-0.4485,0.9507,0.0491
7.8110,-0.4546,0.9519,0.0452
7.8110,-0.4604,0.9529,0.0445
7.8120,-0.4597,0.9519,0.0464
7.8120,-0.4529,0.9529,0.0447
7.8130,-0.4529,0.9529,0.0447
7.8130,-0.4529,0.9529,0.0447
7.8130,-0.4529,0.9529,0.0447
7.8140,-0.4529,0.9529,0.0447
7.8140,-0.4529,0.9529,0.0447
7.8150,-0.4502,0.9546,0.0437
7.8150,-0.4502,0.9546,0.0437
7.8420,-0.4502,0.9546,0.0437
7.8430,-0.4502,0.9546,0.0437
7.8430,-0.4502,0.9546,0.0437
7.8440,-0.4509,0.9534,0.0442
7.8440,-0.4499,0.9517,0.0440
7.8730,-0.4499,0.9517,0.0440
7.8740,-0.4499,0.9517,0.0440
7.8740,-0.4499,0.9517,0.0440
7.8750,-0.4514,0.9568,0.0484
7.8940,-0.4514,0.9568,0.0484
7.8940,-0.4514,0.9568,0.0484
7.8950,-0.4514,0.9568,0.0484
7.8950,-0.4502,0.9585,0.0455
7.8960,-0.4502,0.9585,0.0455
7.9230,-0.4502,0.9585,0.0455
7.9230,-0.4502,0.9585,0.0455
7.9240,-0.4502,0.9585,0.0455
7.9240,-0.4558,0.9504,0.0406
7.9250,-0.4636,0.9487,0.0330
7.9530,-0.4636,0.9487,0.0330
7.9530,-0.4636,0.9487,0.0330
7.9540,-0.4636,0.9487,0.0330
7.9540,-0.4614,0.9495,0.0381
7.9630,-0.4614,0.9495,0.0381
7.9730,-0.4614,0.9495,0.0381
7.9740,-0.4614,0.9495,0.0381
7.9740,-0.4614,0.9495,0.0381
7.9740,-0.4577,0.9531,0.0430
7.9750,-0.4577,0.9531,0.0430
8.0030,-0.4577,0.9531,0.0430
8.0040,-0.4577,0.9531,0.0430
8.0040,-0.4577,0.9531,0.0430
8.0050,-0.4536,0.9521,0.0455
8.0050,-0.4516,0.9529,0.0430
8.0320,-0.4516,0.9529,0.0430
8.0320,-0.4516,0.9529,0.0430
8.0330,-0.4516,0.9529,0.0430
8.0330,-0.4492,0.9539,0.0349
8.0530,-0.4492,0.9539,0.0349
8.0540,-0.4492,0.9539,0.0349
8.0540,-0.4492,0.9539,0.0349
8.0540,-0.4482,0.9529,0.0352
8.0550,-0.4482,0.9529,0.0352
8.0840,-0.4482,0.9529,0.0352
8.0840,-0.4482,0.9529,0.0352
8.0850,-0.4482,0.9529,0.0352
8.0850,-0.4485,0.9536,0.0393
8.0850,-0.4499,0.9536,0.0464
8.1140,-0.4499,0.9536,0.0464
8.1150,-0.4499,0.9536,0.0464
8.1150,-0.4499,0.9536,0.0464
8.1160,-0.4541,0.9551,0.0437
8.1340,-0.4541,0.9551,0.0437
8.1340,-0.4541,0.9551,0.0437
8.1350,-0.4541,0.9551,0.0437
8.1350,-0.4524,0.9570,0.0425
8.1350,-0.4524,0.9570,0.0425
8.1640,-0.4524,0.9570,0.0425
8.1640,-0.4524,0.9570,0.0425
8.1650,-0.4524,0.9570,0.0425
8.1650,-0.4524,0.9578,0.0418
8.1660,-0.4570,0.9565,0.0359
8.1660,-0.4570,0.9565,0.0359
8.1930,-0.4570,0.9565,0.0359
8.1940,-0.4570,0.9565,0.0359
8.1940,-0.4570,0.9565,0.0359
8.1950,-0.4617,0.9536,0.0345
8.2140,-0.4617,0.9536,0.0345
8.2140,-0.4617,0.9536,0.0345
8.2140,-0.4617,0.9536,0.0345
8.2140,-0.4580,0.9519,0.0347
8.2150,-0.4580,0.9519,0.0347
8.2410,-0.4580,0.9519,0.0347
8.2410,-0.4580,0.9519,0.0347
8.2410,-0.4580,0.9519,0.0347
8.2410,-0.4516,0.9512,0.0357
8.2410,-0.4511,0.9502,0.0362
8.2700,-0.4511,0.9502,0.0362
8.2700,-0.4511,0.9502,0.0362
8.2710,-0.4511,0.9502,0.0362
8.2710,-0.4519,0.9526,0.0371
8.2930,-0.4519,0.9526,0.0371
8.2940,-0.4519,0.9526,0.0371
8.2940,-0.4519,0.9526,0.0371
8.2960,-0.4536,0.9546,0.0381
8.2970,-0.4536,0.9546,0.0381
8.3220,-0.4536,0.9546,0.0381
8.3220,-0.4536,0.9546,0.0381
8.3230,-0.4536,0.9546,0.0381
8.3230,-0.4551,0.9548,0.0376
8.3230,-0.4560,0.9529,0.0369
8.3530,-0.4560,0.9529,0.0369
8.3530,-0.4560,0.9529,0.0369
8.3530,-0.4560,0.9529,0.0369
8.3540,-0.4555,0.9521,0.0315
8.3630,-0.4555,0.9521,0.0315
8.3730,-0.4555,0.9521,0.0315
8.3730,-0.4555,0.9521,0.0315
8.3740,-0.4555,0.9521,0.0315
8.3740,-0.4548,0.9553,0.0340
8.3750,-0.4548,0.9553,0.0340
8.4020,-0.4548,0.9553,0.0340
8.4030,-0.4548,0.9553,0.0340
8.4030,-0.4548,0.9553,0.0340
8.4030,-0.4538,0.9551,0.0386
8.4040,-0.4548,0.9541,0.0391
8.4330,-0.4548,0.9541,0.0391
8.4330,-0.4548,0.9541,0.0391
8.4340,-0.4548,0.9541,0.0391
8.4340,-0.4546,0.9570,0.0386
8.4540,-0.4546,0.9570,0.0386
8.4550,-0.4546,0.9570,0.0386
8.4550,-0.4546,0.9570,0.0386
8.4560,-0.4533,0.9548,0.0371
8.4600,-0.4533,0.9548,0.0371
8.4830,-0.4533,0.9548,0.0371
8.4840,-0.4533,0.9548,0.0371
8.4840,-0.4533,0.9548,0.0371
8.4840,-0.4533,0.9490,0.0376
8.4850,-0.4558,0.9485,0.0406
8.5120,-0.4558,0.9485,0.0406
8.5120,-0.4558,0.9485,0.0406
8.5130,-0.4558,0.9485,0.0406
8.5130,-0.4524,0.9504,0.0450
8.5340,-0.4524,0.9504,0.0450
8.5340,-0.4524,0.9504,0.0450
8.5350,-0.4524,0.9504,0.0450
8.5350,-0.4499,0.9495,0.0425
8.5360,-0.4499,0.9495,0.0425
8.5620,-0.4499,0.9495,0.0425
8.5670,-0.4499,0.9495,0.0425
8.5670,-0.4499,0.9495,0.0425
8.5680,-0.4499,0.9495,0.0425
8.5680,-0.4485,0.9526,0.0406
8.5680,-0.4494,0.9541,0.0408
8.5930,-0.4494,0.9541,0.0408
8.5930,-0.4494,0.9541,0.0408
8.5940,-0.4494,0.9541,0.0408
8.5940,-0.4475,0.9534,0.0396
8.6140,-0.4475,0.9534,0.0396
8.6140,-0.4475,0.9534,0.0396
8.6140,-0.4475,0.9534,0.0396
8.6150,-0.4455,0.9612,0.0413
8.6150,-0.4455,0.9612,0.0413
8.6420,-0.4455,0.9612,0.0413
8.6430,-0.4455,0.9612,0.0413
8.6430,-0.4455,0.9612,0.0413
8.6430,-0.4504,0.9605,0.0396
8.6440,-0.4585,0.9585,0.0413
8.6720,-0.4585,0.9585,0.0413
8.6720,-0.4585,0.9585,0.0413
8.6720,-0.4585,0.9585,0.0413
8.6730,-0.4585,0.9534,0.0435
8.6930,-0.4585,0.9534,0.0435
8.6930,-0.4585,0.9534,0.0435
8.6930,-0.4585,0.9534,0.0435
8.6940,-0.4575,0.9507,0.0484
8.6940,-0.4575,0.9507,0.0484
8.7230,-0.4575,0.9507,0.0484
8.7240,-0.4575,0.9507,0.0484
8.7240,-0.4575,0.9507,0.0484
8.7240,-0.4531,0.9502,0.0455
8.7250,-0.4536,0.9517,0.0384
8.7540,-0.4536,0.9517,0.0384
8.7550,-0.4536,0.9517,0.0384
8.7550,-0.4536,0.9517,0.0384
8.7550,-0.4577,0.9499,0.0384
8.7720,-0.4577,0.9499,0.0384
8.7760,-0.4577,0.9499,0.0384
8.7760,-0.4577,0.9499,0.0384
8.7760,-0.4577,0.9499,0.0384
8.7760,-0.4575,0.9463,0.0386
8.7760,-0.4575,0.9463,0.0386
8.8030,-0.4575,0.9463,0.0386
8.8030,-0.4575,0.9463,0.0386
8.8030,-0.4575,0.9463,0.0386
8.8040,-0.4529,0.9509,0.0389
8.8040,-0.4480,0.9536,0.0406
8.8330,-0.4480,0.9536,0.0406
8.8340,-0.4480,0.9536,0.0406
8.8340,-0.4480,0.9536,0.0406
8.8340,-0.4494,0.9539,0.0367
8.8540,-0.4494,0.9539,0.0367
8.8550,-0.4494,0.9539,0.0367
8.8550,-0.4494,0.9539,0.0367
8.8550,-0.4514,0.9578,0.0384
8.8560,-0.4514,0.9578,0.0384
8.8830,-0.4514,0.9578,0.0384
8.8840,-0.4514,0.9578,0.0384
8.8840,-0.4514,0.9578,0.0384
8.8850,-0.4536,0.9619,0.0398
8.8850,-0.4560,0.9578,0.0389
8.9140,-0.4560,0.9578,0.0389
8.9140,-0.4560,0.9578,0.0389
8.9150,-0.4560,0.9578,0.0389
8.9150,-0.4617,0.9521,0.0445
8.9350,-0.4617,0.9521,0.0445
8.9350,-0.4617,0.9521,0.0445
8.9360,-0.4617,0.9521,0.0445
8.9360,-0.4595,0.9468,0.0533
8.9370,-0.4595,0.9468,0.0533
8.9660,-0.4595,0.9468,0.0533
8.9670,-0.4595,0.9468,0.0533
8.9670,-0.4595,0.9468,0.0533
8.9680,-0.4595,0.9468,0.0533
8.9680,-0.4509,0.9460,0.0525
8.9690,-0.4431,0.9477,0.0450
8.9940,-0.4431,0.9477,0.0450
8.9950,-0.4431,0.9477,0.0450
8.9950,-0.4431,0.9477,0.0450
8.9960,-0.4394,0.9556,0.0362
9.0140,-0.4394,0.9556,0.0362
9.0150,-0.4394,0.9556,0.0362
9.0150,-0.4394,0.9556,0.0362
9.0160,-0.4455,0.9592,0.0367
9.0160,-0.4455,0.9592,0.0367
9.0450,-0.4455,0.9592,0.0367
9.0460,-0.4455,0.9592,0.0367
9.0460,-0.4455,0.9592,0.0367
9.0470,-0.4555,0.9531,0.0413
9.0470,-0.4663,0.9536,0.0406
9.0740,-0.4663,0.9536,0.0406
9.0750,-0.4663,0.9536,0.0406
9.0750,-0.4663,0.9536,0.0406
9.0760,-0.4719,0.9541,0.0447
9.0940,-0.4719,0.9541,0.0447
9.0950,-0.4719,0.9541,0.0447
9.0950,-0.4719,0.9541,0.0447
9.0960,-0.4619,0.9551,0.0489
9.0960,-0.4619,0.9551,0.0489
9.1250,-0.4619,0.9551,0.0489
9.1250,-0.4619,0.9551,0.0489
9.1260,-0.4619,0.9551,0.0489
9.1260,-0.4499,0.9561,0.0533
9.1270,-0.4470,0.9565,0.0550
9.1550,-0.4470,0.9565,0.0550
9.1560,-0.4470,0.9565,0.0550
9.1560,-0.4470,0.9565,0.0550
9.1570,-0.4448,0.9553,0.0481
9.1630,-0.4448,0.9553,0.0481
9.1760,-0.4448,0.9553,0.0481
9.1770,-0.4448,0.9553,0.0481
9.1770,-0.4448,0.9553,0.0481
9.1780,-0.4455,0.9565,0.0440
9.1780,-0.4455,0.9565,0.0440
9.2050,-0.4455,0.9565,0.0440
9.2050,-0.4455,0.9565,0.0440
9.2060,-0.4455,0.9565,0.0440
9.2060,-0.4502,0.9521,0.0376
9.2060,-0.4546,0.9482,0.0369
9.2350,-0.4546,0.9482,0.0369
9.2350,-0.4546,0.9482,0.0369
9.2350,-0.4546,0.9482,0.0369
9.2360,-0.4548,0.9477,0.0445
9.2550,-0.4548,0.9477,0.0445
9.2550,-0.4548,0.9477,0.0445
9.2550,-0.4548,0.9477,0.0445
9.2560,-0.4538,0.9490,0.0484
9.2560,-0.4538,0.9490,0.0484
9.2860,-0.4538,0.9490,0.0484
9.2870,-0.4538,0.9490,0.0484
9.2870,-0.4538,0.9490,0.0484
9.2880,-0.4541,0.9504,0.0511
9.2880,-0.4541,0.9485,0.0496
9.3160,-0.4541,0.9485,0.0496
9.3170,-0.4541,0.9485,0.0496
9.3170,-0.4541,0.9485,0.0496
9.3360,-0.4590,0.9531,0.0472
9.3370,-0.4590,0.9531,0.0472
9.3370,-0.4590,0.9531,0.0472
9.3380,-0.4590,0.9531,0.0472
9.3380,-0.4621,0.9551,0.0430
9.3380,-0.4621,0.9551,0.0430
9.3610,-0.4621,0.9551,0.0430
9.3640,-0.4621,0.9551,0.0430
9.3650,-0.4621,0.9551,0.0430
9.3650,-0.4621,0.9551,0.0430
9.3650,-0.4641,0.9514,0.0406
9.3650,-0.4595,0.9499,0.0433
9.3940,-0.4595,0.9499,0.0433
9.3950,-0.4595,0.9499,0.0433
9.3950,-0.4595,0.9499,0.0433
9.3950,-0.4553,0.9507,0.0391
9.4140,-0.4553,0.9507,0.0391
9.4140,-0.4553,0.9507,0.0391
9.4150,-0.4553,0.9507,0.0391
9.4150,-0.4555,0.9524,0.0349
9.4160,-0.4555,0.9524,0.0349
9.4440,-0.4555,0.9524,0.0349
9.4450,-0.4555,0.9524,0.0349
9.4450,-0.4555,0.9524,0.0349
9.4450,-0.4480,0.9512,0.0418
9.4460,-0.4487,0.9526,0.0535
9.4740,-0.4487,0.9526,0.0535
9.4740,-0.4487,0.9526,0.0535
9.4740,-0.4487,0.9526,0.0535
9.4750,-0.4543,0.9539,0.0579
9.4940,-0.4543,0.9539,0.0579
9.4950,-0.4543,0.9539,0.0579
9.4950,-0.4543,0.9539,0.0579
9.4950,-0.4516,0.9529,0.0545
9.4960,-0.4516,0.9529,0.0545
9.5240,-0.4516,0.9529,0.0545
9.5240,-0.4516,0.9529,0.0545
9.5250,-0.4516,0.9529,0.0545
9.5250,-0.4477,0.9514,0.0545
9.5260,-0.4463,0.9531,0.0577
9.5540,-0.4463,0.9531,0.0577
9.5540,-0.4463,0.9531,0.0577
9.5540,-0.4463,0.9531,0.0577
9.5550,-0.4565,0.9568,0.0516
9.5620,-0.4565,0.9568,0.0516
9.5750,-0.4565,0.9568,0.0516
9.5750,-0.4565,0.9568,0.0516
9.5750,-0.4565,0.9568,0.0516
9.5760,-0.4636,0.9578,0.0477
9.5760,-0.4636,0.9578,0.0477
9.6040,-0.4636,0.9578,0.0477
9.6040,-0.4636,0.9578,0.0477
9.6050,-0.4636,0.9578,0.0477
9.6050,-0.4648,0.9477,0.0506
9.6050,-0.4626,0.9473,0.0467
9.6350,-0.4626,0.9473,0.0467
9.6350,-0.4626,0.9473,0.0467
9.6350,-0.4626,0.9473,0.0467
9.6360,-0.4602,0.9497,0.0445
9.6550,-0.4602,0.9497,0.0445
9.6550,-0.4602,0.9497,0.0445
9.6560,-0.4602,0.9497,0.0445
9.6560,-0.4511,0.9475,0.0469
9.6570,-0.4511,0.9475,0.0469
9.6860,-0.4511,0.9475,0.0469
9.6860,-0.4511,0.9475,0.0469
9.6870,-0.4511,0.9475,0.0469
9.6870,-0.4485,0.9468,0.0499
9.6880,-0.4529,0.9455,0.0543
9.7160,-0.4529,0.9455,0.0543
9.7170,-0.4529,0.9455,0.0543
9.7170,-0.4529,0.9455,0.0543
9.7180,-0.4604,0.9497,0.0516
9.7360,-0.4604,0.9497,0.0516
9.7360,-0.4604,0.9497,0.0516
9.7370,-0.4604,0.9497,0.0516
9.7370,-0.4653,0.9507,0.0489
9.7370,-0.4653,0.9507,0.0489
9.7620,-0.4653,0.9507,0.0489
9.7660,-0.4653,0.9507,0.0489
9.7670,-0.4653,0.9507,0.0489
9.7670,-0.4653,0.9507,0.0489
9.7680,-0.4668,0.9531,0.0445
9.7680,-0.4661,0.9543,0.0440
9.7950,-0.4661,0.9543,0.0440
9.7950,-0.4661,0.9543,0.0440
9.7950,-0.4661,0.9543,0.0440
9.7960,-0.4621,0.9512,0.0494
9.8150,-0.4621,0.9512,0.0494
9.8160,-0.4621,0.9512,0.0494
9.8160,-0.4621,0.9512,0.0494
9.8170,-0.4570,0.9480,0.0477
9.8170,-0.4570,0.9480,0.0477
9.8450,-0.4570,0.9480,0.0477
9.8460,-0.4570,0.9480,0.0477
9.8460,-0.4570,0.9480,0.0477
9.8470,-0.4541,0.9514,0.0425
9.8470,-0.4519,0.9539,0.0384
9.8750,-0.4519,0.9539,0.0384
9.8750,-0.4519,0.9539,0.0384
9.8920,-0.4519,0.9539,0.0384
9.8930,-0.4494,0.9521,0.0376
9.8940,-0.4494,0.9521,0.0376
9.8940,-0.4494,0.9521,0.0376
9.8950,-0.4494,0.9521,0.0376
9.8960,-0.4536,0.9495,0.0401
9.8960,-0.4536,0.9495,0.0401
9.9240,-0.4536,0.9495,0.0401
9.9240,-0.4536,0.9495,0.0401
9.9240,-0.4536,0.9495,0.0401
9.9240,-0.4573,0.9477,0.0430
9.9250,-0.4607,0.9487,0.0474
9.9540,-0.4607,0.9487,0.0474
9.9540,-0.4607,0.9487,0.0474
9.9550,-0.4607,0.9487,0.0474
9.9550,-0.4590,0.9497,0.0484
9.9620,-0.4590,0.9497,0.0484
9.9750,-0.4590,0.9497,0.0484
9.9750,-0.4590,0.9497,0.0484
9.9760,-0.4590,0.9497,0.0484
9.9760,-0.4599,0.9492,0.0447
9.9770,-0.4599,0.9492,0.0447
10.0050,-0.4599,0.9492,0.0447
10.0050,-0.4599,0.9492,0.0447
10.0050,-0.4599,0.9492,0.0447
10.0060,-0.4599,0.9507,0.0423
10.0060,-0.4604,0.9526,0.0437
10.0350,-0.4604,0.9526,0.0437
10.0350,-0.4604,0.9526,0.0437
10.0360,-0.4604,0.9526,0.0437
10.0360,-0.4648,0.9526,0.0425
10.0550,-0.4648,0.9526,0.0425
10.0560,-0.4648,0.9526,0.0425
10.0560,-0.4648,0.9526,0.0425
10.0570,-0.4678,0.9531,0.0391
10.0570,-0.4678,0.9531,0.0391
10.0850,-0.4678,0.9531,0.0391
10.0850,-0.4678,0.9531,0.0391
10.0860,-0.4678,0.9531,0.0391
10.0860,-0.4651,0.9512,0.0374
10.0870,-0.4602,0.9492,0.0367
10.1160,-0.4602,0.9492,0.0367
10.1170,-0.4602,0.9492,0.0367
10.1170,-0.4602,0.9492,0.0367
10.1180,-0.4575,0.9468,0.0352
10.1370,-0.4575,0.9468,0.0352
10.1370,-0.4575,0.9468,0.0352
10.1370,-0.4575,0.9468,0.0352
10.1370,-0.4546,0.9485,0.0398
10.1380,-0.4546,0.9485,0.0398
10.1640,-0.4546,0.9485,0.0398
10.1670,-0.4546,0.9485,0.0398
10.1670,-0.4546,0.9485,0.0398
10.1680,-0.4546,0.9485,0.0398
10.1680,-0.4485,0.9473,0.0435
10.1690,-0.4460,0.9485,0.0403
10.1970,-0.4460,0.9485,0.0403
10.1970,-0.4460,0.9485,0.0403
10.1980,-0.4460,0.9485,0.0403
10.1980,-0.4514,0.9502,0.0369
10.2160,-0.4514,0.9502,0.0369
10.2170,-0.4514,0.9502,0.0369
10.2170,-0.4514,0.9502,0.0369
10.2180,-0.4582,0.9524,0.0406
10.2180,-0.4582,0.9524,0.0406
10.2460,-0.4582,0.9524,0.0406
10.2460,-0.4582,0.9524,0.0406
10.2470,-0.4582,0.9524,0.0406
10.2470,-0.4648,0.9543,0.0425
10.2470,-0.4641,0.9517,0.0418
10.2760,-0.4641,0.9517,0.0418
10.2760,-0.4641,0.9517,0.0418
10.2770,-0.4641,0.9517,0.0418
10.2770,-0.4597,0.9497,0.0384
10.2970,-0.4597,0.9497,0.0384
10.2980,-0.4597,0.9497,0.0384
10.2980,-0.4597,0.9497,0.0384
10.2980,-0.4595,0.9524,0.0337
10.2990,-0.4595,0.9524,0.0337
10.3260,-0.4595,0.9524,0.0337
10.3260,-0.4595,0.9524,0.0337
10.3270,-0.4595,0.9524,0.0337
10.3270,-0.4565,0.9502,0.0342
10.3270,-0.4558,0.9507,0.0384
10.3580,-0.4558,0.9507,0.0384
10.3580,-0.4558,0.9507,0.0384
10.3590,-0.4558,0.9507,0.0384
10.3590,-0.4585,0.9509,0.0408
10.3620,-0.4585,0.9509,0.0408
10.3770,-0.4585,0.9509,0.0408
10.3780,-0.4585,0.9509,0.0408
10.3780,-0.4585,0.9509,0.0408
10.3780,-0.4575,0.9541,0.0359
10.3790,-0.4575,0.9541,0.0359
10.4070,-0.4575,0.9541,0.0359
10.4070,-0.4575,0.9541,0.0359
10.4080,-0.4575,0.9541,0.0359
10.4080,-0.4582,0.9543,0.0305
10.4080,-0.4555,0.9531,0.0283
10.4360,-0.4555,0.9531,0.0283
10.4560,-0.4555,0.9531,0.0283
10.4560,-0.4555,0.9531,0.0283
10.4560,-0.4558,0.9531,0.0310
10.4600,-0.4558,0.9531,0.0310
10.4600,-0.4558,0.9531,0.0310
10.4600,-0.4558,0.9531,0.0310
10.4630,-0.4553,0.9536,0.0315
10.4630,-0.4553,0.9536,0.0315
10.4830,-0.4553,0.9536,0.0315
10.4840,-0.4553,0.9536,0.0315
10.4840,-0.4553,0.9536,0.0315
10.4840,-0.4548,0.9563,0.0330
10.4840,-0.4553,0.9565,0.0303
10.5140,-0.4553,0.9565,0.0303
10.5150,-0.4553,0.9565,0.0303
10.5150,-0.4553,0.9565,0.0303
10.5160,-0.4541,0.9531,0.0296
10.5380,-0.4541,0.9531,0.0296
10.5380,-0.4541,0.9531,0.0296
10.5380,-0.4541,0.9531,0.0296
10.5390,-0.4504,0.9502,0.0315
10.5390,-0.4504,0.9502,0.0315
10.5600,-0.4504,0.9502,0.0315
10.5660,-0.4504,0.9502,0.0315
10.5660,-0.4504,0.9502,0.0315
10.5660,-0.4504,0.9502,0.0315
10.5670,-0.4502,0.9534,0.0367
10.5670,-0.4548,0.9551,0.0408
10.5940,-0.4548,0.9551,0.0408
10.5950,-0.4548,0.9551,0.0408
10.5950,-0.4548,0.9551,0.0408
10.5960,-0.4624,0.9548,0.0347
10.6160,-0.4624,0.9548,0.0347
10.6160,-0.4624,0.9548,0.0347
10.6170,-0.4624,0.9548,0.0347
10.6170,-0.4685,0.9539,0.0293
10.6180,-0.4685,0.9539,0.0293
10.6460,-0.4685,0.9539,0.0293
10.6460,-0.4685,0.9539,0.0293
10.6470,-0.4685,0.9539,0.0293
10.6470,-0.4726,0.9514,0.0308
10.6470,-0.4651,0.9446,0.0352
10.6750,-0.4651,0.9446,0.0352
10.6760,-0.4651,0.9446,0.0352
10.6760,-0.4651,0.9446,0.0352
10.6770,-0.4536,0.9485,0.0379
10.6970,-0.4536,0.9485,0.0379
10.6970,-0.4536,0.9485,0.0379
10.6980,-0.4536,0.9485,0.0379
10.6980,-0.4443,0.9543,0.0367
10.6990,-0.4443,0.9543,0.0367
10.7260,-0.4443,0.9543,0.0367
10.7260,-0.4443,0.9543,0.0367
10.7270,-0.4443,0.9543,0.0367
10.7270,-0.4394,0.9507,0.0367
10.7280,-0.4411,0.9541,0.0347
10.7550,-0.4411,0.9541,0.0347
10.7560,-0.4411,0.9541,0.0347
10.7560,-0.4411,0.9541,0.0347
10.7570,-0.4494,0.9561,0.0345
10.7620,-0.4494,0.9561,0.0345
10.7770,-0.4494,0.9561,0.0345
10.7780,-0.4494,0.9561,0.0345
10.7780,-0.4494,0.9561,0.0345
10.7790,-0.4580,0.9565,0.0369
10.7790,-0.4580,0.9565,0.0369
10.8060,-0.4580,0.9565,0.0369
10.8060,-0.4580,0.9565,0.0369
10.8070,-0.4580,0.9565,0.0369
10.8070,-0.4595,0.9531,0.0396
10.8080,-0.4565,0.9543,0.0413
10.8370,-0.4565,0.9543,0.0413
10.8380,-0.4565,0.9543,0.0413
10.8380,-0.4565,0.9543,0.0413
10.8390,-0.4521,0.9546,0.0425
10.8580,-0.4521,0.9546,0.0425
10.8580,-0.4521,0.9546,0.0425
10.8590,-0.4521,0.9546,0.0425
10.8590,-0.4538,0.9521,0.0430
10.8590,-0.4538,0.9521,0.0430
10.8860,-0.4538,0.9521,0.0430
10.8860,-0.4538,0.9521,0.0430
10.8870,-0.4538,0.9521,0.0430
11.0070,-0.4617,0.9492,0.0459
11.0070,-0.4636,0.9492,0.0501
11.0080,-0.4636,0.9492,0.0501
11.0150,-0.4636,0.9492,0.0501
11.0150,-0.4636,0.9492,0.0501
11.0160,-0.4636,0.9492,0.0501
11.0160,-0.4636,0.9492,0.0501
11.0170,-0.4636,0.9492,0.0501
11.0170,-0.4636,0.9492,0.0501
11.0180,-0.4636,0.9492,0.0501
11.0180,-0.4636,0.9492,0.0501
11.0190,-0.4636,0.9492,0.0501
11.0190,-0.4636,0.9492,0.0501
11.0190,-0.4636,0.9492,0.0501
11.0200,-0.4595,0.9470,0.0459
11.0200,-0.4575,0.9504,0.0398
11.0210,-0.4560,0.9531,0.0367
11.0470,-0.4538,0.9509,0.0371
11.0470,-0.4504,0.9514,0.0413
11.0470,-0.4504,0.9514,0.0413
11.0470,-0.4504,0.9514,0.0413
11.0480,-0.4504,0.9514,0.0413
11.0480,-0.4504,0.9514,0.0413
11.0480,-0.4504,0.9514,0.0413
11.0480,-0.4514,0.9485,0.0428
11.0490,-0.4514,0.9485,0.0428
11.0490,-0.4514,0.9485,0.0428
11.0490,-0.4514,0.9485,0.0428
11.0490,-0.4514,0.9485,0.0428
11.0490,-0.4509,0.9482,0.0445
11.0500,-0.4485,0.9561,0.0445
11.0750,-0.4485,0.9561,0.0445
11.0750,-0.4485,0.9561,0.0445
11.0750,-0.4485,0.9561,0.0445
11.0750,-0.4519,0.9558,0.0459
11.0950,-0.4519,0.9558,0.0459
11.0950,-0.4519,0.9558,0.0459
11.0950,-0.4519,0.9558,0.0459
11.0950,-0.4543,0.9541,0.0450
11.0960,-0.4543,0.9541,0.0450
11.1250,-0.4543,0.9541,0.0450
11.1250,-0.4543,0.9541,0.0450
11.1250,-0.4543,0.9541,0.0450
11.1260,-0.4531,0.9539,0.0371
11.1260,-0.4563,0.9534,0.0354
11.1550,-0.4563,0.9534,0.0354
11.1560,-0.4563,0.9534,0.0354
11.1560,-0.4563,0.9534,0.0354
11.1560,-0.4580,0.9512,0.0408
11.1610,-0.4580,0.9512,0.0408
11.1780,-0.4580,0.9512,0.0408
11.1780,-0.4580,0.9512,0.0408
11.1780,-0.4580,0.9512,0.0408
11.1790,-0.4580,0.9495,0.0464
11.1790,-0.4580,0.9495,0.0464
11.2050,-0.4580,0.9495,0.0464
11.2050,-0.4580,0.9495,0.0464
11.2050,-0.4580,0.9495,0.0464
11.2060,-0.4553,0.9517,0.0479
11.2060,-0.4558,0.9541,0.0457
11.2410,-0.4558,0.9541,0.0457
11.2410,-0.4558,0.9541,0.0457
11.2410,-0.4558,0.9541,0.0457
11.2410,-0.4563,0.9509,0.0425
11.2650,-0.4563,0.9509,0.0425
11.2660,-0.4563,0.9509,0.0425
11.2660,-0.4563,0.9509,0.0425
11.2670,-0.4570,0.9504,0.0457
11.2670,-0.4570,0.9504,0.0457
11.2880,-0.4570,0.9504,0.0457
11.2880,-0.4570,0.9504,0.0457
11.2890,-0.4570,0.9504,0.0457
11.2890,-0.4573,0.9497,0.0450
11.2890,-0.4563,0.9514,0.0459
11.3170,-0.4563,0.9514,0.0459
11.3180,-0.4563,0.9514,0.0459
11.3180,-0.4563,0.9514,0.0459
11.3180,-0.4565,0.9490,0.0403
11.3380,-0.4565,0.9490,0.0403
11.3380,-0.4565,0.9490,0.0403
11.3390,-0.4565,0.9490,0.0403
11.3390,-0.4470,0.9487,0.0406
11.3390,-0.4470,0.9487,0.0406
11.3640,-0.4470,0.9487,0.0406
11.3680,-0.4470,0.9487,0.0406
11.3690,-0.4470,0.9487,0.0406
11.3690,-0.4470,0.9487,0.0406
11.3690,-0.4414,0.9495,0.0457
11.3700,-0.4519,0.9548,0.0479
11.3980,-0.4519,0.9548,0.0479
11.3990,-0.4519,0.9548,0.0479
11.3990,-0.4519,0.9548,0.0479
11.3990,-0.4687,0.9546,0.0464
11.4190,-0.4687,0.9546,0.0464
11.4190,-0.4687,0.9546,0.0464
11.4200,-0.4687,0.9546,0.0464
11.4200,-0.4734,0.9536,0.0425
11.4210,-0.4734,0.9536,0.0425
11.4480,-0.4734,0.9536,0.0425
11.4480,-0.4734,0.9536,0.0425
11.4490,-0.4734,0.9536,0.0425
11.4490,-0.4612,0.9458,0.0430
11.4500,-0.4487,0.9411,0.0479
11.4820,-0.4487,0.9411,0.0479
11.4830,-0.4487,0.9411,0.0479
11.4830,-0.4487,0.9411,0.0479
11.4830,-0.4460,0.9468,0.0484
11.4980,-0.4460,0.9468,0.0484
11.4980,-0.4460,0.9468,0.0484
11.4990,-0.4460,0.9468,0.0484
11.4990,-0.4477,0.9534,0.0494
11.5000,-0.4477,0.9534,0.0494
11.5280,-0.4477,0.9534,0.0494
11.5290,-0.4477,0.9534,0.0494
11.5290,-0.4477,0.9534,0.0494
11.5290,-0.4494,0.9570,0.0481
11.5300,-0.4472,0.9583,0.0430
11.5630,-0.4472,0.9583,0.0430
11.5630,-0.4472,0.9583,0.0430
11.5640,-0.4472,0.9583,0.0430
11.5640,-0.4487,0.9573,0.0430
11.5640,-0.4487,0.9573,0.0430
11.5760,-0.4487,0.9573,0.0430
11.5760,-0.4487,0.9573,0.0430
11.5770,-0.4487,0.9573,0.0430
11.5770,-0.4555,0.9558,0.0437
11.5770,-0.4555,0.9558,0.0437
11.6060,-0.4555,0.9558,0.0437
11.6070,-0.4555,0.9558,0.0437
11.6070,-0.4555,0.9558,0.0437
11.6070,-0.4612,0.9536,0.0430
11.6080,-0.4595,0.9521,0.0511
11.6400,-0.4595,0.9521,0.0511
11.6400,-0.4595,0.9521,0.0511
11.6410,-0.4595,0.9521,0.0511
11.6410,-0.4585,0.9465,0.0577
11.6590,-0.4585,0.9465,0.0577
11.6590,-0.4585,0.9465,0.0577
11.6600,-0.4585,0.9465,0.0577
11.6600,-0.4585,0.9426,0.0521
11.6600,-0.4585,0.9426,0.0521
11.6880,-0.4585,0.9426,0.0521
11.6880,-0.4585,0.9426,0.0521
11.6880,-0.4585,0.9426,0.0521
11.6890,-0.4568,0.9485,0.0415
11.6890,-0.4565,0.9517,0.0420
11.7170,-0.4565,0.9517,0.0420
11.7170,-0.4565,0.9517,0.0420
11.7170,-0.4565,0.9517,0.0420
11.7170,-0.4607,0.9553,0.0445
11.7410,-0.4607,0.9553,0.0445
11.7410,-0.4607,0.9553,0.0445
11.7410,-0.4607,0.9553,0.0445
11.7410,-0.4565,0.9556,0.0455
11.7420,-0.4565,0.9556,0.0455
11.7610,-0.4565,0.9556,0.0455
11.7680,-0.4565,0.9556,0.0455
11.7680,-0.4565,0.9556,0.0455
11.7690,-0.4565,0.9556,0.0455
11.7690,-0.4477,0.9517,0.0474
11.7690,-0.4426,0.9482,0.0442
11.7980,-0.4426,0.9482,0.0442
11.7980,-0.4426,0.9482,0.0442
11.7990,-0.4426,0.9482,0.0442
11.7990,-0.4423,0.9475,0.0420
11.8180,-0.4423,0.9475,0.0420
11.8180,-0.4423,0.9475,0.0420
11.8190,-0.4423,0.9475,0.0420
11.8220,-0.4521,0.9541,0.0420
11.8220,-0.4521,0.9541,0.0420
11.8490,-0.4521,0.9541,0.0420
11.8490,-0.4521,0.9541,0.0420
11.8500,-0.4521,0.9541,0.0420
11.8500,-0.4595,0.9607,0.0442
11.8510,-0.4592,0.9539,0.0464
11.8780,-0.4592,0.9539,0.0464
11.8780,-0.4592,0.9539,0.0464
11.8790,-0.4592,0.9539,0.0464
11.8790,-0.4582,0.9477,0.0445
11.8980,-0.4582,0.9477,0.0445
11.8980,-0.4582,0.9477,0.0445
11.8980,-0.4582,0.9477,0.0445
11.8990,-0.4521,0.9509,0.0452
11.8990,-0.4521,0.9509,0.0452
11.9290,-0.4521,0.9509,0.0452
11.9300,-0.4521,0.9509,0.0452
11.9300,-0.4521,0.9509,0.0452
11.9310,-0.4475,0.9507,0.0479
11.9310,-0.4502,0.9521,0.0484
11.9600,-0.4502,0.9521,0.0484
11.9600,-0.4502,0.9521,0.0484
11.9610,-0.4502,0.9521,0.0484
11.9610,-0.4511,0.9521,0.0484
11.9620,-0.4511,0.9521,0.0484
11.9820,-0.4511,0.9521,0.0484
11.9820,-0.4511,0.9521,0.0484
11.9830,-0.4511,0.9521,0.0484
11.9830,-0.4507,0.9504,0.0452
11.9840,-0.4507,0.9504,0.0452
12.0080,-0.4507,0.9504,0.0452
12.0090,-0.4507,0.9504,0.0452
12.0090,-0.4507,0.9504,0.0452
12.0100,-0.4502,0.9519,0.0411
12.0100,-0.4514,0.9524,0.0415
12.0400,-0.4514,0.9524,0.0415
12.0400,-0.4514,0.9524,0.0415
12.0410,-0.4514,0.9524,0.0415
12.0410,-0.4575,0.9570,0.0481
12.0650,-0.4575,0.9570,0.0481
12.0650,-0.4575,0.9570,0.0481
12.0660,-0.4575,0.9570,0.0481
12.0660,-0.4577,0.9575,0.0530
12.0670,-0.4577,0.9575,0.0530
12.0890,-0.4577,0.9575,0.0530
12.0900,-0.4577,0.9575,0.0530
12.0900,-0.4577,0.9575,0.0530
12.0910,-0.4553,0.9548,0.0511
12.1090,-0.4570,0.9517,0.0496
12.1210,-0.4570,0.9517,0.0496
12.1210,-0.4570,0.9517,0.0496
12.1210,-0.4570,0.9517,0.0496
12.1220,-0.4577,0.9463,0.0486
12.1370,-0.4577,0.9463,0.0486
12.1370,-0.4577,0.9463,0.0486
12.1370,-0.4577,0.9463,0.0486
12.1380,-0.4577,0.9429,0.0435
12.1380,-0.4577,0.9429,0.0435
12.1610,-0.4577,0.9429,0.0435
12.1670,-0.4577,0.9429,0.0435
12.1680,-0.4577,0.9429,0.0435
12.1680,-0.4577,0.9429,0.0435
12.1690,-0.4551,0.9482,0.0413
12.1690,-0.4558,0.9546,0.0423
12.1990,-0.4558,0.9546,0.0423
12.1990,-0.4558,0.9546,0.0423
12.2000,-0.4558,0.9546,0.0423
12.2000,-0.4568,0.9534,0.0459
12.2210,-0.4568,0.9534,0.0459
12.2210,-0.4568,0.9534,0.0459
12.2220,-0.4568,0.9534,0.0459
12.2220,-0.4555,0.9509,0.0464
12.2230,-0.4555,0.9509,0.0464
12.2470,-0.4555,0.9509,0.0464
12.2480,-0.4555,0.9509,0.0464
12.2480,-0.4555,0.9509,0.0464
12.2490,-0.4536,0.9519,0.0486
12.2490,-0.4519,0.9517,0.0464
12.2820,-0.4519,0.9517,0.0464
12.2820,-0.4519,0.9517,0.0464
12.2830,-0.4519,0.9517,0.0464
12.2830,-0.4529,0.9468,0.0440
12.2990,-0.4529,0.9468,0.0440
12.3000,-0.4529,0.9468,0.0440
12.3000,-0.4529,0.9468,0.0440
12.3010,-0.4538,0.9475,0.0437
12.3010,-0.4538,0.9475,0.0437
12.3300,-0.4538,0.9475,0.0437
12.3300,-0.4538,0.9475,0.0437
12.3310,-0.4538,0.9475,0.0437
12.3310,-0.4507,0.9504,0.0447
12.3320,-0.4585,0.9590,0.0408
12.3630,-0.4585,0.9590,0.0408
12.3640,-0.4585,0.9590,0.0408
12.3640,-0.4585,0.9590,0.0408
12.3640,-0.4577,0.9617,0.0481
12.3650,-0.4577,0.9617,0.0481
12.3800,-0.4577,0.9617,0.0481
12.3810,-0.4577,0.9617,0.0481
12.3810,-0.4577,0.9617,0.0481
12.3810,-0.4619,0.9575,0.0423
12.3810,-0.4619,0.9575,0.0423
12.4080,-0.4619,0.9575,0.0423
12.4080,-0.4619,0.9575,0.0423
12.4090,-0.4619,0.9575,0.0423
12.4090,-0.4675,0.9536,0.0367
12.4100,-0.4612,0.9502,0.0459
12.4430,-0.4612,0.9502,0.0459
12.4440,-0.4612,0.9502,0.0459
12.4440,-0.4612,0.9502,0.0459
12.4440,-0.4560,0.9499,0.0386
12.4590,-0.4560,0.9499,0.0386
12.4600,-0.4560,0.9499,0.0386
12.4600,-0.4560,0.9499,0.0386
12.4610,-0.4558,0.9463,0.0379
12.4610,-0.4558,0.9463,0.0379
12.4890,-0.4558,0.9463,0.0379
12.4890,-0.4558,0.9463,0.0379
12.4890,-0.4558,0.9463,0.0379
12.4900,-0.4521,0.9458,0.0435
12.4900,-0.4465,0.9465,0.0459
12.5220,-0.4465,0.9465,0.0459
12.5220,-0.4465,0.9465,0.0459
12.5230,-0.4465,0.9465,0.0459
12.5230,-0.4453,0.9497,0.0408
12.5410,-0.4453,0.9497,0.0408
12.5410,-0.4453,0.9497,0.0408
12.5420,-0.4453,0.9497,0.0408
12.5420,-0.4504,0.9548,0.0354
12.5420,-0.4504,0.9548,0.0354
12.5630,-0.4504,0.9548,0.0354
12.5700,-0.4504,0.9548,0.0354
12.5700,-0.4504,0.9548,0.0354
12.5710,-0.4504,0.9548,0.0354
12.5710,-0.4599,0.9570,0.0364
12.5720,-0.4641,0.9548,0.0376
12.6010,-0.4641,0.9548,0.0376
12.6020,-0.4641,0.9548,0.0376
12.6020,-0.4641,0.9548,0.0376
12.6030,-0.4590,0.9507,0.0401
12.6230,-0.4590,0.9507,0.0401
12.6240,-0.4590,0.9507,0.0401
12.6240,-0.4590,0.9507,0.0401
12.6250,-0.4565,0.9556,0.0450
12.6250,-0.4565,0.9556,0.0450
12.6490,-0.4565,0.9556,0.0450
12.6500,-0.4565,0.9556,0.0450
12.6500,-0.4565,0.9556,0.0450
12.6730,-0.4533,0.9529,0.0435
12.6730,-0.4546,0.9502,0.0386
12.6770,-0.4546,0.9502,0.0386
12.6780,-0.4546,0.9502,0.0386
12.6780,-0.4546,0.9502,0.0386
12.6810,-0.4560,0.9504,0.0376
12.6980,-0.4560,0.9504,0.0376
12.6980,-0.4560,0.9504,0.0376
12.6980,-0.4560,0.9504,0.0376
12.6980,-0.4553,0.9490,0.0354
12.6990,-0.4553,0.9490,0.0354
12.7280,-0.4553,0.9490,0.0354
12.7290,-0.4553,0.9490,0.0354
12.7290,-0.4553,0.9490,0.0354
12.7300,-0.4526,0.9512,0.0332
12.7300,-0.4543,0.9524,0.0342
12.7600,-0.4543,0.9524,0.0342
12.7610,-0.4543,0.9524,0.0342
12.7610,-0.4543,0.9524,0.0342
12.7610,-0.4558,0.9526,0.0352
12.7620,-0.4558,0.9526,0.0352
12.7790,-0.4558,0.9526,0.0352
12.7800,-0.4558,0.9526,0.0352
12.7800,-0.4558,0.9526,0.0352
12.7800,-0.4519,0.9543,0.0371
12.7810,-0.4519,0.9543,0.0371
12.8080,-0.4519,0.9543,0.0371
12.8080,-0.4519,0.9543,0.0371
12.8080,-0.4519,0.9543,0.0371
12.8090,-0.4504,0.9575,0.0362
12.8090,-0.4509,0.9580,0.0327
12.8420,-0.4509,0.9580,0.0327
12.8420,-0.4509,0.9580,0.0327
12.8420,-0.4509,0.9580,0.0327
12.8420,-0.4546,0.9578,0.0308
12.8610,-0.4546,0.9578,0.0308
12.8610,-0.4546,0.9578,0.0308
12.8620,-0.4546,0.9578,0.0308
12.8620,-0.4597,0.9580,0.0293
12.8630,-0.4597,0.9580,0.0293
12.8890,-0.4597,0.9580,0.0293
12.8900,-0.4597,0.9580,0.0293
12.8910,-0.4597,0.9580,0.0293
12.8910,-0.4636,0.9575,0.0327
12.8910,-0.4680,0.9543,0.0362
12.9240,-0.4680,0.9543,0.0362
12.9250,-0.4680,0.9543,0.0362
12.9250,-0.4680,0.9543,0.0362
12.9260,-0.4651,0.9497,0.0386
12.9450,-0.4651,0.9497,0.0386
12.9450,-0.4651,0.9497,0.0386
12.9450,-0.4651,0.9497,0.0386
12.9460,-0.4573,0.9448,0.0418
12.9460,-0.4573,0.9448,0.0418
12.9620,-0.4573,0.9448,0.0418
12.9700,-0.4573,0.9448,0.0418
12.9700,-0.4573,0.9448,0.0418
12.9710,-0.4573,0.9448,0.0418
12.9710,-0.4489,0.9438,0.0393
12.9720,-0.4458,0.9473,0.0401
13.0000,-0.4458,0.9473,0.0401
13.0000,-0.4458,0.9473,0.0401
13.0010,-0.4458,0.9473,0.0401
13.0010,-0.4467,0.9490,0.0396
13.0220,-0.4467,0.9490,0.0396
13.0220,-0.4467,0.9490,0.0396
13.0220,-0.4467,0.9490,0.0396
13.0230,-0.4489,0.9502,0.0367
13.0230,-0.4489,0.9502,0.0367
13.0500,-0.4489,0.9502,0.0367
13.0510,-0.4489,0.9502,0.0367
13.0510,-0.4489,0.9502,0.0367
13.0510,-0.4524,0.9482,0.0371
13.0520,-0.4492,0.9482,0.0381
13.0800,-0.4492,0.9482,0.0381
13.0800,-0.4492,0.9482,0.0381
13.0810,-0.4492,0.9482,0.0381
13.0810,-0.4436,0.9458,0.0396
13.0990,-0.4436,0.9458,0.0396
13.0990,-0.4436,0.9458,0.0396
13.1000,-0.4436,0.9458,0.0396
13.1020,-0.4494,0.9543,0.0349
13.1030,-0.4494,0.9543,0.0349
13.1300,-0.4494,0.9543,0.0349
13.1300,-0.4494,0.9543,0.0349
13.1310,-0.4494,0.9543,0.0349
13.1310,-0.4411,0.9683,0.0467
13.1320,-0.4419,0.9717,0.0408
13.1610,-0.4419,0.9717,0.0408
13.1610,-0.4419,0.9717,0.0408
13.1620,-0.4419,0.9717,0.0408
13.1620,-0.4590,0.9649,0.0369
13.1630,-0.4590,0.9649,0.0369
13.1820,-0.4590,0.9649,0.0369
13.1820,-0.4590,0.9649,0.0369
13.1830,-0.4590,0.9649,0.0369
13.1830,-0.4597,0.9592,0.0543
13.1830,-0.4597,0.9592,0.0543
13.2110,-0.4597,0.9592,0.0543
13.2110,-0.4597,0.9592,0.0543
13.2320,-0.4597,0.9592,0.0543
13.2320,-0.4536,0.9487,0.0523
13.2320,-0.4497,0.9436,0.0435
13.2390,-0.4497,0.9436,0.0435
13.2390,-0.4497,0.9436,0.0435
13.2390,-0.4497,0.9436,0.0435
13.2400,-0.4499,0.9441,0.0423
13.2580,-0.4499,0.9441,0.0423
13.2580,-0.4499,0.9441,0.0423
13.2590,-0.4499,0.9441,0.0423
13.2590,-0.4465,0.9451,0.0401
13.2590,-0.4465,0.9451,0.0401
13.2890,-0.4465,0.9451,0.0401
13.2900,-0.4465,0.9451,0.0401
13.2900,-0.4465,0.9451,0.0401
13.2910,-0.4487,0.9497,0.0423
13.2910,-0.4511,0.9575,0.0464
13.3240,-0.4511,0.9575,0.0464
13.3240,-0.4511,0.9575,0.0464
13.3250,-0.4511,0.9575,0.0464
13.3250,-0.4536,0.9656,0.0462
13.3410,-0.4536,0.9656,0.0462
13.3410,-0.4536,0.9656,0.0462
13.3420,-0.4536,0.9656,0.0462
13.3420,-0.4524,0.9663,0.0452
13.3420,-0.4524,0.9663,0.0452
13.3620,-0.4524,0.9663,0.0452
13.3700,-0.4524,0.9663,0.0452
13.3710,-0.4524,0.9663,0.0452
13.3710,-0.4524,0.9663,0.0452
13.3710,-0.4509,0.9602,0.0433
13.3710,-0.4536,0.9561,0.0437
13.4000,-0.4536,0.9561,0.0437
13.4010,-0.4536,0.9561,0.0437
13.4010,-0.4536,0.9561,0.0437
13.4020,-0.4563,0.9548,0.0420
13.4240,-0.4563,0.9548,0.0420
13.4240,-0.4563,0.9548,0.0420
13.4250,-0.4563,0.9548,0.0420
13.4250,-0.4595,0.9539,0.0452
13.4280,-0.4595,0.9539,0.0452
13.4520,-0.4595,0.9539,0.0452
13.4520,-0.4595,0.9539,0.0452
13.4530,-0.4595,0.9539,0.0452
13.4530,-0.4651,0.9497,0.0491
13.4540,-0.4587,0.9407,0.0511
13.4800,-0.4587,0.9407,0.0511
13.4810,-0.4587,0.9407,0.0511
13.4810,-0.4587,0.9407,0.0511
13.4810,-0.4472,0.9419,0.0491
13.5070,-0.4472,0.9419,0.0491
13.5070,-0.4472,0.9419,0.0491
13.5080,-0.4472,0.9419,0.0491
13.5080,-0.4419,0.9556,0.0430
13.5080,-0.4419,0.9556,0.0430
13.5310,-0.4419,0.9556,0.0430
13.5310,-0.4419,0.9556,0.0430
13.5320,-0.4419,0.9556,0.0430
13.5320,-0.4441,0.9539,0.0408
13.5330,-0.4467,0.9502,0.0381
13.5620,-0.4467,0.9502,0.0381
13.5620,-0.4467,0.9502,0.0381
13.5630,-0.4467,0.9502,0.0381
13.5630,-0.4441,0.9548,0.0425
13.5640,-0.4441,0.9548,0.0425
13.5800,-0.4441,0.9548,0.0425
13.5810,-0.4441,0.9548,0.0425
13.5810,-0.4441,0.9548,0.0425
13.5820,-0.4426,0.9548,0.0506
13.5820,-0.4426,0.9548,0.0506
13.6110,-0.4426,0.9548,0.0506
13.6110,-0.4426,0.9548,0.0506
13.6110,-0.4426,0.9548,0.0506
13.6120,-0.4431,0.9565,0.0540
13.6120,-0.4509,0.9546,0.0530
13.6410,-0.4509,0.9546,0.0530
13.6410,-0.4509,0.9546,0.0530
13.6410,-0.4509,0.9546,0.0530
13.6420,-0.4541,0.9534,0.0481
13.6610,-0.4541,0.9534,0.0481
13.6610,-0.4541,0.9534,0.0481
13.6620,-0.4541,0.9534,0.0481
13.6620,-0.4536,0.9553,0.0477
13.6620,-0.4536,0.9553,0.0477
13.6910,-0.4536,0.9553,0.0477
13.6920,-0.4536,0.9553,0.0477
13.6920,-0.4536,0.9553,0.0477
13.6920,-0.4509,0.9575,0.0494
13.6920,-0.4519,0.9561,0.0516
13.7190,-0.4519,0.9561,0.0516
13.7190,-0.4519,0.9561,0.0516
13.7200,-0.4519,0.9561,0.0516
13.7200,-0.4558,0.9519,0.0499
13.7400,-0.4558,0.9519,0.0499
13.7400,-0.4558,0.9519,0.0499
13.7410,-0.4558,0.9519,0.0499
13.7410,-0.4592,0.9517,0.0459
13.7410,-0.4592,0.9517,0.0459
13.7610,-0.4592,0.9517,0.0459
13.7700,-0.4592,0.9517,0.0459
13.7850,-0.4592,0.9517,0.0459
13.7860,-0.4592,0.9517,0.0459
13.7860,-0.4565,0.9509,0.0447
13.7870,-0.4487,0.9509,0.0462
13.8050,-0.4487,0.9509,0.0462
13.8050,-0.4487,0.9509,0.0462
13.8060,-0.4487,0.9509,0.0462
13.8060,-0.4453,0.9514,0.0511
13.8190,-0.4453,0.9514,0.0511
13.8200,-0.4453,0.9514,0.0511
13.8200,-0.4453,0.9514,0.0511
13.8210,-0.4482,0.9502,0.0469
13.8210,-0.4482,0.9502,0.0469
13.8510,-0.4482,0.9502,0.0469
13.8510,-0.4482,0.9502,0.0469
13.8510,-0.4482,0.9502,0.0469
13.8510,-0.4516,0.9521,0.0455
13.8520,-0.4511,0.9534,0.0513
13.8830,-0.4511,0.9534,0.0513
13.8830,-0.4511,0.9534,0.0513
13.8830,-0.4511,0.9534,0.0513
13.8840,-0.4538,0.9519,0.0484
13.9020,-0.4538,0.9519,0.0484
13.9030,-0.4538,0.9519,0.0484
13.9030,-0.4538,0.9519,0.0484
13.9040,-0.4560,0.9561,0.0450
13.9040,-0.4560,0.9561,0.0450
13.9310,-0.4560,0.9561,0.0450
13.9310,-0.4560,0.9561,0.0450
13.9310,-0.4560,0.9561,0.0450
13.9310,-0.4570,0.9602,0.0455
13.9320,-0.4529,0.9617,0.0428
13.9640,-0.4529,0.9617,0.0428
13.9650,-0.4529,0.9617,0.0428
13.9650,-0.4529,0.9617,0.0428
13.9660,-0.4509,0.9524,0.0494
13.9660,-0.4509,0.9524,0.0494
13.9810,-0.4509,0.9524,0.0494
13.9810,-0.4509,0.9524,0.0494
13.9820,-0.4509,0.9524,0.0494
13.9820,-0.4541,0.9426,0.0474
13.9820,-0.4541,0.9426,0.0474
14.0110,-0.4541,0.9426,0.0474
14.0110,-0.4541,0.9426,0.0474
14.0110,-0.4541,0.9426,0.0474
14.0120,-0.4577,0.9377,0.0423
14.0120,-0.4568,0.9451,0.0464
14.0400,-0.4568,0.9451,0.0464
14.0410,-0.4568,0.9451,0.0464
14.0410,-0.4568,0.9451,0.0464
14.0410,-0.4533,0.9531,0.0474
14.0610,-0.4533,0.9531,0.0474
14.0620,-0.4533,0.9531,0.0474
14.0620,-0.4533,0.9531,0.0474
14.0620,-0.4477,0.9558,0.0459
14.0630,-0.4477,0.9558,0.0459
14.0910,-0.4477,0.9558,0.0459
14.0910,-0.4477,0.9558,0.0459
14.0920,-0.4477,0.9558,0.0459
14.2070,-0.4445,0.9529,0.0459
14.2080,-0.4465,0.9531,0.0508
14.2140,-0.4465,0.9531,0.0508
14.2140,-0.4465,0.9531,0.0508
14.2140,-0.4465,0.9531,0.0508
14.2150,-0.4465,0.9531,0.0508
14.2150,-0.4465,0.9531,0.0508
14.2150,-0.4465,0.9531,0.0508
14.2150,-0.4465,0.9531,0.0508
14.2160,-0.4465,0.9531,0.0508
14.2170,-0.4465,0.9531,0.0508
14.2170,-0.4465,0.9531,0.0508
14.2180,-0.4465,0.9531,0.0508
14.2180,-0.4465,0.9531,0.0508
14.2180,-0.4487,0.9602,0.0557
14.2190,-0.4548,0.9636,0.0499
14.2190,-0.4580,0.9558,0.0486
14.2200,-0.4536,0.9521,0.0516
14.2210,-0.4502,0.9497,0.0508
14.2210,-0.4502,0.9497,0.0508
14.2210,-0.4502,0.9497,0.0508
14.2220,-0.4502,0.9497,0.0508
14.2220,-0.4502,0.9497,0.0508
14.2230,-0.4502,0.9497,0.0508
14.2230,-0.4502,0.9497,0.0508
14.2240,-0.4485,0.9492,0.0513
14.2240,-0.4485,0.9492,0.0513
14.2520,-0.4485,0.9492,0.0513
14.2520,-0.4485,0.9492,0.0513
14.2520,-0.4485,0.9492,0.0513
14.2530,-0.4531,0.9482,0.0540
14.2530,-0.4524,0.9482,0.0523
14.2830,-0.4524,0.9482,0.0523
14.2840,-0.4524,0.9482,0.0523
14.2840,-0.4524,0.9482,0.0523
14.2840,-0.4475,0.9487,0.0523
14.3040,-0.4475,0.9487,0.0523
14.3040,-0.4475,0.9487,0.0523
14.3040,-0.4475,0.9487,0.0523
14.3050,-0.4443,0.9470,0.0501
14.3050,-0.4443,0.9470,0.0501
14.3300,-0.4443,0.9470,0.0501
14.3300,-0.4443,0.9470,0.0501
14.3300,-0.4443,0.9470,0.0501
14.3300,-0.4504,0.9521,0.0472
14.3300,-0.4555,0.9639,0.0518
14.3620,-0.4555,0.9639,0.0518
14.3630,-0.4555,0.9639,0.0518
14.3630,-0.4555,0.9639,0.0518
14.3640,-0.4470,0.9624,0.0562
14.3670,-0.4470,0.9624,0.0562
14.3810,-0.4470,0.9624,0.0562
14.3840,-0.4470,0.9624,0.0562
14.3840,-0.4470,0.9624,0.0562
14.3850,-0.4441,0.9502,0.0503
14.3850,-0.4441,0.9502,0.0503
14.4110,-0.4441,0.9502,0.0503
14.4120,-0.4441,0.9502,0.0503
14.4120,-0.4441,0.9502,0.0503
14.4120,-0.4477,0.9473,0.0513
14.4130,-0.4492,0.9512,0.0535
14.4410,-0.4492,0.9512,0.0535
14.4420,-0.4492,0.9512,0.0535
14.4420,-0.4492,0.9512,0.0535
14.4420,-0.4519,0.9541,0.0494
14.4610,-0.4519,0.9541,0.0494
14.4610,-0.4519,0.9541,0.0494
14.4620,-0.4519,0.9541,0.0494
14.4620,-0.4499,0.9548,0.0469
14.4620,-0.4499,0.9548,0.0469
14.4920,-0.4499,0.9548,0.0469
14.4930,-0.4499,0.9548,0.0469
14.4930,-0.4499,0.9548,0.0469
14.4940,-0.4485,0.9534,0.0423
14.4940,-0.4526,0.9575,0.0459
14.5240,-0.4526,0.9575,0.0459
14.5240,-0.4526,0.9575,0.0459
14.5250,-0.4526,0.9575,0.0459
14.5250,-0.4524,0.9614,0.0516
14.5440,-0.4524,0.9614,0.0516
14.5450,-0.4524,0.9614,0.0516
14.5450,-0.4524,0.9614,0.0516
14.5460,-0.4529,0.9561,0.0499
14.5460,-0.4529,0.9561,0.0499
14.5630,-0.4529,0.9561,0.0499
14.5720,-0.4529,0.9561,0.0499
14.5720,-0.4529,0.9561,0.0499
14.5730,-0.4529,0.9561,0.0499
14.5730,-0.4541,0.9512,0.0455
14.5740,-0.4560,0.9531,0.0430
14.6050,-0.4560,0.9531,0.0430
14.6050,-0.4560,0.9531,0.0430
14.6060,-0.4560,0.9531,0.0430
14.6060,-0.4529,0.9534,0.0430
14.6220,-0.4529,0.9534,0.0430
14.6230,-0.4529,0.9534,0.0430
14.6240,-0.4529,0.9534,0.0430
14.6240,-0.4477,0.9517,0.0423
14.6240,-0.4477,0.9517,0.0423
14.6520,-0.4477,0.9517,0.0423
14.6520,-0.4477,0.9517,0.0423
14.6530,-0.4477,0.9517,0.0423
14.6530,-0.4480,0.9514,0.0391
14.6540,-0.4472,0.9563,0.0457
14.6860,-0.4472,0.9563,0.0457
14.6870,-0.4472,0.9563,0.0457
14.6870,-0.4472,0.9563,0.0457
14.6870,-0.4477,0.9553,0.0506
14.7050,-0.4477,0.9553,0.0506
14.7050,-0.4477,0.9553,0.0506
14.7060,-0.4477,0.9553,0.0506
14.7060,-0.4460,0.9539,0.0511
14.7070,-0.4460,0.9539,0.0511
14.7340,-0.4460,0.9539,0.0511
14.7340,-0.4460,0.9539,0.0511
14.7350,-0.4460,0.9539,0.0511
14.7350,-0.4531,0.9556,0.0440
14.7360,-0.4575,0.9531,0.0342
14.7650,-0.4575,0.9531,0.0342
14.7660,-0.4575,0.9531,0.0342
14.7660,-0.4575,0.9531,0.0342
14.7670,-0.4526,0.9495,0.0347
14.7670,-0.4526,0.9495,0.0347
14.7830,-0.4526,0.9495,0.0347
14.7830,-0.4526,0.9495,0.0347
14.7840,-0.4526,0.9495,0.0347
14.7840,-0.4489,0.9492,0.0413
14.7850,-0.4489,0.9492,0.0413
14.8120,-0.4489,0.9492,0.0413
14.8130,-0.4489,0.9492,0.0413
14.8130,-0.4489,0.9492,0.0413
14.8140,-0.4507,0.9556,0.0464
14.8140,-0.4568,0.9565,0.0459
14.8430,-0.4568,0.9565,0.0459
14.8430,-0.4568,0.9565,0.0459
14.8440,-0.4568,0.9565,0.0459
14.8440,-0.4563,0.9565,0.0433
14.8660,-0.4563,0.9565,0.0433
14.8660,-0.4563,0.9565,0.0433
14.8670,-0.4563,0.9565,0.0433
14.8670,-0.4565,0.9561,0.0401
14.8860,-0.4565,0.9561,0.0401
14.8910,-0.4565,0.9561,0.0401
14.8910,-0.4565,0.9561,0.0401
14.8920,-0.4565,0.9561,0.0401
14.8920,-0.4543,0.9512,0.0384
14.8930,-0.4502,0.9487,0.0413
14.9200,-0.4502,0.9487,0.0413
14.9200,-0.4502,0.9487,0.0413
14.9200,-0.4502,0.9487,0.0413
14.9210,-0.4521,0.9497,0.0433
14.9420,-0.4521,0.9497,0.0433
14.9420,-0.4521,0.9497,0.0433
14.9430,-0.4521,0.9497,0.0433
14.9430,-0.4543,0.9534,0.0401
14.9440,-0.4543,0.9534,0.0401
14.9620,-0.4543,0.9534,0.0401
14.9650,-0.4543,0.9534,0.0401
14.9700,-0.4543,0.9534,0.0401
14.9710,-0.4543,0.9534,0.0401
14.9710,-0.4543,0.9534,0.0401
14.9720,-0.4546,0.9526,0.0411
14.9720,-0.4565,0.9536,0.0408
15.0000,-0.4565,0.9536,0.0408
15.0010,-0.4565,0.9536,0.0408
15.0010,-0.4565,0.9536,0.0408
15.0010,-0.4558,0.9600,0.0364
15.0230,-0.4558,0.9600,0.0364
15.0240,-0.4558,0.9600,0.0364
15.0240,-0.4558,0.9600,0.0364
15.0240,-0.4504,0.9587,0.0305
15.0240,-0.4504,0.9587,0.0305
15.0510,-0.4504,0.9587,0.0305
15.0510,-0.4504,0.9587,0.0305
15.0520,-0.4504,0.9587,0.0305
15.0520,-0.4423,0.9563,0.0293
15.0520,-0.4392,0.9590,0.0318
15.0830,-0.4392,0.9590,0.0318
15.0830,-0.4392,0.9590,0.0318
15.0840,-0.4392,0.9590,0.0318
15.0840,-0.4475,0.9592,0.0352
15.1030,-0.4475,0.9592,0.0352
15.1030,-0.4475,0.9592,0.0352
15.1040,-0.4475,0.9592,0.0352
15.1040,-0.4511,0.9534,0.0379
15.1050,-0.4511,0.9534,0.0379
15.1320,-0.4511,0.9534,0.0379
15.1320,-0.4511,0.9534,0.0379
15.1330,-0.4511,0.9534,0.0379
15.1330,-0.4531,0.9541,0.0415
15.1340,-0.4555,0.9578,0.0415
15.1620,-0.4555,0.9578,0.0415
15.1630,-0.4555,0.9578,0.0415
15.1630,-0.4555,0.9578,0.0415
15.1640,-0.4560,0.9534,0.0406
15.1640,-0.4560,0.9534,0.0406
15.1820,-0.4560,0.9534,0.0406
15.1830,-0.4560,0.9534,0.0406
15.1830,-0.4560,0.9534,0.0406
15.1840,-0.4568,0.9490,0.0401
15.1840,-0.4568,0.9490,0.0401
15.2130,-0.4568,0.9490,0.0401
15.2140,-0.4568,0.9490,0.0401
15.2140,-0.4568,0.9490,0.0401
15.2140,-0.4568,0.9480,0.0374
15.2150,-0.4526,0.9504,0.0403
15.2440,-0.4526,0.9504,0.0403
15.2450,-0.4526,0.9504,0.0403
15.2450,-0.4526,0.9504,0.0403
15.2460,-0.4463,0.9521,0.0428
15.2630,-0.4463,0.9521,0.0428
15.2630,-0.4463,0.9521,0.0428
15.2640,-0.4463,0.9521,0.0428
15.2640,-0.4475,0.9553,0.0391
15.2650,-0.4475,0.9553,0.0391
15.2920,-0.4475,0.9553,0.0391
15.2920,-0.4475,0.9553,0.0391
15.2920,-0.4475,0.9553,0.0391
15.2930,-0.4519,0.9553,0.0327
15.2930,-0.4555,0.9526,0.0369
15.3200,-0.4555,0.9526,0.0369
15.3210,-0.4555,0.9526,0.0369
15.3210,-0.4555,0.9526,0.0369
15.3220,-0.4543,0.9519,0.0455
15.3430,-0.4543,0.9519,0.0455
15.3430,-0.4543,0.9519,0.0455
15.3440,-0.4543,0.9519,0.0455
15.3440,-0.4502,0.9507,0.0501
15.3450,-0.4502,0.9507,0.0501
15.3620,-0.4502,0.9507,0.0501
15.3710,-0.4502,0.9507,0.0501
15.3710,-0.4502,0.9507,0.0501
15.3720,-0.4502,0.9507,0.0501
15.3720,-0.4465,0.9490,0.0513
15.3720,-0.4458,0.9561,0.0457
15.4010,-0.4458,0.9561,0.0457
15.4020,-0.4458,0.9561,0.0457
15.4020,-0.4458,0.9561,0.0457
15.4030,-0.4475,0.9597,0.0408
15.4220,-0.4475,0.9597,0.0408
15.4230,-0.4475,0.9597,0.0408
15.4370,-0.4475,0.9597,0.0408
15.4370,-0.4519,0.9592,0.0403
15.4380,-0.4519,0.9592,0.0403
15.4510,-0.4519,0.9592,0.0403
15.4520,-0.4519,0.9592,0.0403
15.4520,-0.4519,0.9592,0.0403
15.4520,-0.4563,0.9565,0.0433
15.4530,-0.4543,0.9531,0.0472
15.4810,-0.4543,0.9531,0.0472
15.4820,-0.4543,0.9531,0.0472
15.4820,-0.4543,0.9531,0.0472
15.4820,-0.4497,0.9534,0.0508
15.5020,-0.4497,0.9534,0.0508
15.5030,-0.4497,0.9534,0.0508
15.5030,-0.4497,0.9534,0.0508
15.5030,-0.4472,0.9568,0.0481
15.5040,-0.4472,0.9568,0.0481
15.5330,-0.4472,0.9568,0.0481
15.5340,-0.4472,0.9568,0.0481
15.5340,-0.4472,0.9568,0.0481
15.5350,-0.4487,0.9595,0.0440
15.5350,-0.4590,0.9578,0.0452
15.5620,-0.4590,0.9578,0.0452
15.5670,-0.4590,0.9578,0.0452
15.5670,-0.4590,0.9578,0.0452
15.5680,-0.4590,0.9578,0.0452
15.5680,-0.4617,0.9541,0.0535
15.5830,-0.4617,0.9541,0.0535
15.5840,-0.4617,0.9541,0.0535
15.5840,-0.4617,0.9541,0.0535
15.5840,-0.4621,0.9517,0.0543
15.5840,-0.4621,0.9517,0.0543
15.6130,-0.4621,0.9517,0.0543
15.6130,-0.4621,0.9517,0.0543
15.6140,-0.4621,0.9517,0.0543
15.6140,-0.4541,0.9490,0.0479
15.6150,-0.4453,0.9534,0.0396
15.6420,-0.4453,0.9534,0.0396
15.6420,-0.4453,0.9534,0.0396
15.6430,-0.4453,0.9534,0.0396
15.6430,-0.4428,0.9548,0.0408
15.6630,-0.4428,0.9548,0.0408
15.6630,-0.4428,0.9548,0.0408
15.6640,-0.4428,0.9548,0.0408
15.6640,-0.4458,0.9563,0.0437
15.6650,-0.4458,0.9563,0.0437
15.6940,-0.4458,0.9563,0.0437
15.6940,-0.4458,0.9563,0.0437
15.6950,-0.4458,0.9563,0.0437
15.6950,-0.4489,0.9553,0.0435
15.6960,-0.4519,0.9526,0.0452
15.7230,-0.4519,0.9526,0.0452
15.7240,-0.4519,0.9526,0.0452
15.7240,-0.4519,0.9526,0.0452
15.7250,-0.4568,0.9543,0.0501
15.7440,-0.4568,0.9543,0.0501
15.7440,-0.4568,0.9543,0.0501
15.7450,-0.4568,0.9543,0.0501
15.7450,-0.4621,0.9480,0.0481
15.7450,-0.4621,0.9480,0.0481
15.7630,-0.4621,0.9480,0.0481
15.7730,-0.4621,0.9480,0.0481
15.7740,-0.4621,0.9480,0.0481
15.7740,-0.4621,0.9480,0.0481
15.7750,-0.4661,0.9446,0.0494
15.7750,-0.4678,0.9451,0.0552
15.8050,-0.4678,0.9451,0.0552
15.8060,-0.4678,0.9451,0.0552
15.8060,-0.4678,0.9451,0.0552
15.8060,-0.4656,0.9411,0.0577
15.8240,-0.4656,0.9411,0.0577
15.8240,-0.4656,0.9411,0.0577
15.8250,-0.4656,0.9411,0.0577
15.8250,-0.4575,0.9421,0.0530
15.8250,-0.4575,0.9421,0.0530
15.8540,-0.4575,0.9421,0.0530
15.8540,-0.4575,0.9421,0.0530
15.8550,-0.4575,0.9421,0.0530
15.8550,-0.4519,0.9517,0.0437
15.8550,-0.4463,0.9573,0.0391
15.8850,-0.4463,0.9573,0.0391
15.8850,-0.4463,0.9573,0.0391
15.8850,-0.4463,0.9573,0.0391
15.8860,-0.4472,0.9570,0.0384
15.9040,-0.4472,0.9570,0.0384
15.9040,-0.4472,0.9570,0.0384
15.9050,-0.4472,0.9570,0.0384
15.9050,-0.4489,0.9539,0.0391
15.9050,-0.4489,0.9539,0.0391
15.9340,-0.4489,0.9539,0.0391
15.9340,-0.4489,0.9539,0.0391
15.9340,-0.4489,0.9539,0.0391
15.9350,-0.4480,0.9531,0.0435
15.9350,-0.4477,0.9502,0.0494
15.9650,-0.4477,0.9502,0.0494
15.9650,-0.4477,0.9502,0.0494
15.9650,-0.4477,0.9502,0.0494
15.9660,-0.4477,0.9502,0.0494
15.9660,-0.4467,0.9504,0.0494
15.9840,-0.4467,0.9504,0.0494
16.0010,-0.4467,0.9504,0.0494
16.0020,-0.4467,0.9504,0.0494
16.0020,-0.4455,0.9556,0.0499
16.0030,-0.4455,0.9556,0.0499
16.0120,-0.4455,0.9556,0.0499
16.0120,-0.4455,0.9556,0.0499
16.0120,-0.4455,0.9556,0.0499
16.0130,-0.4470,0.9580,0.0455
16.0130,-0.4514,0.9543,0.0418
16.0420,-0.4514,0.9543,0.0418
16.0420,-0.4514,0.9543,0.0418
16.0420,-0.4514,0.9543,0.0418
16.0420,-0.4565,0.9514,0.0401
16.0650,-0.4565,0.9514,0.0401
16.0660,-0.4565,0.9514,0.0401
16.0660,-0.4565,0.9514,0.0401
16.0660,-0.4538,0.9497,0.0425
16.0670,-0.4538,0.9497,0.0425
16.0920,-0.4538,0.9497,0.0425
16.0930,-0.4538,0.9497,0.0425
16.0930,-0.4538,0.9497,0.0425
16.0930,-0.4526,0.9512,0.0479
16.0940,-0.4558,0.9531,0.0486
16.1220,-0.4558,0.9531,0.0486
16.1220,-0.4558,0.9531,0.0486
16.1220,-0.4558,0.9531,0.0486
16.1220,-0.4599,0.9536,0.0501
16.1440,-0.4599,0.9536,0.0501
16.1450,-0.4599,0.9536,0.0501
16.1450,-0.4599,0.9536,0.0501
16.1460,-0.4607,0.9507,0.0496
16.1460,-0.4607,0.9507,0.0496
16.1610,-0.4607,0.9507,0.0496
16.1730,-0.4607,0.9507,0.0496
16.1730,-0.4607,0.9507,0.0496
16.1740,-0.4607,0.9507,0.0496
16.1740,-0.4653,0.9507,0.0489
16.1740,-0.4639,0.9497,0.0528
16.2030,-0.4639,0.9497,0.0528
16.2030,-0.4639,0.9497,0.0528
16.2040,-0.4639,0.9497,0.0528
16.2040,-0.4609,0.9482,0.0555
16.2250,-0.4609,0.9482,0.0555
16.2250,-0.4609,0.9482,0.0555
16.2260,-0.4609,0.9482,0.0555
16.2260,-0.4582,0.9512,0.0501
16.2270,-0.4582,0.9512,0.0501
16.2540,-0.4582,0.9512,0.0501
16.2540,-0.4582,0.9512,0.0501
16.2550,-0.4582,0.9512,0.0501
16.2550,-0.4485,0.9507,0.0415
16.2560,-0.4421,0.9517,0.0418
16.2840,-0.4421,0.9517,0.0418
16.2840,-0.4421,0.9517,0.0418
16.2850,-0.4421,0.9517,0.0418
16.2850,-0.4489,0.9556,0.0457
16.3040,-0.4489,0.9556,0.0457
16.3040,-0.4489,0.9556,0.0457
16.3050,-0.4489,0.9556,0.0457
16.3050,-0.4585,0.9485,0.0445
16.3060,-0.4585,0.9485,0.0445
16.3330,-0.4585,0.9485,0.0445
16.3330,-0.4585,0.9485,0.0445
16.3330,-0.4585,0.9485,0.0445
16.3340,-0.4658,0.9451,0.0396
16.3340,-0.4648,0.9458,0.0459
16.3620,-0.4648,0.9458,0.0459
16.3660,-0.4648,0.9458,0.0459
16.3660,-0.4648,0.9458,0.0459
16.3670,-0.4648,0.9458,0.0459
16.3670,-0.4607,0.9507,0.0530
16.3840,-0.4607,0.9507,0.0530
16.3850,-0.4607,0.9507,0.0530
16.3850,-0.4607,0.9507,0.0530
16.3850,-0.4624,0.9521,0.0516
16.3860,-0.4624,0.9521,0.0516
16.4140,-0.4624,0.9521,0.0516
16.4150,-0.4624,0.9521,0.0516
16.4150,-0.4624,0.9521,0.0516
16.4150,-0.4631,0.9499,0.0530
16.4160,-0.4617,0.9490,0.0525
16.4450,-0.4617,0.9490,0.0525
16.4450,-0.4617,0.9490,0.0525
16.4450,-0.4617,0.9490,0.0525
16.4460,-0.4585,0.9495,0.0477
16.4650,-0.4585,0.9495,0.0477
16.4650,-0.4585,0.9495,0.0477
16.4650,-0.4585,0.9495,0.0477
16.4650,-0.4575,0.9490,0.0484
16.4660,-0.4575,0.9490,0.0484
16.4950,-0.4575,0.9490,0.0484
16.4950,-0.4575,0.9490,0.0484
16.4960,-0.4575,0.9490,0.0484
16.4960,-0.4568,0.9490,0.0491
16.4960,-0.4568,0.9495,0.0469
16.5260,-0.4568,0.9495,0.0469
16.5260,-0.4568,0.9495,0.0469
16.5260,-0.4568,0.9495,0.0469
16.5270,-0.4519,0.9499,0.0435
16.5450,-0.4519,0.9499,0.0435
16.5640,-0.4519,0.9499,0.0435
16.5640,-0.4519,0.9499,0.0435
16.5650,-0.4524,0.9529,0.0457
16.5650,-0.4524,0.9529,0.0457
16.5650,-0.4524,0.9529,0.0457
16.5730,-0.4524,0.9529,0.0457
16.5730,-0.4524,0.9529,0.0457
16.5730,-0.4524,0.9529,0.0457
16.5730,-0.4573,0.9534,0.0491
16.5730,-0.4592,0.9534,0.0523
16.6020,-0.4592,0.9534,0.0523
16.6030,-0.4592,0.9534,0.0523
16.6030,-0.4592,0.9534,0.0523
16.6030,-0.4585,0.9475,0.0538
16.6260,-0.4585,0.9475,0.0538
16.6270,-0.4585,0.9475,0.0538
16.6270,-0.4585,0.9475,0.0538
16.6270,-0.4585,0.9473,0.0511
16.6280,-0.4585,0.9473,0.0511
16.6540,-0.4585,0.9473,0.0511
16.6550,-0.4585,0.9473,0.0511
16.6550,-0.4585,0.9473,0.0511
16.6560,-0.4580,0.9492,0.0469
16.6560,-0.4565,0.9504,0.0435
16.6830,-0.4565,0.9504,0.0435
16.6840,-0.4565,0.9504,0.0435
16.6840,-0.4565,0.9504,0.0435
16.6850,-0.4558,0.9509,0.0396
16.7050,-0.4558,0.9509,0.0396
16.7060,-0.4558,0.9509,0.0396
16.7060,-0.4558,0.9509,0.0396
16.7070,-0.4621,0.9529,0.0396
16.7070,-0.4621,0.9529,0.0396
16.7340,-0.4621,0.9529,0.0396
16.7350,-0.4621,0.9529,0.0396
16.7350,-0.4621,0.9529,0.0396
16.7350,-0.4631,0.9495,0.0418
16.7360,-0.4560,0.9490,0.0435
16.7660,-0.4560,0.9490,0.0435
16.7670,-0.4560,0.9490,0.0435
16.7670,-0.4560,0.9490,0.0435
16.7680,-0.4560,0.9490,0.0435
16.7680,-0.4509,0.9514,0.0462
16.7680,-0.4509,0.9514,0.0462
16.7850,-0.4509,0.9514,0.0462
16.7860,-0.4509,0.9514,0.0462
16.7860,-0.4509,0.9514,0.0462
16.7870,-0.4519,0.9553,0.0442
16.7870,-0.4519,0.9553,0.0442
16.8150,-0.4519,0.9553,0.0442
16.8150,-0.4519,0.9553,0.0442
16.8160,-0.4519,0.9553,0.0442
16.8160,-0.4531,0.9563,0.0423
16.8160,-0.4553,0.9524,0.0389
16.8450,-0.4553,0.9524,0.0389
16.8450,-0.4553,0.9524,0.0389
16.8460,-0.4553,0.9524,0.0389
16.8460,-0.4560,0.9561,0.0384
16.8670,-0.4560,0.9561,0.0384
16.8670,-0.4560,0.9561,0.0384
16.8680,-0.4560,0.9561,0.0384
16.8680,-0.4524,0.9556,0.0401
16.8690,-0.4524,0.9556,0.0401
16.8950,-0.4524,0.9556,0.0401
16.8950,-0.4524,0.9556,0.0401
16.8960,-0.4524,0.9556,0.0401
16.8960,-0.4494,0.9543,0.0364
16.8970,-0.4533,0.9514,0.0391
16.9250,-0.4533,0.9514,0.0391
16.9260,-0.4533,0.9514,0.0391
16.9260,-0.4533,0.9514,0.0391
16.9270,-0.4541,0.9531,0.0462
16.9480,-0.4541,0.9531,0.0462
16.9490,-0.4541,0.9531,0.0462
16.9490,-0.4541,0.9531,0.0462
16.9500,-0.4526,0.9546,0.0445
16.9500,-0.4526,0.9546,0.0445
16.9620,-0.4526,0.9546,0.0445
16.9740,-0.4526,0.9546,0.0445
16.9750,-0.4526,0.9546,0.0445
16.9750,-0.4526,0.9546,0.0445
16.9760,-0.4543,0.9526,0.0401
16.9760,-0.4580,0.9556,0.0357
17.0040,-0.4580,0.9556,0.0357
17.0040,-0.4580,0.9556,0.0357
17.0050,-0.4580,0.9556,0.0357
17.0050,-0.4575,0.9507,0.0357
17.0270,-0.4575,0.9507,0.0357
17.0270,-0.4575,0.9507,0.0357
17.0270,-0.4575,0.9507,0.0357
17.0280,-0.4553,0.9473,0.0396
17.0280,-0.4553,0.9473,0.0396
17.0550,-0.4553,0.9473,0.0396
17.0550,-0.4553,0.9473,0.0396
17.0560,-0.4553,0.9473,0.0396
17.0560,-0.4524,0.9504,0.0415
17.0560,-0.4509,0.9485,0.0371
17.0860,-0.4509,0.9485,0.0371
17.0860,-0.4509,0.9485,0.0371
17.0870,-0.4509,0.9485,0.0371
17.1150,-0.4502,0.9495,0.0342
17.1150,-0.4502,0.9495,0.0342
17.1150,-0.4502,0.9495,0.0342
17.1160,-0.4502,0.9495,0.0342
17.1160,-0.4516,0.9531,0.0357
17.1160,-0.4516,0.9531,0.0357
17.1330,-0.4516,0.9531,0.0357
17.1330,-0.4516,0.9531,0.0357
17.1330,-0.4516,0.9531,0.0357
17.1330,-0.4551,0.9526,0.0369
17.1340,-0.4524,0.9551,0.0371
17.1610,-0.4524,0.9551,0.0371
17.1650,-0.4524,0.9551,0.0371
17.1650,-0.4524,0.9551,0.0371
17.1660,-0.4524,0.9551,0.0371
17.1660,-0.4494,0.9529,0.0362
17.1840,-0.4494,0.9529,0.0362
17.1850,-0.4494,0.9529,0.0362
17.1850,-0.4494,0.9529,0.0362
17.1850,-0.4499,0.9519,0.0337
17.1850,-0.4499,0.9519,0.0337
17.2150,-0.4499,0.9519,0.0337
17.2150,-0.4499,0.9519,0.0337
17.2150,-0.4499,0.9519,0.0337
17.2160,-0.4494,0.9551,0.0340
17.2160,-0.4514,0.9568,0.0345
17.2430,-0.4514,0.9568,0.0345
17.2440,-0.4514,0.9568,0.0345
17.2440,-0.4514,0.9568,0.0345
17.2440,-0.4509,0.9568,0.0357
17.2640,-0.4509,0.9568,0.0357
17.2640,-0.4509,0.9568,0.0357
17.2640,-0.4509,0.9568,0.0357
17.2650,-0.4497,0.9546,0.0330
17.2650,-0.4497,0.9546,0.0330
17.2940,-0.4497,0.9546,0.0330
17.2950,-0.4497,0.9546,0.0330
17.2950,-0.4497,0.9546,0.0330
17.2950,-0.4487,0.9553,0.0315
17.2960,-0.4538,0.9536,0.0357
17.3250,-0.4538,0.9536,0.0357
17.3260,-0.4538,0.9536,0.0357
17.3260,-0.4538,0.9536,0.0357
17.3260,-0.4555,0.9548,0.0393
17.3450,-0.4555,0.9548,0.0393
17.3460,-0.4555,0.9548,0.0393
17.3460,-0.4555,0.9548,0.0393
17.3470,-0.4555,0.9531,0.0406
17.3470,-0.4555,0.9531,0.0406
17.3620,-0.4555,0.9531,0.0406
17.3750,-0.4555,0.9531,0.0406
17.3750,-0.4555,0.9531,0.0406
17.3750,-0.4555,0.9531,0.0406
17.3760,-0.4553,0.9512,0.0423
17.3760,-0.4524,0.9551,0.0442
17.4050,-0.4524,0.9551,0.0442
17.4050,-0.4524,0.9551,0.0442
17.4060,-0.4524,0.9551,0.0442
17.4060,-0.4489,0.9524,0.0401
17.4250,-0.4489,0.9524,0.0401
17.4260,-0.4489,0.9524,0.0401
17.4260,-0.4489,0.9524,0.0401
17.4270,-0.4519,0.9487,0.0396
17.4270,-0.4519,0.9487,0.0396
17.4570,-0.4519,0.9487,0.0396
17.4570,-0.4519,0.9487,0.0396
17.4580,-0.4519,0.9487,0.0396
17.4580,-0.4577,0.9517,0.0408
17.4580,-0.4590,0.9504,0.0406
17.4860,-0.4590,0.9504,0.0406
17.4870,-0.4590,0.9504,0.0406
17.4870,-0.4590,0.9504,0.0406
17.4880,-0.4553,0.9524,0.0425
17.5060,-0.4553,0.9524,0.0425
17.5060,-0.4553,0.9524,0.0425
17.5070,-0.4553,0.9524,0.0425
17.5070,-0.4524,0.9546,0.0433
17.5070,-0.4524,0.9546,0.0433
17.5360,-0.4524,0.9546,0.0433
17.5360,-0.4524,0.9546,0.0433
17.5370,-0.4524,0.9546,0.0433
17.5370,-0.4511,0.9556,0.0391
17.5370,-0.4507,0.9583,0.0384
17.5630,-0.4507,0.9583,0.0384
17.5650,-0.4507,0.9583,0.0384
17.5660,-0.4507,0.9583,0.0384
17.5660,-0.4507,0.9583,0.0384
17.5660,-0.4509,0.9553,0.0403
17.5850,-0.4509,0.9553,0.0403
17.5860,-0.4509,0.9553,0.0403
17.5860,-0.4509,0.9553,0.0403
17.5870,-0.4489,0.9521,0.0418
17.5870,-0.4489,0.9521,0.0418
17.6150,-0.4489,0.9521,0.0418
17.6160,-0.4489,0.9521,0.0418
17.6160,-0.4489,0.9521,0.0418
17.6170,-0.4507,0.9536,0.0415
17.6170,-0.4509,0.9534,0.0423
17.6460,-0.4509,0.9534,0.0423
17.6470,-0.4509,0.9534,0.0423
17.6660,-0.4509,0.9534,0.0423
17.6660,-0.4529,0.9551,0.0423
17.6680,-0.4529,0.9551,0.0423
17.6680,-0.4529,0.9551,0.0423
17.6680,-0.4529,0.9551,0.0423
17.6680,-0.4533,0.9541,0.0437
17.6680,-0.4533,0.9541,0.0437
17.6940,-0.4533,0.9541,0.0437
17.6940,-0.4533,0.9541,0.0437
17.6940,-0.4533,0.9541,0.0437
17.6940,-0.4502,0.9556,0.0435
17.6950,-0.4531,0.9553,0.0464
17.7250,-0.4531,0.9553,0.0464
17.7260,-0.4531,0.9553,0.0464
17.7260,-0.4531,0.9553,0.0464
17.7270,-0.4582,0.9558,0.0433
17.7460,-0.4582,0.9558,0.0433
17.7460,-0.4582,0.9558,0.0433
17.7460,-0.4582,0.9558,0.0433
17.7470,-0.4555,0.9558,0.0435
17.7470,-0.4555,0.9558,0.0435
17.7620,-0.4555,0.9558,0.0435
17.7660,-0.4555,0.9558,0.0435
17.7750,-0.4555,0.9558,0.0435
17.7760,-0.4555,0.9558,0.0435
17.7760,-0.4555,0.9558,0.0435
17.7770,-0.4560,0.9531,0.0408
17.7770,-0.4565,0.9521,0.0430
17.8050,-0.4565,0.9521,0.0430
17.8050,-0.4565,0.9521,0.0430
17.8060,-0.4565,0.9521,0.0430
17.8060,-0.4509,0.9492,0.0479
17.8260,-0.4509,0.9492,0.0479
17.8260,-0.4509,0.9492,0.0479
17.8270,-0.4509,0.9492,0.0479
17.8270,-0.4477,0.9499,0.0462
17.8270,-0.4477,0.9499,0.0462
17.8580,-0.4477,0.9499,0.0462
17.8580,-0.4477,0.9499,0.0462
17.8580,-0.4477,0.9499,0.0462
17.8590,-0.4477,0.9502,0.0472
17.8590,-0.4497,0.9551,0.0455
17.8860,-0.4497,0.9551,0.0455
17.8860,-0.4497,0.9551,0.0455
17.8870,-0.4497,0.9551,0.0455
17.8870,-0.4533,0.9573,0.0486
17.9070,-0.4533,0.9573,0.0486
17.9070,-0.4533,0.9573,0.0486
17.9080,-0.4533,0.9573,0.0486
17.9080,-0.4536,0.9578,0.0469
17.9090,-0.4536,0.9578,0.0469
17.9430,-0.4536,0.9578,0.0469
17.9440,-0.4536,0.9578,0.0469
17.9440,-0.4536,0.9578,0.0469
17.9440,-0.4519,0.9556,0.0474
17.9450,-0.4526,0.9575,0.0474
17.9640,-0.4526,0.9575,0.0474
17.9670,-0.4526,0.9575,0.0474
17.9670,-0.4526,0.9575,0.0474
17.9680,-0.4526,0.9575,0.0474
17.9680,-0.4509,0.9583,0.0491
17.9860,-0.4509,0.9583,0.0491
17.9870,-0.4509,0.9583,0.0491
17.9870,-0.4509,0.9583,0.0491
17.9880,-0.4499,0.9546,0.0467
17.9880,-0.4499,0.9546,0.0467
18.0160,-0.4499,0.9546,0.0467
18.0170,-0.4499,0.9546,0.0467
18.0170,-0.4499,0.9546,0.0467
18.0170,-0.4504,0.9558,0.0447
18.0180,-0.4489,0.9602,0.0452
18.0470,-0.4489,0.9602,0.0452
18.0470,-0.4489,0.9602,0.0452
18.0470,-0.4489,0.9602,0.0452
18.0480,-0.4499,0.9583,0.0450
18.0680,-0.4499,0.9583,0.0450
18.0680,-0.4499,0.9583,0.0450
18.0690,-0.4499,0.9583,0.0450
18.0690,-0.4516,0.9492,0.0513
18.0690,-0.4516,0.9492,0.0513
18.0970,-0.4516,0.9492,0.0513
18.0980,-0.4516,0.9492,0.0513
18.0980,-0.4516,0.9492,0.0513
18.0990,-0.4558,0.9487,0.0481
18.0990,-0.4516,0.9460,0.0425
18.1280,-0.4516,0.9460,0.0425
18.1280,-0.4516,0.9460,0.0425
18.1290,-0.4516,0.9460,0.0425
18.1290,-0.4467,0.9473,0.0367
18.1460,-0.4467,0.9473,0.0367
18.1470,-0.4467,0.9473,0.0367
18.1470,-0.4467,0.9473,0.0367
18.1480,-0.4463,0.9482,0.0391
18.1480,-0.4463,0.9482,0.0391
18.1610,-0.4463,0.9482,0.0391
18.1760,-0.4463,0.9482,0.0391
18.1760,-0.4463,0.9482,0.0391
18.1770,-0.4463,0.9482,0.0391
18.1770,-0.4465,0.9504,0.0489
18.1770,-0.4448,0.9521,0.0513
18.2070,-0.4448,0.9521,0.0513
18.2070,-0.4448,0.9521,0.0513
18.2070,-0.4448,0.9521,0.0513
18.2080,-0.4470,0.9539,0.0474
18.2250,-0.4470,0.9539,0.0474
18.2250,-0.4470,0.9539,0.0474
18.2260,-0.4470,0.9539,0.0474
18.2260,-0.4516,0.9558,0.0440
18.2260,-0.4516,0.9558,0.0440
18.2580,-0.4516,0.9558,0.0440
18.2580,-0.4516,0.9558,0.0440
18.2590,-0.4516,0.9558,0.0440
18.2590,-0.4519,0.9548,0.0450
18.2600,-0.4511,0.9568,0.0433
18.2860,-0.4511,0.9568,0.0433
18.2860,-0.4511,0.9568,0.0433
18.2860,-0.4511,0.9568,0.0433
18.2870,-0.4497,0.9578,0.0459
18.3060,-0.4497,0.9578,0.0459
18.3060,-0.4497,0.9578,0.0459
18.3070,-0.4497,0.9578,0.0459
18.3070,-0.4487,0.9519,0.0486
18.3070,-0.4487,0.9519,0.0486
18.3400,-0.4487,0.9519,0.0486
18.3400,-0.4487,0.9519,0.0486
18.3410,-0.4487,0.9519,0.0486
18.3410,-0.4475,0.9514,0.0491
18.3410,-0.4472,0.9539,0.0489
18.3640,-0.4472,0.9539,0.0489
18.3710,-0.4472,0.9539,0.0489
18.3710,-0.4472,0.9539,0.0489
18.3720,-0.4472,0.9539,0.0489
18.3720,-0.4421,0.9565,0.0447
18.3880,-0.4421,0.9565,0.0447
18.3890,-0.4421,0.9565,0.0447
18.3890,-0.4421,0.9565,0.0447
18.3890,-0.4448,0.9492,0.0415
18.3900,-0.4448,0.9492,0.0415
18.4150,-0.4448,0.9492,0.0415
18.4150,-0.4448,0.9492,0.0415
18.4150,-0.4448,0.9492,0.0415
18.4160,-0.4443,0.9492,0.0347
18.4160,-0.4426,0.9558,0.0367
18.4450,-0.4426,0.9558,0.0367
18.4450,-0.4426,0.9558,0.0367
18.4460,-0.4426,0.9558,0.0367
18.4460,-0.4436,0.9580,0.0413
18.4650,-0.4436,0.9580,0.0413
18.4670,-0.4436,0.9580,0.0413
18.4680,-0.4436,0.9580,0.0413
18.4680,-0.4529,0.9627,0.0423
18.4680,-0.4529,0.9627,0.0423
18.4950,-0.4529,0.9627,0.0423
18.4950,-0.4529,0.9627,0.0423
18.4950,-0.4529,0.9627,0.0423
18.4960,-0.4575,0.9749,0.0455
18.4960,-0.4538,0.9636,0.0459
18.5250,-0.4538,0.9636,0.0459
18.5250,-0.4538,0.9636,0.0459
18.5260,-0.4538,0.9636,0.0459
18.5260,-0.4465,0.9455,0.0425
18.5460,-0.4465,0.9455,0.0425
18.5460,-0.4465,0.9455,0.0425
18.5470,-0.4465,0.9455,0.0425
18.5470,-0.4421,0.9453,0.0423
18.5480,-0.4421,0.9453,0.0423
