
time,AccelerometerX,AccelerometerY,AccelerometerZ
0.0170,-0.8265,0.5970,-0.1738
0.0170,-0.8265,0.5970,-0.1738
0.0170,-0.8265,0.5970,-0.1738
0.0170,-0.8319,0.5904,-0.1691
0.0180,-0.8361,0.5785,-0.1769
0.0410,-0.8361,0.5785,-0.1769
0.0410,-0.8361,0.5785,-0.1769
0.0410,-0.8361,0.5785,-0.1769
0.0420,-0.8361,0.5904,-0.1752
0.0420,-0.8361,0.5904,-0.1752
0.0420,-0.8361,0.5904,-0.1752
0.0610,-0.8361,0.5904,-0.1752
0.0610,-0.8361,0.5904,-0.1752
0.0610,-0.8361,0.5904,-0.1752
0.0620,-0.8348,0.5961,-0.1686
0.0910,-0.8348,0.5961,-0.1686
0.0910,-0.8348,0.5961,-0.1686
0.0910,-0.8348,0.5961,-0.1686
0.0920,-0.8251,0.5868,-0.1647
0.0920,-0.8219,0.5816,-0.1669
0.1100,-0.8219,0.5816,-0.1669
0.1110,-0.8219,0.5816,-0.1669
0.1120,-0.8219,0.5816,-0.1669
0.1120,-0.8275,0.5885,-0.1757
0.1130,-0.8275,0.5885,-0.1757
0.1400,-0.8275,0.5885,-0.1757
0.1410,-0.8275,0.5885,-0.1757
0.1410,-0.8275,0.5885,-0.1757
0.1410,-0.8383,0.5868,-0.1750
0.1710,-0.8383,0.5868,-0.1750
0.1720,-0.8383,0.5868,-0.1750
0.1720,-0.8383,0.5868,-0.1750
0.1720,-0.8405,0.5824,-0.1735
0.1720,-0.8321,0.5782,-0.1784
0.1910,-0.8321,0.5782,-0.1784
0.1910,-0.8321,0.5782,-0.1784
0.1910,-0.8321,0.5782,-0.1784
0.1920,-0.8295,0.5843,-0.1804
0.1920,-0.8295,0.5843,-0.1804
0.2200,-0.8295,0.5843,-0.1804
0.2210,-0.8295,0.5843,-0.1804
0.2210,-0.8295,0.5843,-0.1804
0.2210,-0.8302,0.5799,-0.1782
0.2420,-0.8302,0.5799,-0.1782
0.2510,-0.8302,0.5799,-0.1782
0.2510,-0.8302,0.5799,-0.1782
0.2510,-0.8302,0.5799,-0.1782
0.2520,-0.8361,0.5829,-0.1794
0.2520,-0.8419,0.5814,-0.1828
0.2710,-0.8419,0.5814,-0.1828
0.2720,-0.8419,0.5814,-0.1828
0.2720,-0.8419,0.5814,-0.1828
0.2730,-0.8456,0.5790,-0.1777
0.2730,-0.8456,0.5790,-0.1777
0.3000,-0.8456,0.5790,-0.1777
0.3000,-0.8456,0.5790,-0.1777
0.3010,-0.8456,0.5790,-0.1777
0.3010,-0.8434,0.5785,-0.1782
0.3310,-0.8434,0.5785,-0.1782
0.3320,-0.8434,0.5785,-0.1782
0.3320,-0.8434,0.5785,-0.1782
0.3330,-0.8336,0.5785,-0.1848
0.3330,-0.8229,0.5741,-0.1762
0.3510,-0.8229,0.5741,-0.1762
0.3520,-0.8229,0.5741,-0.1762
0.3520,-0.8229,0.5741,-0.1762
0.3520,-0.8216,0.5790,-0.1889
0.3530,-0.8216,0.5790,-0.1889
0.3810,-0.8216,0.5790,-0.1889
0.3810,-0.8216,0.5790,-0.1889
0.3820,-0.8216,0.5790,-0.1889
0.3820,-0.8287,0.5880,-0.2031
0.4110,-0.8287,0.5880,-0.2031
0.4110,-0.8287,0.5880,-0.2031
0.4110,-0.8287,0.5880,-0.2031
0.4120,-0.8312,0.5785,-0.1923
0.4120,-0.8331,0.5711,-0.1730
0.4310,-0.8331,0.5711,-0.1730
0.4320,-0.8331,0.5711,-0.1730
0.4330,-0.8331,0.5711,-0.1730
0.4330,-0.8346,0.5792,-0.1684
0.4330,-0.8346,0.5792,-0.1684
0.4420,-0.8346,0.5792,-0.1684
0.4620,-0.8346,0.5792,-0.1684
0.4620,-0.8346,0.5792,-0.1684
0.4630,-0.8346,0.5792,-0.1684
0.4630,-0.8358,0.5882,-0.1830
0.4910,-0.8358,0.5882,-0.1830
0.4920,-0.8358,0.5882,-0.1830
0.4920,-0.8358,0.5882,-0.1830
0.4920,-0.8431,0.5878,-0.1840
0.4930,-0.8483,0.5834,-0.1791
0.5110,-0.8483,0.5834,-0.1791
0.5130,-0.8483,0.5834,-0.1791
0.5130,-0.8483,0.5834,-0.1791
0.5140,-0.8451,0.5826,-0.1855
0.5140,-0.8451,0.5826,-0.1855
0.5410,-0.8451,0.5826,-0.1855
0.5420,-0.8451,0.5826,-0.1855
0.5420,-0.8451,0.5826,-0.1855
0.5420,-0.8400,0.5790,-0.1926
0.5710,-0.8400,0.5790,-0.1926
0.5720,-0.8400,0.5790,-0.1926
0.5720,-0.8400,0.5790,-0.1926
0.5720,-0.8307,0.5768,-0.1926
0.5730,-0.8241,0.5780,-0.1921
0.5920,-0.8241,0.5780,-0.1921
0.5920,-0.8241,0.5780,-0.1921
0.5920,-0.8241,0.5780,-0.1921
0.5930,-0.8204,0.5824,-0.1892
0.5930,-0.8204,0.5824,-0.1892
0.6210,-0.8204,0.5824,-0.1892
0.6210,-0.8204,0.5824,-0.1892
0.6220,-0.8204,0.5824,-0.1892
0.6220,-0.8277,0.5882,-0.1967
0.6420,-0.8277,0.5882,-0.1967
0.6510,-0.8277,0.5882,-0.1967
0.6510,-0.8277,0.5882,-0.1967
0.6520,-0.8277,0.5882,-0.1967
0.6530,-0.8326,0.5887,-0.1894
0.6530,-0.8304,0.5816,-0.1794
0.6720,-0.8304,0.5816,-0.1794
0.6740,-0.8304,0.5816,-0.1794
0.6740,-0.8304,0.5816,-0.1794
0.6740,-0.8299,0.5829,-0.1860
0.6750,-0.8299,0.5829,-0.1860
0.7010,-0.8299,0.5829,-0.1860
0.7020,-0.8299,0.5829,-0.1860
0.7020,-0.8299,0.5829,-0.1860
0.7050,-0.8329,0.5858,-0.1928
0.7310,-0.8329,0.5858,-0.1928
0.7320,-0.8329,0.5858,-0.1928
0.7320,-0.8329,0.5858,-0.1928
0.7330,-0.8375,0.5863,-0.1872
0.7450,-0.8378,0.5887,-0.1818
0.7510,-0.8378,0.5887,-0.1818
0.7520,-0.8378,0.5887,-0.1818
0.7520,-0.8378,0.5887,-0.1818
0.7520,-0.8341,0.5863,-0.1747
0.7530,-0.8341,0.5863,-0.1747
0.7800,-0.8341,0.5863,-0.1747
0.7810,-0.8341,0.5863,-0.1747
0.7810,-0.8341,0.5863,-0.1747
0.7810,-0.8297,0.5868,-0.1777
0.8110,-0.8297,0.5868,-0.1777
0.8110,-0.8297,0.5868,-0.1777
0.8130,-0.8297,0.5868,-0.1777
0.8140,-0.8273,0.5812,-0.1816
0.8140,-0.8221,0.5809,-0.1855
0.8310,-0.8221,0.5809,-0.1855
0.8320,-0.8221,0.5809,-0.1855
0.8320,-0.8221,0.5809,-0.1855
0.8320,-0.8260,0.5863,-0.1901
0.8320,-0.8260,0.5863,-0.1901
0.8410,-0.8260,0.5863,-0.1901
0.8620,-0.8260,0.5863,-0.1901
0.8620,-0.8260,0.5863,-0.1901
0.8620,-0.8260,0.5863,-0.1901
0.8630,-0.8346,0.5897,-0.1818
0.8910,-0.8346,0.5897,-0.1818
0.8920,-0.8346,0.5897,-0.1818
0.8920,-0.8346,0.5897,-0.1818
0.8920,-0.8363,0.5922,-0.1762
0.8930,-0.8346,0.5892,-0.1752
0.9110,-0.8346,0.5892,-0.1752
0.9120,-0.8346,0.5892,-0.1752
0.9120,-0.8346,0.5892,-0.1752
0.9130,-0.8238,0.5834,-0.1821
0.9130,-0.8238,0.5834,-0.1821
0.9410,-0.8238,0.5834,-0.1821
0.9420,-0.8238,0.5834,-0.1821
0.9420,-0.8238,0.5834,-0.1821
0.9430,-0.8146,0.5843,-0.1796
0.9720,-0.8146,0.5843,-0.1796
0.9730,-0.8146,0.5843,-0.1796
0.9730,-0.8146,0.5843,-0.1796
0.9730,-0.8182,0.5900,-0.1828
0.9740,-0.8280,0.5926,-0.1728
0.9920,-0.8280,0.5926,-0.1728
0.9920,-0.8280,0.5926,-0.1728
0.9930,-0.8280,0.5926,-0.1728
0.9940,-0.8444,0.5917,-0.1728
0.9940,-0.8444,0.5917,-0.1728
1.0220,-0.8444,0.5917,-0.1728
1.0220,-0.8444,0.5917,-0.1728
1.0230,-0.8444,0.5917,-0.1728
1.0240,-0.8497,0.5875,-0.1774
1.0410,-0.8497,0.5875,-0.1774
1.0520,-0.8497,0.5875,-0.1774
1.0520,-0.8497,0.5875,-0.1774
1.0530,-0.8497,0.5875,-0.1774
1.0530,-0.8473,0.5880,-0.1877
1.0530,-0.8348,0.5851,-0.1806
1.0730,-0.8348,0.5851,-0.1806
1.0730,-0.8348,0.5851,-0.1806
1.0730,-0.8348,0.5851,-0.1806
1.0740,-0.8207,0.5819,-0.1784
1.0740,-0.8207,0.5819,-0.1784
1.1020,-0.8207,0.5819,-0.1784
1.1030,-0.8207,0.5819,-0.1784
1.1030,-0.8207,0.5819,-0.1784
1.1030,-0.8168,0.5848,-0.1874
1.1320,-0.8168,0.5848,-0.1874
1.1330,-0.8168,0.5848,-0.1874
1.1330,-0.8168,0.5848,-0.1874
1.1330,-0.8175,0.5929,-0.2004
1.1340,-0.8273,0.5975,-0.1936
1.1530,-0.8273,0.5975,-0.1936
1.1530,-0.8273,0.5975,-0.1936
1.1540,-0.8273,0.5975,-0.1936
1.1540,-0.8422,0.5953,-0.1816
1.1540,-0.8422,0.5953,-0.1816
1.1830,-0.8422,0.5953,-0.1816
1.1830,-0.8422,0.5953,-0.1816
1.1830,-0.8422,0.5953,-0.1816
1.1840,-0.8456,0.5865,-0.1674
1.2140,-0.8456,0.5865,-0.1674
1.2140,-0.8456,0.5865,-0.1674
1.2140,-0.8456,0.5865,-0.1674
1.2150,-0.8407,0.5804,-0.1635
1.2150,-0.8375,0.5794,-0.1669
1.2340,-0.8375,0.5794,-0.1669
1.2340,-0.8375,0.5794,-0.1669
1.2340,-0.8375,0.5794,-0.1669
1.2350,-0.8329,0.5772,-0.1681
1.2360,-0.8329,0.5772,-0.1681
1.2430,-0.8329,0.5772,-0.1681
1.2640,-0.8329,0.5772,-0.1681
1.2640,-0.8329,0.5772,-0.1681
1.2640,-0.8329,0.5772,-0.1681
1.2680,-0.8312,0.5748,-0.1782
1.2930,-0.8312,0.5748,-0.1782
1.2940,-0.8312,0.5748,-0.1782
1.2940,-0.8312,0.5748,-0.1782
1.3050,-0.8309,0.5777,-0.1916
1.3050,-0.8273,0.5792,-0.1887
1.3130,-0.8273,0.5792,-0.1887
1.3140,-0.8273,0.5792,-0.1887
1.3140,-0.8273,0.5792,-0.1887
1.3150,-0.8236,0.5750,-0.1791
1.3160,-0.8236,0.5750,-0.1791
1.3440,-0.8236,0.5750,-0.1791
1.3450,-0.8236,0.5750,-0.1791
1.3450,-0.8236,0.5750,-0.1791
1.3450,-0.8211,0.5812,-0.1811
1.3740,-0.8211,0.5812,-0.1811
1.3750,-0.8211,0.5812,-0.1811
1.3750,-0.8211,0.5812,-0.1811
1.3750,-0.8238,0.5944,-0.1926
1.3760,-0.8304,0.5966,-0.1904
1.3940,-0.8304,0.5966,-0.1904
1.3940,-0.8304,0.5966,-0.1904
1.3950,-0.8304,0.5966,-0.1904
1.3960,-0.8373,0.5946,-0.1782
1.3970,-0.8373,0.5946,-0.1782
1.4270,-0.8373,0.5946,-0.1782
1.4270,-0.8373,0.5946,-0.1782
1.4280,-0.8373,0.5946,-0.1782
1.4280,-0.8351,0.5904,-0.1708
1.4450,-0.8351,0.5904,-0.1708
1.4550,-0.8351,0.5904,-0.1708
1.4550,-0.8351,0.5904,-0.1708
1.4560,-0.8351,0.5904,-0.1708
1.4560,-0.8231,0.5904,-0.1669
1.4560,-0.8197,0.5912,-0.1774
1.4750,-0.8197,0.5912,-0.1774
1.4750,-0.8197,0.5912,-0.1774
1.4750,-0.8197,0.5912,-0.1774
1.4760,-0.8268,0.5892,-0.1723
1.4760,-0.8268,0.5892,-0.1723
1.5050,-0.8268,0.5892,-0.1723
1.5050,-0.8268,0.5892,-0.1723
1.5060,-0.8268,0.5892,-0.1723
1.5060,-0.8378,0.5836,-0.1667
1.5350,-0.8378,0.5836,-0.1667
1.5360,-0.8378,0.5836,-0.1667
1.5360,-0.8378,0.5836,-0.1667
1.5370,-0.8468,0.5780,-0.1593
1.5370,-0.8471,0.5768,-0.1589
1.5540,-0.8471,0.5768,-0.1589
1.5550,-0.8471,0.5768,-0.1589
1.5550,-0.8471,0.5768,-0.1589
1.5560,-0.8405,0.5804,-0.1755
1.5560,-0.8405,0.5804,-0.1755
1.5830,-0.8405,0.5804,-0.1755
1.5840,-0.8405,0.5804,-0.1755
1.5850,-0.8405,0.5804,-0.1755
1.5850,-0.8375,0.5834,-0.1838
1.6140,-0.8375,0.5834,-0.1838
1.6140,-0.8375,0.5834,-0.1838
1.6140,-0.8375,0.5834,-0.1838
1.6150,-0.8336,0.5870,-0.1694
1.6150,-0.8285,0.5912,-0.1586
1.6340,-0.8285,0.5912,-0.1586
1.6340,-0.8285,0.5912,-0.1586
1.6350,-0.8285,0.5912,-0.1586
1.6370,-0.8216,0.5988,-0.1677
1.6380,-0.8216,0.5988,-0.1677
1.6430,-0.8216,0.5988,-0.1677
1.6640,-0.8216,0.5988,-0.1677
1.6650,-0.8216,0.5988,-0.1677
1.6660,-0.8216,0.5988,-0.1677
1.6670,-0.8219,0.6005,-0.1845
1.6940,-0.8219,0.6005,-0.1845
1.6950,-0.8219,0.6005,-0.1845
1.6960,-0.8219,0.6005,-0.1845
1.6970,-0.8241,0.5914,-0.1894
1.6980,-0.8275,0.5909,-0.1772
1.7160,-0.8275,0.5909,-0.1772
1.7170,-0.8275,0.5909,-0.1772
1.7180,-0.8275,0.5909,-0.1772
1.7190,-0.8307,0.5988,-0.1735
1.7200,-0.8307,0.5988,-0.1735
1.7470,-0.8307,0.5988,-0.1735
1.7500,-0.8307,0.5988,-0.1735
1.7510,-0.8307,0.5988,-0.1735
1.7520,-0.8304,0.6019,-0.1762
1.7750,-0.8304,0.6019,-0.1762
1.7770,-0.8304,0.6019,-0.1762
1.7770,-0.8304,0.6019,-0.1762
1.7780,-0.8282,0.5939,-0.1742
1.7790,-0.8251,0.5880,-0.1664
1.7950,-0.8251,0.5880,-0.1664
1.7970,-0.8251,0.5880,-0.1664
1.7970,-0.8251,0.5880,-0.1664
1.7980,-0.8243,0.5882,-0.1633
1.8000,-0.8243,0.5882,-0.1633
1.8260,-0.8243,0.5882,-0.1633
1.8310,-0.8243,0.5882,-0.1633
1.8320,-0.8243,0.5882,-0.1633
1.8330,-0.8268,0.5924,-0.1799
1.8460,-0.8268,0.5924,-0.1799
1.8470,-0.8268,0.5924,-0.1799
1.8560,-0.8268,0.5924,-0.1799
1.8970,-0.8268,0.5924,-0.1799
1.8980,-0.8268,0.5924,-0.1799
1.8980,-0.8287,0.5953,-0.1872
1.8990,-0.8304,0.5941,-0.1750
1.9000,-0.8304,0.5941,-0.1750
1.9000,-0.8304,0.5941,-0.1750
1.9010,-0.8304,0.5941,-0.1750
1.9020,-0.8263,0.5904,-0.1708
1.9020,-0.8263,0.5904,-0.1708
1.9070,-0.8263,0.5904,-0.1708
1.9080,-0.8263,0.5904,-0.1708
1.9080,-0.8263,0.5904,-0.1708
1.9090,-0.8177,0.5907,-0.1721
1.9340,-0.8177,0.5907,-0.1721
1.9350,-0.8177,0.5907,-0.1721
1.9350,-0.8177,0.5907,-0.1721
1.9350,-0.8231,0.5907,-0.1794
1.9360,-0.8304,0.5904,-0.1735
1.9540,-0.8304,0.5904,-0.1735
1.9550,-0.8304,0.5904,-0.1735
1.9550,-0.8304,0.5904,-0.1735
1.9580,-0.8275,0.5897,-0.1684
1.9600,-0.8275,0.5897,-0.1684
1.9860,-0.8275,0.5897,-0.1684
1.9870,-0.8275,0.5897,-0.1684
1.9880,-0.8275,0.5897,-0.1684
1.9890,-0.8231,0.5890,-0.1721
2.0150,-0.8231,0.5890,-0.1721
2.0160,-0.8231,0.5890,-0.1721
2.0170,-0.8231,0.5890,-0.1721
2.0180,-0.8273,0.5924,-0.1838
2.0180,-0.8351,0.5963,-0.1982
2.0350,-0.8351,0.5963,-0.1982
2.0360,-0.8351,0.5963,-0.1982
2.0370,-0.8351,0.5963,-0.1982
2.1520,-0.8375,0.5988,-0.1848
2.1530,-0.8375,0.5988,-0.1848
2.1590,-0.8375,0.5988,-0.1848
2.1610,-0.8375,0.5988,-0.1848
2.1620,-0.8375,0.5988,-0.1848
2.1630,-0.8375,0.5988,-0.1848
2.1640,-0.8375,0.5988,-0.1848
2.1650,-0.8375,0.5988,-0.1848
2.1660,-0.8375,0.5988,-0.1848
2.1670,-0.8375,0.5988,-0.1848
2.1680,-0.8375,0.5988,-0.1848
2.1690,-0.8375,0.5988,-0.1848
2.1700,-0.8375,0.5988,-0.1848
2.1710,-0.8375,0.5988,-0.1848
2.1710,-0.8375,0.5988,-0.1848
2.1720,-0.8375,0.5988,-0.1848
2.1730,-0.8334,0.5912,-0.1652
2.1740,-0.8143,0.5890,-0.1603
2.1750,-0.8082,0.5900,-0.1828
2.1760,-0.8131,0.5897,-0.2031
2.1770,-0.8280,0.5946,-0.2043
2.1770,-0.8422,0.5961,-0.1882
2.1780,-0.8422,0.5961,-0.1882
2.1870,-0.8422,0.5961,-0.1882
2.1880,-0.8422,0.5961,-0.1882
2.1890,-0.8422,0.5961,-0.1882
2.1900,-0.8463,0.5966,-0.1774
2.2070,-0.8463,0.5966,-0.1774
2.2080,-0.8463,0.5966,-0.1774
2.2080,-0.8463,0.5966,-0.1774
2.2090,-0.8319,0.5963,-0.1821
2.2090,-0.8319,0.5963,-0.1821
2.2330,-0.8319,0.5963,-0.1821
2.2330,-0.8319,0.5963,-0.1821
2.2330,-0.8319,0.5963,-0.1821
2.2340,-0.8202,0.5978,-0.1879
2.2340,-0.8214,0.5970,-0.1791
2.2420,-0.8214,0.5970,-0.1791
2.2430,-0.8214,0.5970,-0.1791
2.2690,-0.8214,0.5970,-0.1791
2.2710,-0.8214,0.5970,-0.1791
2.2720,-0.8214,0.5970,-0.1791
2.2730,-0.8358,0.6000,-0.1818
2.2870,-0.8358,0.6000,-0.1818
2.2890,-0.8358,0.6000,-0.1818
2.2900,-0.8358,0.6000,-0.1818
2.2910,-0.8493,0.5961,-0.1877
2.2920,-0.8493,0.5961,-0.1877
2.3150,-0.8493,0.5961,-0.1877
2.3160,-0.8493,0.5961,-0.1877
2.3170,-0.8493,0.5961,-0.1877
2.3180,-0.8471,0.5885,-0.1855
2.3190,-0.8287,0.5736,-0.1801
2.3470,-0.8287,0.5736,-0.1801
2.3480,-0.8287,0.5736,-0.1801
2.3490,-0.8287,0.5736,-0.1801
2.3490,-0.8062,0.5694,-0.1794
2.3680,-0.8062,0.5694,-0.1794
2.3690,-0.8062,0.5694,-0.1794
2.3700,-0.8062,0.5694,-0.1794
2.3710,-0.8089,0.5743,-0.1906
2.3720,-0.8089,0.5743,-0.1906
2.3960,-0.8089,0.5743,-0.1906
2.3970,-0.8089,0.5743,-0.1906
2.3980,-0.8089,0.5743,-0.1906
2.4260,-0.8251,0.5841,-0.1997
2.4270,-0.8395,0.5863,-0.1877
2.4300,-0.8395,0.5863,-0.1877
2.4300,-0.8395,0.5863,-0.1877
2.4310,-0.8395,0.5863,-0.1877
2.4310,-0.8373,0.5873,-0.1769
2.4430,-0.8373,0.5873,-0.1769
2.4440,-0.8373,0.5873,-0.1769
2.4440,-0.8373,0.5873,-0.1769
2.4450,-0.8373,0.5873,-0.1769
2.4450,-0.8373,0.5873,-0.1769
2.4470,-0.8287,0.5926,-0.1711
2.4470,-0.8287,0.5926,-0.1711
2.4760,-0.8287,0.5926,-0.1711
2.4760,-0.8287,0.5926,-0.1711
2.4770,-0.8287,0.5926,-0.1711
2.4780,-0.8302,0.5990,-0.1840
2.4780,-0.8361,0.6002,-0.1865
2.5060,-0.8361,0.6002,-0.1865
2.5090,-0.8361,0.6002,-0.1865
2.5100,-0.8361,0.6002,-0.1865
2.5110,-0.8363,0.5924,-0.1752
2.5260,-0.8363,0.5924,-0.1752
2.5270,-0.8363,0.5924,-0.1752
2.5280,-0.8363,0.5924,-0.1752
2.5280,-0.8265,0.5821,-0.1796
2.5290,-0.8265,0.5821,-0.1796
2.5560,-0.8265,0.5821,-0.1796
2.5570,-0.8265,0.5821,-0.1796
2.5570,-0.8265,0.5821,-0.1796
2.5580,-0.8126,0.5772,-0.1843
2.5590,-0.8136,0.5785,-0.1811
2.5890,-0.8136,0.5785,-0.1811
2.5910,-0.8136,0.5785,-0.1811
2.5920,-0.8136,0.5785,-0.1811
2.5930,-0.8273,0.5826,-0.1862
2.6110,-0.8273,0.5826,-0.1862
2.6120,-0.8273,0.5826,-0.1862
2.6130,-0.8273,0.5826,-0.1862
2.6140,-0.8383,0.5807,-0.1677
2.6150,-0.8383,0.5807,-0.1677
2.6380,-0.8383,0.5807,-0.1677
2.6390,-0.8383,0.5807,-0.1677
2.6400,-0.8383,0.5807,-0.1677
2.6410,-0.8304,0.5799,-0.1584
2.6420,-0.8241,0.5873,-0.1904
2.6440,-0.8241,0.5873,-0.1904
2.6700,-0.8241,0.5873,-0.1904
2.6710,-0.8241,0.5873,-0.1904
2.6720,-0.8241,0.5873,-0.1904
2.6720,-0.8314,0.5941,-0.2053
2.6900,-0.8314,0.5941,-0.2053
2.6910,-0.8314,0.5941,-0.2053
2.6920,-0.8314,0.5941,-0.2053
2.6930,-0.8524,0.5948,-0.1980
2.6940,-0.8524,0.5948,-0.1980
2.7170,-0.8524,0.5948,-0.1980
2.7180,-0.8524,0.5948,-0.1980
2.7200,-0.8524,0.5948,-0.1980
2.7200,-0.8519,0.5878,-0.1762
2.7210,-0.8265,0.5826,-0.1757
2.7520,-0.8265,0.5826,-0.1757
2.7530,-0.8265,0.5826,-0.1757
2.7570,-0.8265,0.5826,-0.1757
2.7570,-0.8124,0.5868,-0.1923
2.7690,-0.8124,0.5868,-0.1923
2.7710,-0.8124,0.5868,-0.1923
2.7720,-0.8124,0.5868,-0.1923
2.7720,-0.8207,0.5885,-0.1960
2.7740,-0.8207,0.5885,-0.1960
2.7970,-0.8207,0.5885,-0.1960
2.7980,-0.8207,0.5885,-0.1960
2.7990,-0.8207,0.5885,-0.1960
2.7990,-0.8346,0.5878,-0.1980
2.8000,-0.8378,0.5848,-0.1918
2.8290,-0.8378,0.5848,-0.1918
2.8330,-0.8378,0.5848,-0.1918
2.8350,-0.8378,0.5848,-0.1918
2.8350,-0.8353,0.5836,-0.1806
2.8490,-0.8353,0.5836,-0.1806
2.8500,-0.8353,0.5836,-0.1806
2.8510,-0.8353,0.5836,-0.1806
2.8520,-0.8353,0.5836,-0.1806
2.8520,-0.8324,0.5878,-0.1652
2.8530,-0.8324,0.5878,-0.1652
2.8780,-0.8324,0.5878,-0.1652
2.8790,-0.8324,0.5878,-0.1652
2.8800,-0.8324,0.5878,-0.1652
2.8810,-0.8295,0.5897,-0.1703
2.8820,-0.8321,0.5875,-0.1762
2.9090,-0.8321,0.5875,-0.1762
2.9100,-0.8321,0.5875,-0.1762
2.9110,-0.8321,0.5875,-0.1762
2.9120,-0.8321,0.5848,-0.1806
2.9290,-0.8321,0.5848,-0.1806
2.9300,-0.8321,0.5848,-0.1806
2.9320,-0.8321,0.5848,-0.1806
2.9320,-0.8277,0.5848,-0.1840
2.9340,-0.8277,0.5848,-0.1840
2.9580,-0.8277,0.5848,-0.1840
2.9810,-0.8277,0.5848,-0.1840
2.9810,-0.8277,0.5848,-0.1840
2.9820,-0.8324,0.5843,-0.1894
2.9830,-0.8378,0.5868,-0.1896
2.9870,-0.8378,0.5868,-0.1896
2.9880,-0.8378,0.5868,-0.1896
2.9880,-0.8378,0.5868,-0.1896
2.9890,-0.8361,0.5878,-0.1901
3.0070,-0.8361,0.5878,-0.1901
3.0070,-0.8361,0.5878,-0.1901
3.0080,-0.8361,0.5878,-0.1901
3.0080,-0.8326,0.5851,-0.1843
3.0090,-0.8326,0.5851,-0.1843
3.0360,-0.8326,0.5851,-0.1843
3.0370,-0.8326,0.5851,-0.1843
3.0380,-0.8326,0.5851,-0.1843
3.0390,-0.8326,0.5897,-0.1767
3.0410,-0.8287,0.5912,-0.1708
3.0420,-0.8287,0.5912,-0.1708
3.0660,-0.8287,0.5912,-0.1708
3.0670,-0.8287,0.5912,-0.1708
3.0680,-0.8287,0.5912,-0.1708
3.0680,-0.8233,0.5907,-0.1735
3.0910,-0.8233,0.5907,-0.1735
3.0920,-0.8233,0.5907,-0.1735
3.0930,-0.8233,0.5907,-0.1735
3.0940,-0.8202,0.5829,-0.1708
3.0950,-0.8202,0.5829,-0.1708
3.1180,-0.8202,0.5829,-0.1708
3.1190,-0.8202,0.5829,-0.1708
3.1200,-0.8202,0.5829,-0.1708
3.1210,-0.8211,0.5853,-0.1782
3.1220,-0.8287,0.5887,-0.1887
3.1490,-0.8287,0.5887,-0.1887
3.1500,-0.8287,0.5887,-0.1887
3.1510,-0.8287,0.5887,-0.1887
3.1520,-0.8299,0.5922,-0.1982
3.1720,-0.8299,0.5922,-0.1982
3.1740,-0.8299,0.5922,-0.1982
3.1750,-0.8299,0.5922,-0.1982
3.1750,-0.8373,0.5907,-0.1904
3.1770,-0.8373,0.5907,-0.1904
3.1980,-0.8373,0.5907,-0.1904
3.1990,-0.8373,0.5907,-0.1904
3.2000,-0.8373,0.5907,-0.1904
3.2010,-0.8392,0.5846,-0.1750
3.2020,-0.8314,0.5802,-0.1728
3.2310,-0.8314,0.5802,-0.1728
3.2320,-0.8314,0.5802,-0.1728
3.2330,-0.8314,0.5802,-0.1728
3.2340,-0.8187,0.5860,-0.1914
3.2500,-0.8187,0.5860,-0.1914
3.2510,-0.8187,0.5860,-0.1914
3.2520,-0.8187,0.5860,-0.1914
3.2530,-0.8187,0.5860,-0.1914
3.2540,-0.8187,0.5860,-0.1914
3.2550,-0.8219,0.5882,-0.1899
3.2560,-0.8219,0.5882,-0.1899
3.2780,-0.8219,0.5882,-0.1899
3.2790,-0.8219,0.5882,-0.1899
3.2800,-0.8219,0.5882,-0.1899
3.2810,-0.8287,0.5892,-0.1840
3.2820,-0.8319,0.5939,-0.1899
3.3100,-0.8319,0.5939,-0.1899
3.3110,-0.8319,0.5939,-0.1899
3.3120,-0.8319,0.5939,-0.1899
3.3130,-0.8358,0.5934,-0.1874
3.3310,-0.8358,0.5934,-0.1874
3.3320,-0.8358,0.5934,-0.1874
3.3320,-0.8358,0.5934,-0.1874
3.3330,-0.8375,0.5990,-0.1730
3.3340,-0.8375,0.5990,-0.1730
3.3590,-0.8375,0.5990,-0.1730
3.3600,-0.8375,0.5990,-0.1730
3.3610,-0.8375,0.5990,-0.1730
3.3610,-0.8351,0.5931,-0.1664
3.3620,-0.8295,0.5856,-0.1691
3.3890,-0.8295,0.5856,-0.1691
3.3900,-0.8295,0.5856,-0.1691
3.3910,-0.8295,0.5856,-0.1691
3.3920,-0.8243,0.5868,-0.1811
3.4090,-0.8243,0.5868,-0.1811
3.4120,-0.8243,0.5868,-0.1811
3.4130,-0.8243,0.5868,-0.1811
3.4140,-0.8221,0.5875,-0.1840
3.4150,-0.8221,0.5875,-0.1840
3.4380,-0.8221,0.5875,-0.1840
3.4390,-0.8221,0.5875,-0.1840
3.4400,-0.8221,0.5875,-0.1840
3.4410,-0.8209,0.5824,-0.1865
3.4420,-0.8273,0.5853,-0.1892
3.4430,-0.8273,0.5853,-0.1892
3.4710,-0.8273,0.5853,-0.1892
3.4730,-0.8273,0.5853,-0.1892
3.4740,-0.8273,0.5853,-0.1892
3.4750,-0.8358,0.5963,-0.1940
3.4890,-0.8358,0.5963,-0.1940
3.4900,-0.8358,0.5963,-0.1940
3.4920,-0.8358,0.5963,-0.1940
3.4930,-0.8353,0.5975,-0.1931
3.5210,-0.8353,0.5975,-0.1931
3.5220,-0.8353,0.5975,-0.1931
3.5220,-0.8353,0.5975,-0.1931
3.5230,-0.8353,0.5975,-0.1931
3.5230,-0.8290,0.5948,-0.1786
3.5240,-0.8243,0.5904,-0.1747
3.5460,-0.8243,0.5904,-0.1747
3.5470,-0.8243,0.5904,-0.1747
3.5470,-0.8243,0.5904,-0.1747
3.5480,-0.8251,0.5900,-0.1801
3.5670,-0.8251,0.5900,-0.1801
3.5680,-0.8251,0.5900,-0.1801
3.5680,-0.8251,0.5900,-0.1801
3.5690,-0.8282,0.5887,-0.1867
3.5710,-0.8282,0.5887,-0.1867
3.5970,-0.8282,0.5887,-0.1867
3.5980,-0.8282,0.5887,-0.1867
3.5990,-0.8282,0.5887,-0.1867
3.6000,-0.8312,0.5868,-0.1862
3.6010,-0.8309,0.5858,-0.1852
3.6260,-0.8309,0.5858,-0.1852
3.6270,-0.8309,0.5858,-0.1852
3.6280,-0.8309,0.5858,-0.1852
3.6290,-0.8268,0.5912,-0.1904
3.6440,-0.8268,0.5912,-0.1904
3.6470,-0.8268,0.5912,-0.1904
3.6480,-0.8268,0.5912,-0.1904
3.6490,-0.8268,0.5912,-0.1904
3.6500,-0.8229,0.5880,-0.1826
3.6510,-0.8229,0.5880,-0.1826
3.6770,-0.8229,0.5880,-0.1826
3.6780,-0.8229,0.5880,-0.1826
3.6790,-0.8229,0.5880,-0.1826
3.6800,-0.8202,0.5763,-0.1782
3.6810,-0.8233,0.5802,-0.1855
3.7070,-0.8233,0.5802,-0.1855
3.7080,-0.8233,0.5802,-0.1855
3.7080,-0.8233,0.5802,-0.1855
3.7090,-0.8295,0.5865,-0.1884
3.7300,-0.8295,0.5865,-0.1884
3.7310,-0.8295,0.5865,-0.1884
3.7320,-0.8295,0.5865,-0.1884
3.7320,-0.8304,0.5897,-0.1808
3.7370,-0.8304,0.5897,-0.1808
3.7580,-0.8304,0.5897,-0.1808
3.7580,-0.8304,0.5897,-0.1808
3.7590,-0.8304,0.5897,-0.1808
3.7600,-0.8351,0.6002,-0.1818
3.7610,-0.8380,0.6000,-0.1740
3.7900,-0.8380,0.6000,-0.1740
3.7900,-0.8380,0.6000,-0.1740
3.7910,-0.8380,0.6000,-0.1740
3.7910,-0.8375,0.5922,-0.1738
3.8080,-0.8375,0.5922,-0.1738
3.8100,-0.8375,0.5922,-0.1738
3.8100,-0.8375,0.5922,-0.1738
3.8110,-0.8348,0.5848,-0.1742
3.8120,-0.8348,0.5848,-0.1742
3.8410,-0.8348,0.5848,-0.1742
3.8420,-0.8348,0.5848,-0.1742
3.8430,-0.8348,0.5848,-0.1742
3.8440,-0.8307,0.5841,-0.1664
3.8450,-0.8295,0.5885,-0.1708
3.8450,-0.8295,0.5885,-0.1708
3.8460,-0.8295,0.5885,-0.1708
3.8670,-0.8295,0.5885,-0.1708
3.8680,-0.8295,0.5885,-0.1708
3.8690,-0.8295,0.5885,-0.1708
3.8710,-0.8304,0.5892,-0.1835
3.8890,-0.8304,0.5892,-0.1835
3.8900,-0.8304,0.5892,-0.1835
3.8910,-0.8304,0.5892,-0.1835
3.8920,-0.8331,0.5892,-0.1884
3.8930,-0.8331,0.5892,-0.1884
3.9180,-0.8331,0.5892,-0.1884
3.9190,-0.8331,0.5892,-0.1884
3.9210,-0.8331,0.5892,-0.1884
3.9220,-0.8258,0.5875,-0.1874
3.9230,-0.8204,0.5819,-0.1799
3.9470,-0.8204,0.5819,-0.1799
3.9480,-0.8204,0.5819,-0.1799
3.9490,-0.8204,0.5819,-0.1799
3.9490,-0.8185,0.5858,-0.1835
3.9670,-0.8185,0.5858,-0.1835
3.9690,-0.8185,0.5858,-0.1835
3.9710,-0.8185,0.5858,-0.1835
3.9720,-0.8229,0.5917,-0.1742
3.9730,-0.8229,0.5917,-0.1742
3.9980,-0.8229,0.5917,-0.1742
3.9980,-0.8229,0.5917,-0.1742
3.9990,-0.8229,0.5917,-0.1742
4.0010,-0.8280,0.5926,-0.1728
4.0020,-0.8292,0.5917,-0.1911
4.0280,-0.8292,0.5917,-0.1911
4.0290,-0.8292,0.5917,-0.1911
4.0290,-0.8292,0.5917,-0.1911
4.0300,-0.8287,0.5934,-0.1940
4.0500,-0.8287,0.5934,-0.1940
4.0510,-0.8287,0.5934,-0.1940
4.0530,-0.8287,0.5934,-0.1940
4.0780,-0.8287,0.5934,-0.1940
4.0800,-0.8319,0.5917,-0.1821
4.0800,-0.8319,0.5917,-0.1821
4.0810,-0.8319,0.5917,-0.1821
4.0820,-0.8319,0.5917,-0.1821
4.0840,-0.8319,0.5917,-0.1821
4.0850,-0.8275,0.5885,-0.1760
4.0850,-0.8233,0.5897,-0.1848
4.1070,-0.8233,0.5897,-0.1848
4.1080,-0.8233,0.5897,-0.1848
4.1080,-0.8233,0.5897,-0.1848
4.1090,-0.8224,0.5907,-0.1896
4.1280,-0.8224,0.5907,-0.1896
4.1290,-0.8224,0.5907,-0.1896
4.1290,-0.8224,0.5907,-0.1896
4.1300,-0.8273,0.5895,-0.1848
4.1300,-0.8273,0.5895,-0.1848
4.1580,-0.8273,0.5895,-0.1848
4.1580,-0.8273,0.5895,-0.1848
4.1590,-0.8273,0.5895,-0.1848
4.1590,-0.8390,0.5907,-0.1865
4.1590,-0.8400,0.5929,-0.1867
4.1880,-0.8400,0.5929,-0.1867
4.1880,-0.8400,0.5929,-0.1867
4.1890,-0.8400,0.5929,-0.1867
4.1890,-0.8334,0.5914,-0.1799
4.2070,-0.8334,0.5914,-0.1799
4.2080,-0.8334,0.5914,-0.1799
4.2080,-0.8334,0.5914,-0.1799
4.2090,-0.8260,0.5843,-0.1757
4.2130,-0.8260,0.5843,-0.1757
4.2420,-0.8260,0.5843,-0.1757
4.2420,-0.8260,0.5843,-0.1757
4.2420,-0.8260,0.5843,-0.1757
4.2430,-0.8190,0.5858,-0.1909
4.2430,-0.8229,0.5909,-0.1987
4.2470,-0.8229,0.5909,-0.1987
4.2470,-0.8229,0.5909,-0.1987
4.2700,-0.8229,0.5909,-0.1987
4.2710,-0.8229,0.5909,-0.1987
4.2710,-0.8229,0.5909,-0.1987
4.2710,-0.8290,0.5912,-0.1901
4.2920,-0.8290,0.5912,-0.1901
4.2920,-0.8290,0.5912,-0.1901
4.2930,-0.8290,0.5912,-0.1901
4.2930,-0.8292,0.5929,-0.1677
4.2930,-0.8292,0.5929,-0.1677
4.3210,-0.8292,0.5929,-0.1677
4.3210,-0.8292,0.5929,-0.1677
4.3220,-0.8292,0.5929,-0.1677
4.3220,-0.8236,0.5968,-0.1662
4.3220,-0.8236,0.5944,-0.1725
4.3500,-0.8236,0.5944,-0.1725
4.3510,-0.8236,0.5944,-0.1725
4.3510,-0.8236,0.5944,-0.1725
4.3510,-0.8368,0.5882,-0.1877
4.3720,-0.8368,0.5882,-0.1877
4.3720,-0.8368,0.5882,-0.1877
4.3720,-0.8368,0.5882,-0.1877
4.3730,-0.8480,0.5853,-0.2019
4.3730,-0.8480,0.5853,-0.2019
4.4020,-0.8480,0.5853,-0.2019
4.4020,-0.8480,0.5853,-0.2019
4.4020,-0.8480,0.5853,-0.2019
4.4030,-0.8375,0.5863,-0.2065
4.4030,-0.8168,0.5904,-0.2112
4.4310,-0.8168,0.5904,-0.2112
4.4310,-0.8168,0.5904,-0.2112
4.4320,-0.8168,0.5904,-0.2112
4.4320,-0.8114,0.5907,-0.2063
4.4470,-0.8114,0.5907,-0.2063
4.4480,-0.8114,0.5907,-0.2063
4.4480,-0.8114,0.5907,-0.2063
4.4480,-0.8114,0.5907,-0.2063
4.4490,-0.8114,0.5907,-0.2063
4.4490,-0.8153,0.5870,-0.1999
4.4500,-0.8153,0.5870,-0.1999
4.4820,-0.8153,0.5870,-0.1999
4.4820,-0.8153,0.5870,-0.1999
4.4830,-0.8153,0.5870,-0.1999
4.4830,-0.8185,0.5885,-0.2041
4.4830,-0.8231,0.5858,-0.1970
4.5110,-0.8231,0.5858,-0.1970
4.5110,-0.8231,0.5858,-0.1970
4.5110,-0.8231,0.5858,-0.1970
4.5120,-0.8299,0.5860,-0.1938
4.5300,-0.8299,0.5860,-0.1938
4.5300,-0.8299,0.5860,-0.1938
4.5310,-0.8299,0.5860,-0.1938
4.5310,-0.8314,0.5897,-0.1860
4.5310,-0.8314,0.5897,-0.1860
4.5620,-0.8314,0.5897,-0.1860
4.5620,-0.8314,0.5897,-0.1860
4.5630,-0.8314,0.5897,-0.1860
4.5630,-0.8336,0.5853,-0.1838
4.5640,-0.8365,0.5809,-0.1860
4.5910,-0.8365,0.5809,-0.1860
4.5910,-0.8365,0.5809,-0.1860
4.5920,-0.8365,0.5809,-0.1860
4.5920,-0.8341,0.5856,-0.1874
4.6110,-0.8341,0.5856,-0.1874
4.6120,-0.8341,0.5856,-0.1874
4.6120,-0.8341,0.5856,-0.1874
4.6120,-0.8309,0.5885,-0.1887
4.6130,-0.8309,0.5885,-0.1887
4.6410,-0.8309,0.5885,-0.1887
4.6410,-0.8309,0.5885,-0.1887
4.6410,-0.8309,0.5885,-0.1887
4.6410,-0.8258,0.5848,-0.1857
4.6420,-0.8204,0.5826,-0.1877
4.6460,-0.8204,0.5826,-0.1877
4.6730,-0.8204,0.5826,-0.1877
4.6730,-0.8204,0.5826,-0.1877
4.6740,-0.8204,0.5826,-0.1877
4.6740,-0.8219,0.5887,-0.1906
4.6930,-0.8219,0.5887,-0.1906
4.6930,-0.8219,0.5887,-0.1906
4.6930,-0.8219,0.5887,-0.1906
4.6940,-0.8243,0.5961,-0.1953
4.6940,-0.8243,0.5961,-0.1953
4.7220,-0.8243,0.5961,-0.1953
4.7230,-0.8243,0.5961,-0.1953
4.7230,-0.8243,0.5961,-0.1953
4.7230,-0.8295,0.5929,-0.1950
4.7240,-0.8319,0.5909,-0.1997
4.7510,-0.8319,0.5909,-0.1997
4.7520,-0.8319,0.5909,-0.1997
4.7520,-0.8319,0.5909,-0.1997
4.7520,-0.8243,0.5853,-0.1933
4.7710,-0.8243,0.5853,-0.1933
4.7720,-0.8243,0.5853,-0.1933
4.7720,-0.8243,0.5853,-0.1933
4.7720,-0.8168,0.5846,-0.1896
4.7730,-0.8168,0.5846,-0.1896
4.8020,-0.8168,0.5846,-0.1896
4.8030,-0.8168,0.5846,-0.1896
4.8030,-0.8168,0.5846,-0.1896
4.8040,-0.8246,0.5934,-0.1906
4.8040,-0.8351,0.5966,-0.1987
4.8320,-0.8351,0.5966,-0.1987
4.8320,-0.8351,0.5966,-0.1987
4.8330,-0.8351,0.5966,-0.1987
4.8330,-0.8385,0.5865,-0.1899
4.8460,-0.8385,0.5865,-0.1899
4.8500,-0.8385,0.5865,-0.1899
4.8510,-0.8385,0.5865,-0.1899
4.8510,-0.8385,0.5865,-0.1899
4.8520,-0.8317,0.5846,-0.1813
4.8530,-0.8317,0.5846,-0.1813
4.8810,-0.8317,0.5846,-0.1813
4.8810,-0.8317,0.5846,-0.1813
4.8810,-0.8317,0.5846,-0.1813
4.8810,-0.8172,0.5922,-0.1799
4.8820,-0.8148,0.5924,-0.1872
4.9110,-0.8148,0.5924,-0.1872
4.9110,-0.8148,0.5924,-0.1872
4.9120,-0.8148,0.5924,-0.1872
4.9120,-0.8295,0.5895,-0.1962
4.9310,-0.8295,0.5895,-0.1962
4.9310,-0.8295,0.5895,-0.1962
4.9310,-0.8295,0.5895,-0.1962
4.9320,-0.8334,0.5870,-0.1887
4.9320,-0.8334,0.5870,-0.1887
4.9590,-0.8334,0.5870,-0.1887
4.9600,-0.8334,0.5870,-0.1887
4.9600,-0.8334,0.5870,-0.1887
4.9610,-0.8265,0.5812,-0.1764
4.9610,-0.8204,0.5785,-0.1796
4.9900,-0.8204,0.5785,-0.1796
4.9910,-0.8204,0.5785,-0.1796
4.9910,-0.8204,0.5785,-0.1796
4.9920,-0.8287,0.5863,-0.1874
5.0120,-0.8287,0.5863,-0.1874
5.0120,-0.8287,0.5863,-0.1874
5.0130,-0.8287,0.5863,-0.1874
5.0130,-0.8431,0.5929,-0.1967
5.0140,-0.8431,0.5929,-0.1967
5.0440,-0.8431,0.5929,-0.1967
5.0450,-0.8431,0.5929,-0.1967
5.0450,-0.8431,0.5929,-0.1967
5.0460,-0.8444,0.5939,-0.1865
5.0460,-0.8314,0.5902,-0.1742
5.0470,-0.8314,0.5902,-0.1742
5.0700,-0.8314,0.5902,-0.1742
5.0700,-0.8314,0.5902,-0.1742
5.0710,-0.8314,0.5902,-0.1742
5.0710,-0.8224,0.5824,-0.1716
5.0910,-0.8224,0.5824,-0.1716
5.0910,-0.8224,0.5824,-0.1716
5.0920,-0.8224,0.5824,-0.1716
5.0920,-0.8246,0.5895,-0.1879
5.0930,-0.8246,0.5895,-0.1879
5.1200,-0.8246,0.5895,-0.1879
5.1200,-0.8246,0.5895,-0.1879
5.1210,-0.8246,0.5895,-0.1879
5.1210,-0.8302,0.5980,-0.2036
5.1210,-0.8297,0.5939,-0.1914
5.1490,-0.8297,0.5939,-0.1914
5.1500,-0.8297,0.5939,-0.1914
5.1500,-0.8297,0.5939,-0.1914
5.1700,-0.8241,0.5834,-0.1750
5.1700,-0.8241,0.5834,-0.1750
5.1710,-0.8241,0.5834,-0.1750
5.1710,-0.8241,0.5834,-0.1750
5.1710,-0.8177,0.5868,-0.1835
5.1720,-0.8177,0.5868,-0.1835
5.1980,-0.8177,0.5868,-0.1835
5.1980,-0.8177,0.5868,-0.1835
5.1980,-0.8177,0.5868,-0.1835
5.1990,-0.8246,0.5963,-0.1921
5.1990,-0.8290,0.6007,-0.1928
5.2280,-0.8290,0.6007,-0.1928
5.2290,-0.8290,0.6007,-0.1928
5.2290,-0.8290,0.6007,-0.1928
5.2290,-0.8319,0.5951,-0.1782
5.2430,-0.8319,0.5951,-0.1782
5.2480,-0.8319,0.5951,-0.1782
5.2480,-0.8319,0.5951,-0.1782
5.2490,-0.8319,0.5951,-0.1782
5.2490,-0.8431,0.5900,-0.1779
5.2490,-0.8431,0.5900,-0.1779
5.2790,-0.8431,0.5900,-0.1779
5.2790,-0.8431,0.5900,-0.1779
5.2800,-0.8431,0.5900,-0.1779
5.2800,-0.8497,0.5934,-0.1962
5.2810,-0.8351,0.5929,-0.1896
5.3080,-0.8351,0.5929,-0.1896
5.3090,-0.8351,0.5929,-0.1896
5.3090,-0.8351,0.5929,-0.1896
5.3100,-0.8089,0.5851,-0.1696
5.3280,-0.8089,0.5851,-0.1696
5.3290,-0.8089,0.5851,-0.1696
5.3290,-0.8089,0.5851,-0.1696
5.3300,-0.7950,0.5829,-0.1699
5.3300,-0.7950,0.5829,-0.1699
5.3590,-0.7950,0.5829,-0.1699
5.3590,-0.7950,0.5829,-0.1699
5.3600,-0.7950,0.5829,-0.1699
5.3600,-0.8143,0.5870,-0.1950
5.3600,-0.8385,0.5946,-0.2104
5.3880,-0.8385,0.5946,-0.2104
5.3890,-0.8385,0.5946,-0.2104
5.3890,-0.8385,0.5946,-0.2104
5.3900,-0.8390,0.5939,-0.1852
5.4090,-0.8390,0.5939,-0.1852
5.4090,-0.8390,0.5939,-0.1852
5.4090,-0.8390,0.5939,-0.1852
5.4100,-0.8270,0.5961,-0.1684
5.4100,-0.8270,0.5961,-0.1684
5.4420,-0.8270,0.5961,-0.1684
5.4420,-0.8270,0.5961,-0.1684
5.4430,-0.8270,0.5961,-0.1684
5.4430,-0.8209,0.6010,-0.1774
5.4430,-0.8236,0.5973,-0.1899
5.4440,-0.8236,0.5973,-0.1899
5.4680,-0.8236,0.5973,-0.1899
5.4680,-0.8236,0.5973,-0.1899
5.4680,-0.8236,0.5973,-0.1899
5.4690,-0.8209,0.5885,-0.1916
5.4890,-0.8209,0.5885,-0.1916
5.4900,-0.8209,0.5885,-0.1916
5.4900,-0.8209,0.5885,-0.1916
5.4900,-0.8224,0.5870,-0.1882
5.4910,-0.8224,0.5870,-0.1882
5.5190,-0.8224,0.5870,-0.1882
5.5200,-0.8224,0.5870,-0.1882
5.5200,-0.8224,0.5870,-0.1882
5.5210,-0.8295,0.5939,-0.1870
5.5210,-0.8297,0.5958,-0.1818
5.5490,-0.8297,0.5958,-0.1818
5.5490,-0.8297,0.5958,-0.1818
5.5490,-0.8297,0.5958,-0.1818
5.5500,-0.8268,0.5900,-0.1830
5.5690,-0.8268,0.5900,-0.1830
5.5700,-0.8268,0.5900,-0.1830
5.5700,-0.8268,0.5900,-0.1830
5.5710,-0.8270,0.5897,-0.1975
5.5710,-0.8270,0.5897,-0.1975
5.5990,-0.8270,0.5897,-0.1975
5.6000,-0.8270,0.5897,-0.1975
5.6000,-0.8270,0.5897,-0.1975
5.6000,-0.8221,0.5836,-0.1940
5.6010,-0.8211,0.5809,-0.1931
5.6290,-0.8211,0.5809,-0.1931
5.6300,-0.8211,0.5809,-0.1931
5.6300,-0.8211,0.5809,-0.1931
5.6300,-0.8253,0.5858,-0.2006
5.6430,-0.8253,0.5858,-0.2006
5.6500,-0.8253,0.5858,-0.2006
5.6500,-0.8253,0.5858,-0.2006
5.6510,-0.8253,0.5858,-0.2006
5.6510,-0.8326,0.5929,-0.1960
5.6510,-0.8326,0.5929,-0.1960
5.6790,-0.8326,0.5929,-0.1960
5.6800,-0.8326,0.5929,-0.1960
5.6800,-0.8326,0.5929,-0.1960
5.6810,-0.8351,0.5944,-0.1840
5.6810,-0.8292,0.5946,-0.1784
5.7090,-0.8292,0.5946,-0.1784
5.7100,-0.8292,0.5946,-0.1784
5.7220,-0.8292,0.5946,-0.1784
5.7230,-0.8199,0.5953,-0.1806
5.7300,-0.8199,0.5953,-0.1806
5.7300,-0.8199,0.5953,-0.1806
5.7300,-0.8199,0.5953,-0.1806
5.7310,-0.8214,0.5924,-0.1835
5.7310,-0.8214,0.5924,-0.1835
5.7600,-0.8214,0.5924,-0.1835
5.7600,-0.8214,0.5924,-0.1835
5.7610,-0.8214,0.5924,-0.1835
5.7610,-0.8258,0.5936,-0.1889
5.7610,-0.8287,0.5931,-0.1928
5.7900,-0.8287,0.5931,-0.1928
5.7900,-0.8287,0.5931,-0.1928
5.7900,-0.8287,0.5931,-0.1928
5.7910,-0.8290,0.5912,-0.1936
5.8110,-0.8290,0.5912,-0.1936
5.8120,-0.8290,0.5912,-0.1936
5.8120,-0.8290,0.5912,-0.1936
5.8130,-0.8270,0.5939,-0.1945
5.8130,-0.8270,0.5939,-0.1945
5.8440,-0.8270,0.5939,-0.1945
5.8440,-0.8270,0.5939,-0.1945
5.8440,-0.8270,0.5939,-0.1945
5.8440,-0.8304,0.5922,-0.1879
5.8450,-0.8285,0.5900,-0.1794
5.8450,-0.8285,0.5900,-0.1794
5.8740,-0.8285,0.5900,-0.1794
5.8740,-0.8285,0.5900,-0.1794
5.8750,-0.8285,0.5900,-0.1794
5.8750,-0.8224,0.5860,-0.1806
5.8960,-0.8224,0.5860,-0.1806
5.8960,-0.8224,0.5860,-0.1806
5.8960,-0.8224,0.5860,-0.1806
5.8970,-0.8155,0.5863,-0.1975
5.8970,-0.8155,0.5863,-0.1975
5.9210,-0.8155,0.5863,-0.1975
5.9210,-0.8155,0.5863,-0.1975
5.9220,-0.8155,0.5863,-0.1975
5.9220,-0.8155,0.5914,-0.2041
5.9220,-0.8214,0.5961,-0.1948
5.9520,-0.8214,0.5961,-0.1948
5.9520,-0.8214,0.5961,-0.1948
5.9520,-0.8214,0.5961,-0.1948
5.9530,-0.8238,0.5995,-0.1918
5.9730,-0.8238,0.5995,-0.1918
5.9740,-0.8238,0.5995,-0.1918
5.9740,-0.8238,0.5995,-0.1918
5.9750,-0.8211,0.5975,-0.1865
5.9750,-0.8211,0.5975,-0.1865
6.0020,-0.8211,0.5975,-0.1865
6.0020,-0.8211,0.5975,-0.1865
6.0020,-0.8211,0.5975,-0.1865
6.0030,-0.8238,0.5970,-0.1909
6.0030,-0.8304,0.5970,-0.1918
6.0350,-0.8304,0.5970,-0.1918
6.0350,-0.8304,0.5970,-0.1918
6.0360,-0.8304,0.5970,-0.1918
6.0360,-0.8299,0.5929,-0.1872
6.0440,-0.8299,0.5929,-0.1872
6.0450,-0.8299,0.5929,-0.1872
6.0530,-0.8299,0.5929,-0.1872
6.0540,-0.8299,0.5929,-0.1872
6.0540,-0.8299,0.5929,-0.1872
6.0550,-0.8307,0.5890,-0.1855
6.0550,-0.8307,0.5890,-0.1855
6.0810,-0.8307,0.5890,-0.1855
6.0810,-0.8307,0.5890,-0.1855
6.0810,-0.8307,0.5890,-0.1855
6.0810,-0.8302,0.5919,-0.1879
6.0820,-0.8317,0.5963,-0.1906
6.1110,-0.8317,0.5963,-0.1906
6.1110,-0.8317,0.5963,-0.1906
6.1120,-0.8317,0.5963,-0.1906
6.1120,-0.8341,0.5961,-0.1914
6.1320,-0.8341,0.5961,-0.1914
6.1320,-0.8341,0.5961,-0.1914
6.1330,-0.8341,0.5961,-0.1914
6.1330,-0.8285,0.5900,-0.1821
6.1340,-0.8285,0.5900,-0.1821
6.1610,-0.8285,0.5900,-0.1821
6.1610,-0.8285,0.5900,-0.1821
6.1620,-0.8285,0.5900,-0.1821
6.1620,-0.8214,0.5887,-0.1813
6.1630,-0.8260,0.5983,-0.1877
6.1930,-0.8260,0.5983,-0.1877
6.1930,-0.8260,0.5983,-0.1877
6.1940,-0.8260,0.5983,-0.1877
6.1940,-0.8365,0.6039,-0.1901
6.2110,-0.8365,0.6039,-0.1901
6.2120,-0.8365,0.6039,-0.1901
6.2120,-0.8365,0.6039,-0.1901
6.2120,-0.8336,0.6022,-0.1892
6.2130,-0.8336,0.6022,-0.1892
6.2460,-0.8336,0.6022,-0.1892
6.2460,-0.8336,0.6022,-0.1892
6.2470,-0.8336,0.6022,-0.1892
6.2470,-0.8199,0.5946,-0.1843
6.2480,-0.8138,0.5934,-0.1828
6.2480,-0.8138,0.5934,-0.1828
6.2770,-0.8138,0.5934,-0.1828
6.2770,-0.8138,0.5934,-0.1828
6.2780,-0.8138,0.5934,-0.1828
6.2790,-0.8190,0.5956,-0.1862
6.2910,-0.8190,0.5956,-0.1862
6.2920,-0.8190,0.5956,-0.1862
6.2920,-0.8190,0.5956,-0.1862
6.2920,-0.8231,0.5914,-0.1872
6.2920,-0.8231,0.5914,-0.1872
6.3210,-0.8231,0.5914,-0.1872
6.3210,-0.8231,0.5914,-0.1872
6.3210,-0.8231,0.5914,-0.1872
6.3220,-0.8180,0.5890,-0.1767
6.3220,-0.8136,0.5895,-0.1762
6.3550,-0.8136,0.5895,-0.1762
6.3550,-0.8136,0.5895,-0.1762
6.3550,-0.8136,0.5895,-0.1762
6.3550,-0.8236,0.5902,-0.1928
6.3730,-0.8236,0.5902,-0.1928
6.3740,-0.8236,0.5902,-0.1928
6.3740,-0.8236,0.5902,-0.1928
6.3740,-0.8348,0.5917,-0.1953
6.3750,-0.8348,0.5917,-0.1953
6.4020,-0.8348,0.5917,-0.1953
6.4030,-0.8348,0.5917,-0.1953
6.4030,-0.8348,0.5917,-0.1953
6.4040,-0.8326,0.5953,-0.1828
6.4040,-0.8251,0.6017,-0.1821
6.4320,-0.8251,0.6017,-0.1821
6.4330,-0.8251,0.6017,-0.1821
6.4330,-0.8251,0.6017,-0.1821
6.4330,-0.8163,0.6000,-0.1801
6.4450,-0.8163,0.6000,-0.1801
6.4450,-0.8163,0.6000,-0.1801
6.4530,-0.8163,0.6000,-0.1801
6.4530,-0.8163,0.6000,-0.1801
6.4540,-0.8163,0.6000,-0.1801
6.4540,-0.8177,0.5958,-0.1830
6.4540,-0.8177,0.5958,-0.1830
6.4820,-0.8177,0.5958,-0.1830
6.4820,-0.8177,0.5958,-0.1830
6.4830,-0.8177,0.5958,-0.1830
6.4830,-0.8275,0.5975,-0.1921
6.4830,-0.8287,0.5953,-0.1918
6.5110,-0.8287,0.5953,-0.1918
6.5110,-0.8287,0.5953,-0.1918
6.5110,-0.8287,0.5953,-0.1918
6.5120,-0.8131,0.5929,-0.1921
6.5320,-0.8131,0.5929,-0.1921
6.5330,-0.8131,0.5929,-0.1921
6.5330,-0.8131,0.5929,-0.1921
6.5330,-0.8092,0.5934,-0.1848
6.5330,-0.8092,0.5934,-0.1848
6.5630,-0.8092,0.5934,-0.1848
6.5630,-0.8092,0.5934,-0.1848
6.5630,-0.8092,0.5934,-0.1848
6.5640,-0.8182,0.6041,-0.1816
6.5640,-0.8248,0.6110,-0.1901
6.5920,-0.8248,0.6110,-0.1901
6.5930,-0.8248,0.6110,-0.1901
6.5930,-0.8248,0.6110,-0.1901
6.5930,-0.8317,0.6000,-0.1889
6.6120,-0.8317,0.6000,-0.1889
6.6130,-0.8317,0.6000,-0.1889
6.6130,-0.8317,0.6000,-0.1889
6.6140,-0.8314,0.5904,-0.1850
6.6140,-0.8314,0.5904,-0.1850
6.6450,-0.8314,0.5904,-0.1850
6.6460,-0.8314,0.5904,-0.1850
6.6460,-0.8314,0.5904,-0.1850
6.6470,-0.8314,0.5904,-0.1850
6.6470,-0.8238,0.5946,-0.1826
6.6470,-0.8126,0.5980,-0.1762
6.6720,-0.8126,0.5980,-0.1762
6.6720,-0.8126,0.5980,-0.1762
6.6730,-0.8126,0.5980,-0.1762
6.6730,-0.8165,0.6029,-0.1914
6.6940,-0.8165,0.6029,-0.1914
6.6940,-0.8165,0.6029,-0.1914
6.6940,-0.8165,0.6029,-0.1914
6.6940,-0.8260,0.6058,-0.1950
6.6950,-0.8260,0.6058,-0.1950
6.7240,-0.8260,0.6058,-0.1950
6.7240,-0.8260,0.6058,-0.1950
6.7250,-0.8260,0.6058,-0.1950
6.7250,-0.8363,0.5995,-0.1877
6.7250,-0.8363,0.5939,-0.1840
6.7530,-0.8363,0.5939,-0.1840
6.7540,-0.8363,0.5939,-0.1840
6.7540,-0.8363,0.5939,-0.1840
6.7550,-0.8314,0.5966,-0.1850
6.7750,-0.8314,0.5966,-0.1850
6.7750,-0.8314,0.5966,-0.1850
6.7760,-0.8314,0.5966,-0.1850
6.7760,-0.8238,0.6022,-0.1945
6.7770,-0.8238,0.6022,-0.1945
6.8040,-0.8238,0.6022,-0.1945
6.8040,-0.8238,0.6022,-0.1945
6.8050,-0.8238,0.6022,-0.1945
6.8050,-0.8138,0.5958,-0.1936
6.8240,-0.8141,0.5868,-0.1835
6.8310,-0.8141,0.5868,-0.1835
6.8310,-0.8141,0.5868,-0.1835
6.8320,-0.8141,0.5868,-0.1835
6.8320,-0.8260,0.5902,-0.1987
6.8420,-0.8260,0.5902,-0.1987
6.8510,-0.8260,0.5902,-0.1987
6.8510,-0.8260,0.5902,-0.1987
6.8510,-0.8260,0.5902,-0.1987
6.8520,-0.8307,0.5934,-0.2070
6.8520,-0.8307,0.5934,-0.2070
6.8820,-0.8307,0.5934,-0.2070
6.8820,-0.8307,0.5934,-0.2070
6.8830,-0.8307,0.5934,-0.2070
6.8830,-0.8216,0.5926,-0.1950
6.8840,-0.8128,0.5944,-0.1826
6.9120,-0.8128,0.5944,-0.1826
6.9120,-0.8128,0.5944,-0.1826
6.9120,-0.8128,0.5944,-0.1826
6.9130,-0.8126,0.5988,-0.1860
6.9320,-0.8126,0.5988,-0.1860
6.9330,-0.8126,0.5988,-0.1860
6.9330,-0.8126,0.5988,-0.1860
6.9340,-0.8172,0.5995,-0.1923
6.9340,-0.8172,0.5995,-0.1923
6.9620,-0.8172,0.5995,-0.1923
6.9620,-0.8172,0.5995,-0.1923
6.9620,-0.8172,0.5995,-0.1923
6.9630,-0.8187,0.5909,-0.1909
6.9630,-0.8224,0.5863,-0.1855
6.9920,-0.8224,0.5863,-0.1855
6.9920,-0.8224,0.5863,-0.1855
6.9920,-0.8224,0.5863,-0.1855
6.9920,-0.8292,0.5934,-0.1923
7.0120,-0.8292,0.5934,-0.1923
7.0120,-0.8292,0.5934,-0.1923
7.0120,-0.8292,0.5934,-0.1923
7.0120,-0.8287,0.5978,-0.1892
7.0130,-0.8287,0.5978,-0.1892
7.0440,-0.8287,0.5978,-0.1892
7.0470,-0.8287,0.5978,-0.1892
7.0470,-0.8287,0.5978,-0.1892
7.0470,-0.8287,0.5978,-0.1892
7.0480,-0.8214,0.6007,-0.1850
7.0480,-0.8268,0.6036,-0.1872
7.0710,-0.8268,0.6036,-0.1872
7.0720,-0.8268,0.6036,-0.1872
7.0720,-0.8268,0.6036,-0.1872
7.0720,-0.8285,0.5975,-0.1962
7.0930,-0.8285,0.5975,-0.1962
7.0930,-0.8285,0.5975,-0.1962
7.0930,-0.8285,0.5975,-0.1962
7.0940,-0.8273,0.5875,-0.1911
7.0940,-0.8273,0.5875,-0.1911
7.1230,-0.8273,0.5875,-0.1911
7.1240,-0.8273,0.5875,-0.1911
7.1240,-0.8273,0.5875,-0.1911
7.1250,-0.8277,0.5922,-0.1906
7.1250,-0.8241,0.5968,-0.1806
7.1530,-0.8241,0.5968,-0.1806
7.1540,-0.8241,0.5968,-0.1806
7.1540,-0.8241,0.5968,-0.1806
7.1540,-0.8207,0.5973,-0.1723
7.1730,-0.8207,0.5973,-0.1723
7.1730,-0.8207,0.5973,-0.1723
7.1740,-0.8207,0.5973,-0.1723
7.1740,-0.8190,0.5956,-0.1782
7.1750,-0.8190,0.5956,-0.1782
7.2030,-0.8190,0.5956,-0.1782
7.2040,-0.8190,0.5956,-0.1782
7.2040,-0.8190,0.5956,-0.1782
7.2040,-0.8246,0.5948,-0.1877
7.2040,-0.8326,0.5956,-0.2009
7.2340,-0.8326,0.5956,-0.2009
7.2340,-0.8326,0.5956,-0.2009
7.2350,-0.8326,0.5956,-0.2009
7.2350,-0.8336,0.5912,-0.1955
7.2440,-0.8336,0.5912,-0.1955
7.2440,-0.8336,0.5912,-0.1955
7.2530,-0.8336,0.5912,-0.1955
7.2530,-0.8336,0.5912,-0.1955
7.2540,-0.8336,0.5912,-0.1955
7.2540,-0.8260,0.5914,-0.1764
7.2540,-0.8260,0.5914,-0.1764
7.2830,-0.8260,0.5914,-0.1764
7.2830,-0.8260,0.5914,-0.1764
7.2840,-0.8260,0.5914,-0.1764
7.2840,-0.8150,0.5988,-0.1850
7.2840,-0.8119,0.5990,-0.1943
7.3130,-0.8119,0.5990,-0.1943
7.3130,-0.8119,0.5990,-0.1943
7.3140,-0.8119,0.5990,-0.1943
7.3140,-0.8248,0.5995,-0.1926
7.3330,-0.8248,0.5995,-0.1926
7.3340,-0.8248,0.5995,-0.1926
7.3340,-0.8248,0.5995,-0.1926
7.3350,-0.8297,0.5973,-0.1860
7.3350,-0.8297,0.5973,-0.1860
7.3650,-0.8297,0.5973,-0.1860
7.3650,-0.8297,0.5973,-0.1860
7.3840,-0.8297,0.5973,-0.1860
7.3840,-0.8241,0.5946,-0.1835
7.3850,-0.8148,0.5924,-0.1818
7.3920,-0.8148,0.5924,-0.1818
7.3920,-0.8148,0.5924,-0.1818
7.3920,-0.8148,0.5924,-0.1818
7.3920,-0.8175,0.5973,-0.1852
7.4130,-0.8175,0.5973,-0.1852
7.4130,-0.8175,0.5973,-0.1852
7.4140,-0.8175,0.5973,-0.1852
7.4140,-0.8290,0.5951,-0.1874
7.4140,-0.8290,0.5951,-0.1874
7.4470,-0.8290,0.5951,-0.1874
7.4480,-0.8290,0.5951,-0.1874
7.4480,-0.8290,0.5951,-0.1874
7.4480,-0.8290,0.5951,-0.1874
7.4490,-0.8295,0.5956,-0.1764
7.4490,-0.8246,0.5946,-0.1730
7.4730,-0.8246,0.5946,-0.1730
7.4730,-0.8246,0.5946,-0.1730
7.4730,-0.8246,0.5946,-0.1730
7.4740,-0.8211,0.5956,-0.1789
7.4920,-0.8211,0.5956,-0.1789
7.4930,-0.8211,0.5956,-0.1789
7.4930,-0.8211,0.5956,-0.1789
7.4940,-0.8233,0.5980,-0.1874
7.4940,-0.8233,0.5980,-0.1874
7.5230,-0.8233,0.5980,-0.1874
7.5230,-0.8233,0.5980,-0.1874
7.5240,-0.8233,0.5980,-0.1874
7.5240,-0.8253,0.5948,-0.1882
7.5240,-0.8282,0.5936,-0.1874
7.5540,-0.8282,0.5936,-0.1874
7.5540,-0.8282,0.5936,-0.1874
7.5540,-0.8282,0.5936,-0.1874
7.5540,-0.8255,0.5968,-0.1789
7.5740,-0.8255,0.5968,-0.1789
7.5750,-0.8255,0.5968,-0.1789
7.5750,-0.8255,0.5968,-0.1789
7.5750,-0.8214,0.6014,-0.1823
7.5750,-0.8214,0.6014,-0.1823
7.6040,-0.8214,0.6014,-0.1823
7.6050,-0.8214,0.6014,-0.1823
7.6050,-0.8214,0.6014,-0.1823
7.6050,-0.8209,0.5995,-0.1855
7.6050,-0.8255,0.5978,-0.1833
7.6330,-0.8255,0.5978,-0.1833
7.6330,-0.8255,0.5978,-0.1833
7.6340,-0.8255,0.5978,-0.1833
7.6340,-0.8314,0.6002,-0.1865
7.6430,-0.8314,0.6002,-0.1865
7.6440,-0.8314,0.6002,-0.1865
7.6540,-0.8314,0.6002,-0.1865
7.6550,-0.8314,0.6002,-0.1865
7.6550,-0.8314,0.6002,-0.1865
7.6550,-0.8275,0.5966,-0.1892
7.6550,-0.8275,0.5966,-0.1892
7.6830,-0.8275,0.5966,-0.1892
7.6840,-0.8275,0.5966,-0.1892
7.6840,-0.8275,0.5966,-0.1892
7.6840,-0.8216,0.5934,-0.1804
7.6840,-0.8255,0.5995,-0.1791
7.7150,-0.8255,0.5995,-0.1791
7.7150,-0.8255,0.5995,-0.1791
7.7150,-0.8255,0.5995,-0.1791
7.7160,-0.8209,0.6002,-0.1833
7.7340,-0.8209,0.6002,-0.1833
7.7340,-0.8209,0.6002,-0.1833
7.7350,-0.8209,0.6002,-0.1833
7.7350,-0.8207,0.5939,-0.1828
7.7360,-0.8207,0.5939,-0.1828
7.7630,-0.8207,0.5939,-0.1828
7.7640,-0.8207,0.5939,-0.1828
7.7640,-0.8207,0.5939,-0.1828
7.7650,-0.8307,0.5956,-0.1860
7.7650,-0.8331,0.5985,-0.1848
7.7930,-0.8331,0.5985,-0.1848
7.7940,-0.8331,0.5985,-0.1848
7.7940,-0.8331,0.5985,-0.1848
7.7950,-0.8194,0.5980,-0.1821
7.8170,-0.8194,0.5980,-0.1821
7.8170,-0.8194,0.5980,-0.1821
7.8180,-0.8194,0.5980,-0.1821
7.8180,-0.8153,0.5992,-0.1892
7.8180,-0.8153,0.5992,-0.1892
7.8450,-0.8153,0.5992,-0.1892
7.8450,-0.8153,0.5992,-0.1892
7.8460,-0.8153,0.5992,-0.1892
7.8460,-0.8153,0.5992,-0.1892
7.8470,-0.8211,0.6054,-0.1936
7.8470,-0.8216,0.6012,-0.1848
7.8480,-0.8216,0.6012,-0.1848
7.8750,-0.8216,0.6012,-0.1848
7.8750,-0.8216,0.6012,-0.1848
7.8750,-0.8216,0.6012,-0.1848
7.8760,-0.8165,0.5926,-0.1752
7.8940,-0.8165,0.5926,-0.1752
7.8940,-0.8165,0.5926,-0.1752
7.8940,-0.8165,0.5926,-0.1752
7.8950,-0.8219,0.5931,-0.1801
7.9200,-0.8219,0.5931,-0.1801
7.9260,-0.8219,0.5931,-0.1801
7.9270,-0.8219,0.5931,-0.1801
7.9270,-0.8219,0.5931,-0.1801
7.9270,-0.8297,0.5948,-0.1894
7.9270,-0.8295,0.5970,-0.1813
7.9520,-0.8295,0.5970,-0.1813
7.9530,-0.8295,0.5970,-0.1813
7.9530,-0.8295,0.5970,-0.1813
7.9530,-0.8241,0.5961,-0.1789
7.9740,-0.8241,0.5961,-0.1789
7.9740,-0.8241,0.5961,-0.1789
7.9740,-0.8241,0.5961,-0.1789
7.9740,-0.8155,0.5958,-0.1801
7.9740,-0.8155,0.5958,-0.1801
8.0030,-0.8155,0.5958,-0.1801
8.0030,-0.8155,0.5958,-0.1801
8.0040,-0.8155,0.5958,-0.1801
8.0040,-0.8177,0.5992,-0.1823
8.0040,-0.8238,0.6010,-0.1791
8.0340,-0.8238,0.6010,-0.1791
8.0340,-0.8238,0.6010,-0.1791
8.0340,-0.8238,0.6010,-0.1791
8.0350,-0.8270,0.6005,-0.1874
8.0440,-0.8270,0.6005,-0.1874
8.0450,-0.8270,0.6005,-0.1874
8.0540,-0.8270,0.6005,-0.1874
8.0540,-0.8270,0.6005,-0.1874
8.0550,-0.8270,0.6005,-0.1874
8.0550,-0.8229,0.6019,-0.1940
8.0550,-0.8229,0.6019,-0.1940
8.0860,-0.8229,0.6019,-0.1940
8.0860,-0.8229,0.6019,-0.1940
8.0870,-0.8229,0.6019,-0.1940
8.0870,-0.8265,0.6041,-0.1789
8.0870,-0.8361,0.6058,-0.1745
8.1150,-0.8361,0.6058,-0.1745
8.1150,-0.8361,0.6058,-0.1745
8.1160,-0.8361,0.6058,-0.1745
8.1160,-0.8409,0.6049,-0.1808
8.1360,-0.8409,0.6049,-0.1808
8.1370,-0.8409,0.6049,-0.1808
8.1370,-0.8409,0.6049,-0.1808
8.1370,-0.8319,0.5929,-0.1779
8.1380,-0.8319,0.5929,-0.1779
8.1650,-0.8319,0.5929,-0.1779
8.1660,-0.8319,0.5929,-0.1779
8.1660,-0.8319,0.5929,-0.1779
8.1670,-0.8192,0.5890,-0.1806
8.1670,-0.8111,0.5983,-0.1860
8.1940,-0.8111,0.5983,-0.1860
8.1940,-0.8111,0.5983,-0.1860
8.1950,-0.8111,0.5983,-0.1860
8.1950,-0.8133,0.6029,-0.1762
8.2140,-0.8133,0.6029,-0.1762
8.2150,-0.8133,0.6029,-0.1762
8.2150,-0.8133,0.6029,-0.1762
8.2150,-0.8153,0.6017,-0.1755
8.2150,-0.8153,0.6017,-0.1755
8.2430,-0.8153,0.6017,-0.1755
8.2460,-0.8153,0.6017,-0.1755
8.2460,-0.8153,0.6017,-0.1755
8.2470,-0.8153,0.6017,-0.1755
8.2530,-0.8138,0.6017,-0.1848
8.2540,-0.8160,0.6010,-0.1945
8.2720,-0.8160,0.6010,-0.1945
8.2730,-0.8160,0.6010,-0.1945
8.2730,-0.8160,0.6010,-0.1945
8.2730,-0.8180,0.6014,-0.1835
8.2940,-0.8180,0.6014,-0.1835
8.2940,-0.8180,0.6014,-0.1835
8.2940,-0.8180,0.6014,-0.1835
8.2940,-0.8224,0.6046,-0.1721
8.2940,-0.8224,0.6046,-0.1721
8.3230,-0.8224,0.6046,-0.1721
8.3230,-0.8224,0.6046,-0.1721
8.3230,-0.8224,0.6046,-0.1721
8.3230,-0.8253,0.6080,-0.1779
8.3240,-0.8226,0.6073,-0.1799
8.3530,-0.8226,0.6073,-0.1799
8.3530,-0.8226,0.6073,-0.1799
8.3540,-0.8226,0.6073,-0.1799
8.3550,-0.8226,0.6063,-0.1745
8.3740,-0.8226,0.6063,-0.1745
8.3740,-0.8226,0.6063,-0.1745
8.3740,-0.8226,0.6063,-0.1745
8.3750,-0.8236,0.6051,-0.1755
8.3750,-0.8236,0.6051,-0.1755
8.4040,-0.8236,0.6051,-0.1755
8.4050,-0.8236,0.6051,-0.1755
8.4050,-0.8236,0.6051,-0.1755
8.4060,-0.8197,0.6005,-0.1789
8.4060,-0.8226,0.5968,-0.1784
8.4340,-0.8226,0.5968,-0.1784
8.4340,-0.8226,0.5968,-0.1784
8.4350,-0.8226,0.5968,-0.1784
8.4350,-0.8263,0.5983,-0.1784
8.4440,-0.8263,0.5983,-0.1784
8.4550,-0.8263,0.5983,-0.1784
8.4550,-0.8263,0.5983,-0.1784
8.4720,-0.8263,0.5983,-0.1784
8.4720,-0.8236,0.6017,-0.1828
8.4730,-0.8236,0.6017,-0.1828
8.4840,-0.8236,0.6017,-0.1828
8.4840,-0.8236,0.6017,-0.1828
8.4840,-0.8236,0.6017,-0.1828
8.4840,-0.8170,0.6002,-0.1840
8.4840,-0.8170,0.5995,-0.1789
8.5140,-0.8170,0.5995,-0.1789
8.5140,-0.8170,0.5995,-0.1789
8.5140,-0.8170,0.5995,-0.1789
8.5140,-0.8219,0.6076,-0.1833
8.5340,-0.8219,0.6076,-0.1833
8.5350,-0.8219,0.6076,-0.1833
8.5350,-0.8219,0.6076,-0.1833
8.5380,-0.8243,0.6110,-0.1833
8.5380,-0.8243,0.6110,-0.1833
8.5650,-0.8243,0.6110,-0.1833
8.5660,-0.8243,0.6110,-0.1833
8.5660,-0.8243,0.6110,-0.1833
8.5670,-0.8199,0.6044,-0.1769
8.5670,-0.8131,0.6010,-0.1818
8.5940,-0.8131,0.6010,-0.1818
8.5950,-0.8131,0.6010,-0.1818
8.5950,-0.8131,0.6010,-0.1818
8.5960,-0.8187,0.6014,-0.1892
8.6160,-0.8187,0.6014,-0.1892
8.6160,-0.8187,0.6014,-0.1892
8.6160,-0.8187,0.6014,-0.1892
8.6160,-0.8241,0.6024,-0.1848
8.6170,-0.8241,0.6024,-0.1848
8.6470,-0.8241,0.6024,-0.1848
8.6550,-0.8241,0.6024,-0.1848
8.6550,-0.8241,0.6024,-0.1848
8.6550,-0.8241,0.6024,-0.1848
8.6560,-0.8214,0.6027,-0.1762
8.6560,-0.8204,0.6000,-0.1757
8.6760,-0.8204,0.6000,-0.1757
8.6760,-0.8204,0.6000,-0.1757
8.6770,-0.8204,0.6000,-0.1757
8.6770,-0.8251,0.6019,-0.1777
8.6970,-0.8251,0.6019,-0.1777
8.6970,-0.8251,0.6019,-0.1777
8.6970,-0.8251,0.6019,-0.1777
8.6970,-0.8231,0.6036,-0.1779
8.6980,-0.8231,0.6036,-0.1779
8.7270,-0.8231,0.6036,-0.1779
8.7270,-0.8231,0.6036,-0.1779
8.7280,-0.8231,0.6036,-0.1779
8.7280,-0.8209,0.6019,-0.1738
8.7290,-0.8211,0.6022,-0.1823
8.7560,-0.8211,0.6022,-0.1823
8.7560,-0.8211,0.6022,-0.1823
8.7570,-0.8211,0.6022,-0.1823
8.7570,-0.8141,0.6032,-0.1914
8.7770,-0.8141,0.6032,-0.1914
8.7770,-0.8141,0.6032,-0.1914
8.7780,-0.8141,0.6032,-0.1914
8.7780,-0.8092,0.6005,-0.1828
8.7790,-0.8092,0.6005,-0.1828
8.8050,-0.8092,0.6005,-0.1828
8.8060,-0.8092,0.6005,-0.1828
8.8060,-0.8092,0.6005,-0.1828
8.8070,-0.8099,0.6002,-0.1791
8.8070,-0.8155,0.5983,-0.1835
8.8350,-0.8155,0.5983,-0.1835
8.8350,-0.8155,0.5983,-0.1835
8.8360,-0.8155,0.5983,-0.1835
8.8360,-0.8304,0.6027,-0.1808
8.8440,-0.8304,0.6027,-0.1808
8.8550,-0.8304,0.6027,-0.1808
8.8560,-0.8304,0.6027,-0.1808
8.8560,-0.8304,0.6027,-0.1808
8.8570,-0.8402,0.6083,-0.1816
8.8570,-0.8402,0.6083,-0.1816
8.8870,-0.8402,0.6083,-0.1816
8.8870,-0.8402,0.6083,-0.1816
8.8870,-0.8402,0.6083,-0.1816
8.8880,-0.8343,0.6046,-0.1767
8.8880,-0.8251,0.6024,-0.1735
8.9150,-0.8251,0.6024,-0.1735
8.9150,-0.8251,0.6024,-0.1735
8.9160,-0.8251,0.6024,-0.1735
8.9160,-0.8185,0.6054,-0.1821
8.9370,-0.8185,0.6054,-0.1821
8.9370,-0.8185,0.6054,-0.1821
8.9380,-0.8185,0.6054,-0.1821
8.9380,-0.8197,0.5997,-0.1953
8.9390,-0.8197,0.5997,-0.1953
8.9670,-0.8197,0.5997,-0.1953
8.9670,-0.8197,0.5997,-0.1953
8.9680,-0.8197,0.5997,-0.1953
8.9680,-0.8182,0.5922,-0.1953
8.9680,-0.8197,0.5897,-0.1879
8.9950,-0.8197,0.5897,-0.1879
8.9960,-0.8197,0.5897,-0.1879
8.9970,-0.8197,0.5897,-0.1879
8.9970,-0.8231,0.5931,-0.1879
9.0170,-0.8231,0.5931,-0.1879
9.0170,-0.8231,0.5931,-0.1879
9.0410,-0.8231,0.5931,-0.1879
9.0430,-0.8292,0.5985,-0.1879
9.0440,-0.8292,0.5985,-0.1879
9.0490,-0.8292,0.5985,-0.1879
9.0490,-0.8292,0.5985,-0.1879
9.0500,-0.8292,0.5985,-0.1879
9.0500,-0.8292,0.5985,-0.1879
9.0510,-0.8299,0.5992,-0.1811
9.0510,-0.8233,0.5963,-0.1806
9.0740,-0.8233,0.5963,-0.1806
9.0740,-0.8233,0.5963,-0.1806
9.0750,-0.8233,0.5963,-0.1806
9.0750,-0.8187,0.5968,-0.1843
9.0940,-0.8187,0.5968,-0.1843
9.0950,-0.8187,0.5968,-0.1843
9.0950,-0.8187,0.5968,-0.1843
9.0960,-0.8248,0.6029,-0.1901
9.0980,-0.8248,0.6029,-0.1901
9.1260,-0.8248,0.6029,-0.1901
9.1260,-0.8248,0.6029,-0.1901
9.1270,-0.8248,0.6029,-0.1901
9.1270,-0.8309,0.6002,-0.1965
9.1280,-0.8285,0.5936,-0.1962
9.1540,-0.8285,0.5936,-0.1962
9.1540,-0.8285,0.5936,-0.1962
9.1550,-0.8285,0.5936,-0.1962
9.1550,-0.8177,0.5914,-0.1894
9.1750,-0.8177,0.5914,-0.1894
9.1760,-0.8177,0.5914,-0.1894
9.1760,-0.8177,0.5914,-0.1894
9.1770,-0.8153,0.5929,-0.1899
9.1770,-0.8153,0.5929,-0.1899
9.2050,-0.8153,0.5929,-0.1899
9.2050,-0.8153,0.5929,-0.1899
9.2050,-0.8153,0.5929,-0.1899
9.2060,-0.8170,0.5953,-0.1984
9.2060,-0.8175,0.5939,-0.1958
9.2360,-0.8175,0.5939,-0.1958
9.2360,-0.8175,0.5939,-0.1958
9.2370,-0.8175,0.5939,-0.1958
9.2370,-0.8194,0.5912,-0.1928
9.2440,-0.8194,0.5912,-0.1928
9.2440,-0.8194,0.5912,-0.1928
9.2560,-0.8194,0.5912,-0.1928
9.2570,-0.8194,0.5912,-0.1928
9.2570,-0.8194,0.5912,-0.1928
9.2580,-0.8251,0.5958,-0.1911
9.2580,-0.8251,0.5958,-0.1911
9.2870,-0.8251,0.5958,-0.1911
9.2870,-0.8251,0.5958,-0.1911
9.2880,-0.8251,0.5958,-0.1911
9.2880,-0.8287,0.6019,-0.1923
9.2890,-0.8319,0.6000,-0.1918
9.3160,-0.8319,0.6000,-0.1918
9.3160,-0.8319,0.6000,-0.1918
9.3170,-0.8319,0.6000,-0.1918
9.3170,-0.8312,0.5983,-0.1838
9.3370,-0.8312,0.5983,-0.1838
9.3370,-0.8312,0.5983,-0.1838
9.3380,-0.8312,0.5983,-0.1838
9.3380,-0.8241,0.5978,-0.1784
9.3390,-0.8241,0.5978,-0.1784
9.3670,-0.8241,0.5978,-0.1784
9.3670,-0.8241,0.5978,-0.1784
9.3680,-0.8241,0.5978,-0.1784
9.3680,-0.8192,0.5919,-0.1835
9.3680,-0.8209,0.5922,-0.1972
9.3950,-0.8209,0.5922,-0.1972
9.3960,-0.8209,0.5922,-0.1972
9.3960,-0.8209,0.5922,-0.1972
9.3960,-0.8280,0.5992,-0.1953
9.4170,-0.8280,0.5992,-0.1953
9.4170,-0.8280,0.5992,-0.1953
9.4180,-0.8280,0.5992,-0.1953
9.4180,-0.8314,0.6007,-0.1872
9.4190,-0.8314,0.6007,-0.1872
9.4460,-0.8314,0.6007,-0.1872
9.4470,-0.8314,0.6007,-0.1872
9.4470,-0.8314,0.6007,-0.1872
9.4470,-0.8314,0.6007,-0.1872
9.4480,-0.8314,0.6007,-0.1872
9.4480,-0.8236,0.5970,-0.1867
9.4490,-0.8199,0.5983,-0.1906
9.4770,-0.8199,0.5983,-0.1906
9.4770,-0.8199,0.5983,-0.1906
9.4770,-0.8199,0.5983,-0.1906
9.4780,-0.8158,0.6014,-0.1926
9.4970,-0.8158,0.6014,-0.1926
9.4980,-0.8158,0.6014,-0.1926
9.4980,-0.8158,0.6014,-0.1926
9.4980,-0.8168,0.6014,-0.1889
9.4990,-0.8168,0.6014,-0.1889
9.5290,-0.8168,0.6014,-0.1889
9.5290,-0.8168,0.6014,-0.1889
9.5300,-0.8168,0.6014,-0.1889
9.5300,-0.8238,0.5944,-0.1862
9.5310,-0.8297,0.5961,-0.1867
9.5560,-0.8297,0.5961,-0.1867
9.5560,-0.8297,0.5961,-0.1867
9.5570,-0.8297,0.5961,-0.1867
9.5750,-0.8273,0.5980,-0.1882
9.5750,-0.8273,0.5980,-0.1882
9.5760,-0.8273,0.5980,-0.1882
9.5760,-0.8273,0.5980,-0.1882
9.5760,-0.8229,0.6000,-0.1911
9.5780,-0.8229,0.6000,-0.1911
9.6050,-0.8229,0.6000,-0.1911
9.6050,-0.8229,0.6000,-0.1911
9.6050,-0.8229,0.6000,-0.1911
9.6060,-0.8229,0.5966,-0.1877
9.6060,-0.8255,0.5902,-0.1791
9.6350,-0.8255,0.5902,-0.1791
9.6360,-0.8255,0.5902,-0.1791
9.6360,-0.8255,0.5902,-0.1791
9.6370,-0.8356,0.5922,-0.1838
9.6440,-0.8356,0.5922,-0.1838
9.6580,-0.8356,0.5922,-0.1838
9.6580,-0.8356,0.5922,-0.1838
9.6580,-0.8356,0.5922,-0.1838
9.6590,-0.8397,0.5985,-0.1845
9.6590,-0.8397,0.5985,-0.1845
9.6860,-0.8397,0.5985,-0.1845
9.6870,-0.8397,0.5985,-0.1845
9.6870,-0.8397,0.5985,-0.1845
9.6900,-0.8395,0.6076,-0.1760
9.6910,-0.8214,0.6085,-0.1684
9.7180,-0.8214,0.6085,-0.1684
9.7180,-0.8214,0.6085,-0.1684
9.7180,-0.8214,0.6085,-0.1684
9.7190,-0.7996,0.6019,-0.1821
9.7360,-0.7996,0.6019,-0.1821
9.7360,-0.7996,0.6019,-0.1821
9.7360,-0.7996,0.6019,-0.1821
9.7370,-0.7935,0.5953,-0.1955
9.7370,-0.7935,0.5953,-0.1955
9.7680,-0.7935,0.5953,-0.1955
9.7680,-0.7935,0.5953,-0.1955
9.7690,-0.7935,0.5953,-0.1955
9.7690,-0.8080,0.5975,-0.1960
9.7700,-0.8168,0.5992,-0.1894
9.7980,-0.8168,0.5992,-0.1894
9.7980,-0.8168,0.5992,-0.1894
9.7990,-0.8168,0.5992,-0.1894
9.7990,-0.8187,0.5934,-0.1794
9.8180,-0.8187,0.5934,-0.1794
9.8180,-0.8187,0.5934,-0.1794
9.8190,-0.8187,0.5934,-0.1794
9.8190,-0.8243,0.5939,-0.1786
9.8200,-0.8243,0.5939,-0.1786
9.8470,-0.8243,0.5939,-0.1786
9.8480,-0.8243,0.5939,-0.1786
9.8480,-0.8243,0.5939,-0.1786
9.8480,-0.8243,0.5939,-0.1786
9.8490,-0.8285,0.5968,-0.1777
9.8490,-0.8290,0.5983,-0.1755
9.8770,-0.8290,0.5983,-0.1755
9.8770,-0.8290,0.5983,-0.1755
9.8770,-0.8290,0.5983,-0.1755
9.8770,-0.8277,0.6022,-0.1799
9.8970,-0.8277,0.6022,-0.1799
9.8970,-0.8277,0.6022,-0.1799
9.8980,-0.8277,0.6022,-0.1799
9.8980,-0.8229,0.6022,-0.1852
9.8980,-0.8229,0.6022,-0.1852
9.9330,-0.8229,0.6022,-0.1852
9.9340,-0.8229,0.6022,-0.1852
9.9340,-0.8229,0.6022,-0.1852
9.9350,-0.8114,0.5980,-0.1862
9.9350,-0.8038,0.5919,-0.1884
9.9570,-0.8038,0.5919,-0.1884
9.9570,-0.8038,0.5919,-0.1884
9.9580,-0.8038,0.5919,-0.1884
9.9580,-0.8033,0.5863,-0.1852
9.9780,-0.8033,0.5863,-0.1852
9.9780,-0.8033,0.5863,-0.1852
9.9790,-0.8033,0.5863,-0.1852
9.9790,-0.8109,0.5882,-0.1862
9.9800,-0.8109,0.5882,-0.1862
10.0100,-0.8109,0.5882,-0.1862
10.0110,-0.8109,0.5882,-0.1862
10.0110,-0.8109,0.5882,-0.1862
10.0120,-0.8258,0.5985,-0.1874
10.0120,-0.8422,0.6107,-0.1799
10.0370,-0.8422,0.6107,-0.1799
10.0370,-0.8422,0.6107,-0.1799
10.0380,-0.8422,0.6107,-0.1799
10.0380,-0.8541,0.6181,-0.1862
10.0440,-0.8541,0.6181,-0.1862
10.0580,-0.8541,0.6181,-0.1862
10.0590,-0.8541,0.6181,-0.1862
10.0590,-0.8541,0.6181,-0.1862
10.0590,-0.8495,0.6124,-0.1950
10.0590,-0.8495,0.6124,-0.1950
10.0870,-0.8495,0.6124,-0.1950
10.0880,-0.8495,0.6124,-0.1950
10.0880,-0.8495,0.6124,-0.1950
10.0910,-0.8192,0.5988,-0.1921
10.0920,-0.7965,0.5941,-0.1953
10.1170,-0.7965,0.5941,-0.1953
10.1180,-0.7965,0.5941,-0.1953
10.1450,-0.7965,0.5941,-0.1953
10.1470,-0.7940,0.5975,-0.2002
10.1480,-0.7940,0.5975,-0.2002
10.1480,-0.7940,0.5975,-0.2002
10.1480,-0.7940,0.5975,-0.2002
10.1490,-0.8065,0.6017,-0.2019
10.1500,-0.8065,0.6017,-0.2019
10.1650,-0.8065,0.6017,-0.2019
10.1650,-0.8065,0.6017,-0.2019
10.1650,-0.8065,0.6017,-0.2019
10.1650,-0.8282,0.6039,-0.1950
10.1660,-0.8363,0.5988,-0.1813
10.1940,-0.8363,0.5988,-0.1813
10.1950,-0.8363,0.5988,-0.1813
10.1950,-0.8363,0.5988,-0.1813
10.1950,-0.8346,0.5975,-0.1755
10.2160,-0.8346,0.5975,-0.1755
10.2160,-0.8346,0.5975,-0.1755
10.2170,-0.8346,0.5975,-0.1755
10.2170,-0.8282,0.5953,-0.1830
10.2170,-0.8282,0.5953,-0.1830
10.2430,-0.8282,0.5953,-0.1830
10.2460,-0.8282,0.5953,-0.1830
10.2460,-0.8282,0.5953,-0.1830
10.2470,-0.8282,0.5953,-0.1830
10.2470,-0.8253,0.5929,-0.1962
10.2470,-0.8255,0.5914,-0.2006
10.2760,-0.8255,0.5914,-0.2006
10.2770,-0.8255,0.5914,-0.2006
10.2770,-0.8255,0.5914,-0.2006
10.2770,-0.8211,0.5892,-0.1975
10.2970,-0.8211,0.5892,-0.1975
10.2980,-0.8211,0.5892,-0.1975
10.2980,-0.8211,0.5892,-0.1975
10.2990,-0.8136,0.5895,-0.1867
10.2990,-0.8136,0.5895,-0.1867
10.3300,-0.8136,0.5895,-0.1867
10.3310,-0.8136,0.5895,-0.1867
10.3310,-0.8136,0.5895,-0.1867
10.3310,-0.8138,0.5914,-0.1823
10.3310,-0.8253,0.5983,-0.1933
10.3570,-0.8253,0.5983,-0.1933
10.3570,-0.8253,0.5983,-0.1933
10.3580,-0.8253,0.5983,-0.1933
10.3580,-0.8358,0.6002,-0.1892
10.3780,-0.8358,0.6002,-0.1892
10.3780,-0.8358,0.6002,-0.1892
10.3790,-0.8358,0.6002,-0.1892
10.3790,-0.8348,0.5995,-0.1852
10.3800,-0.8348,0.5995,-0.1852
10.4130,-0.8348,0.5995,-0.1852
10.4130,-0.8348,0.5995,-0.1852
10.4140,-0.8348,0.5995,-0.1852
10.4140,-0.8185,0.5956,-0.1818
10.4140,-0.8077,0.5931,-0.1816
10.4370,-0.8077,0.5931,-0.1816
10.4380,-0.8077,0.5931,-0.1816
10.4380,-0.8077,0.5931,-0.1816
10.4390,-0.8133,0.5961,-0.1982
10.4440,-0.8133,0.5961,-0.1982
10.4580,-0.8133,0.5961,-0.1982
10.4580,-0.8133,0.5961,-0.1982
10.4590,-0.8133,0.5961,-0.1982
10.4590,-0.8268,0.5968,-0.2082
10.4600,-0.8268,0.5968,-0.2082
10.4890,-0.8268,0.5968,-0.2082
10.4890,-0.8268,0.5968,-0.2082
10.4900,-0.8268,0.5968,-0.2082
10.4900,-0.8321,0.5975,-0.2050
10.4900,-0.8312,0.6000,-0.1862
10.5180,-0.8312,0.6000,-0.1862
10.5190,-0.8312,0.6000,-0.1862
10.5190,-0.8312,0.6000,-0.1862
10.5200,-0.8273,0.5988,-0.1708
10.5380,-0.8273,0.5988,-0.1708
10.5390,-0.8273,0.5988,-0.1708
10.5390,-0.8273,0.5988,-0.1708
10.5400,-0.8238,0.5992,-0.1764
10.5400,-0.8238,0.5992,-0.1764
10.5690,-0.8238,0.5992,-0.1764
10.5690,-0.8238,0.5992,-0.1764
10.5700,-0.8238,0.5992,-0.1764
10.5700,-0.8287,0.6022,-0.1918
10.5710,-0.8219,0.5926,-0.1830
10.6000,-0.8219,0.5926,-0.1830
10.6000,-0.8219,0.5926,-0.1830
10.6010,-0.8219,0.5926,-0.1830
10.6010,-0.8094,0.5887,-0.1857
10.6170,-0.8094,0.5887,-0.1857
10.6170,-0.8094,0.5887,-0.1857
10.6180,-0.8094,0.5887,-0.1857
10.6180,-0.8084,0.5997,-0.2014
10.6190,-0.8084,0.5997,-0.2014
10.6440,-0.8084,0.5997,-0.2014
10.6450,-0.8084,0.5997,-0.2014
10.6490,-0.8084,0.5997,-0.2014
10.6500,-0.8084,0.5997,-0.2014
10.6500,-0.8084,0.5997,-0.2014
10.6510,-0.8197,0.6024,-0.1967
10.6510,-0.8282,0.5936,-0.1889
10.6780,-0.8282,0.5936,-0.1889
10.6790,-0.8282,0.5936,-0.1889
10.6800,-0.8282,0.5936,-0.1889
10.6810,-0.8233,0.5941,-0.1821
10.6960,-0.8233,0.5941,-0.1821
10.6970,-0.8233,0.5941,-0.1821
10.6970,-0.8233,0.5941,-0.1821
10.6970,-0.8141,0.5980,-0.1789
10.6980,-0.8141,0.5980,-0.1789
10.7310,-0.8141,0.5980,-0.1789
10.7310,-0.8141,0.5980,-0.1789
10.7320,-0.8141,0.5980,-0.1789
10.7320,-0.8143,0.6049,-0.1811
10.7320,-0.8270,0.6049,-0.1874
10.7570,-0.8270,0.6049,-0.1874
10.7570,-0.8270,0.6049,-0.1874
10.7570,-0.8270,0.6049,-0.1874
10.7580,-0.8321,0.6024,-0.1882
10.7770,-0.8321,0.6024,-0.1882
10.7770,-0.8321,0.6024,-0.1882
10.7770,-0.8321,0.6024,-0.1882
10.7780,-0.8221,0.6005,-0.1838
10.7780,-0.8221,0.6005,-0.1838
10.8080,-0.8221,0.6005,-0.1838
10.8080,-0.8221,0.6005,-0.1838
10.8090,-0.8221,0.6005,-0.1838
10.8090,-0.8163,0.5985,-0.1911
10.8090,-0.8168,0.5953,-0.1923
10.8370,-0.8168,0.5953,-0.1923
10.8380,-0.8168,0.5953,-0.1923
10.8380,-0.8168,0.5953,-0.1923
10.8380,-0.8177,0.5978,-0.1884
10.8440,-0.8177,0.5978,-0.1884
10.8440,-0.8177,0.5978,-0.1884
10.8580,-0.8177,0.5978,-0.1884
10.8580,-0.8177,0.5978,-0.1884
10.8580,-0.8177,0.5978,-0.1884
10.8590,-0.8190,0.5975,-0.1921
10.8600,-0.8190,0.5975,-0.1921
10.8920,-0.8190,0.5975,-0.1921
10.8920,-0.8190,0.5975,-0.1921
10.8930,-0.8190,0.5975,-0.1921
10.8930,-0.8224,0.5924,-0.1945
10.8940,-0.8277,0.5941,-0.1899
10.9180,-0.8277,0.5941,-0.1899
10.9180,-0.8277,0.5941,-0.1899
10.9190,-0.8277,0.5941,-0.1899
10.9190,-0.8280,0.5975,-0.1877
10.9390,-0.8280,0.5975,-0.1877
10.9390,-0.8280,0.5975,-0.1877
10.9400,-0.8280,0.5975,-0.1877
10.9400,-0.8233,0.5985,-0.1940
10.9400,-0.8233,0.5985,-0.1940
10.9740,-0.8233,0.5985,-0.1940
10.9740,-0.8233,0.5985,-0.1940
10.9750,-0.8233,0.5985,-0.1940
10.9750,-0.8197,0.5973,-0.2006
10.9750,-0.8150,0.5941,-0.1965
10.9980,-0.8150,0.5941,-0.1965
10.9990,-0.8150,0.5941,-0.1965
10.9990,-0.8150,0.5941,-0.1965
11.0000,-0.8089,0.5922,-0.1872
11.0190,-0.8089,0.5922,-0.1872
11.0190,-0.8089,0.5922,-0.1872
11.0200,-0.8089,0.5922,-0.1872
11.0200,-0.8082,0.5939,-0.1984
11.0230,-0.8082,0.5939,-0.1984
11.0440,-0.8082,0.5939,-0.1984
11.0500,-0.8082,0.5939,-0.1984
11.0500,-0.8082,0.5939,-0.1984
11.0510,-0.8082,0.5939,-0.1984
11.0510,-0.8175,0.5988,-0.2026
11.0520,-0.8207,0.5975,-0.1779
11.0780,-0.8207,0.5975,-0.1779
11.0790,-0.8207,0.5975,-0.1779
11.0790,-0.8207,0.5975,-0.1779
11.0800,-0.8307,0.5904,-0.1889
11.0980,-0.8307,0.5904,-0.1889
11.0990,-0.8307,0.5904,-0.1889
11.0990,-0.8307,0.5904,-0.1889
11.1000,-0.8436,0.6014,-0.2109
11.1000,-0.8436,0.6014,-0.2109
11.1320,-0.8436,0.6014,-0.2109
11.1330,-0.8436,0.6014,-0.2109
11.1330,-0.8436,0.6014,-0.2109
11.1340,-0.8497,0.6066,-0.2112
11.1340,-0.8351,0.5931,-0.1830
11.1600,-0.8351,0.5931,-0.1830
11.1610,-0.8351,0.5931,-0.1830
11.1610,-0.8351,0.5931,-0.1830
11.1620,-0.8055,0.5934,-0.1852
11.1800,-0.8055,0.5934,-0.1852
11.1800,-0.8055,0.5934,-0.1852
11.1800,-0.8055,0.5934,-0.1852
11.1810,-0.7984,0.6017,-0.2033
11.1810,-0.7984,0.6017,-0.2033
11.2080,-0.7984,0.6017,-0.2033
11.2090,-0.7984,0.6017,-0.2033
11.2090,-0.7984,0.6017,-0.2033
11.2090,-0.8092,0.6044,-0.2126
11.2240,-0.8165,0.5973,-0.2038
11.2380,-0.8165,0.5973,-0.2038
11.2390,-0.8165,0.5973,-0.2038
11.2390,-0.8165,0.5973,-0.2038
11.2400,-0.8246,0.5970,-0.1999
11.2440,-0.8246,0.5970,-0.1999
11.2580,-0.8246,0.5970,-0.1999
11.2590,-0.8246,0.5970,-0.1999
11.2590,-0.8246,0.5970,-0.1999
11.2600,-0.8331,0.6034,-0.2028
11.2600,-0.8331,0.6034,-0.2028
11.2970,-0.8331,0.6034,-0.2028
11.2980,-0.8331,0.6034,-0.2028
11.2980,-0.8331,0.6034,-0.2028
11.2980,-0.8390,0.6022,-0.2043
11.2990,-0.8321,0.5944,-0.1879
11.3190,-0.8321,0.5944,-0.1879
11.3190,-0.8321,0.5944,-0.1879
11.3200,-0.8321,0.5944,-0.1879
11.3200,-0.8150,0.5939,-0.1882
11.3390,-0.8150,0.5939,-0.1882
11.3400,-0.8150,0.5939,-0.1882
11.3400,-0.8150,0.5939,-0.1882
11.3400,-0.8089,0.5902,-0.1879
11.3400,-0.8089,0.5902,-0.1879
11.3690,-0.8089,0.5902,-0.1879
11.3700,-0.8089,0.5902,-0.1879
11.3700,-0.8089,0.5902,-0.1879
11.3710,-0.8229,0.5983,-0.1926
11.3710,-0.8348,0.6027,-0.1909
11.3990,-0.8348,0.6027,-0.1909
11.3990,-0.8348,0.6027,-0.1909
11.4000,-0.8348,0.6027,-0.1909
11.4000,-0.8285,0.5985,-0.1914
11.4200,-0.8285,0.5985,-0.1914
11.4210,-0.8285,0.5985,-0.1914
11.4210,-0.8285,0.5985,-0.1914
11.4220,-0.8141,0.5929,-0.1948
11.4220,-0.8141,0.5929,-0.1948
11.4470,-0.8141,0.5929,-0.1948
11.4480,-0.8141,0.5929,-0.1948
11.4480,-0.8141,0.5929,-0.1948
11.4490,-0.8141,0.5929,-0.1948
11.4490,-0.8141,0.5929,-0.1948
11.4500,-0.8028,0.5931,-0.2068
11.4500,-0.7970,0.5956,-0.2019
11.4800,-0.7970,0.5956,-0.2019
11.4800,-0.7970,0.5956,-0.2019
11.4810,-0.7970,0.5956,-0.2019
11.4810,-0.8033,0.5958,-0.1887
11.5000,-0.8033,0.5958,-0.1887
11.5000,-0.8033,0.5958,-0.1887
11.5010,-0.8033,0.5958,-0.1887
11.5010,-0.8202,0.5985,-0.1884
11.5020,-0.8202,0.5985,-0.1884
11.5310,-0.8202,0.5985,-0.1884
11.5320,-0.8202,0.5985,-0.1884
11.5320,-0.8202,0.5985,-0.1884
11.5320,-0.8365,0.6049,-0.1967
11.5320,-0.8397,0.6014,-0.1877
11.5600,-0.8397,0.6014,-0.1877
11.5600,-0.8397,0.6014,-0.1877
11.5600,-0.8397,0.6014,-0.1877
11.5600,-0.8336,0.5970,-0.1804
11.5800,-0.8336,0.5970,-0.1804
11.5800,-0.8336,0.5970,-0.1804
11.5810,-0.8336,0.5970,-0.1804
11.5810,-0.8273,0.5988,-0.1818
11.5810,-0.8273,0.5988,-0.1818
11.6100,-0.8273,0.5988,-0.1818
11.6110,-0.8273,0.5988,-0.1818
11.6110,-0.8273,0.5988,-0.1818
11.6120,-0.8175,0.5963,-0.1794
11.6120,-0.8114,0.5917,-0.1872
11.6430,-0.8114,0.5917,-0.1872
11.6430,-0.8114,0.5917,-0.1872
11.6440,-0.8114,0.5917,-0.1872
11.6440,-0.8158,0.5963,-0.2055
11.6450,-0.8158,0.5963,-0.2055
11.6450,-0.8158,0.5963,-0.2055
11.6610,-0.8158,0.5963,-0.2055
11.6610,-0.8158,0.5963,-0.2055
11.6620,-0.8158,0.5963,-0.2055
11.6620,-0.8251,0.6000,-0.2055
11.6620,-0.8251,0.6000,-0.2055
11.6930,-0.8251,0.6000,-0.2055
11.6930,-0.8251,0.6000,-0.2055
11.6940,-0.8251,0.6000,-0.2055
11.6940,-0.8229,0.5939,-0.1899
11.6950,-0.8224,0.5948,-0.1806
11.7200,-0.8224,0.5948,-0.1806
11.7200,-0.8224,0.5948,-0.1806
11.7210,-0.8224,0.5948,-0.1806
11.7210,-0.8211,0.6041,-0.1953
11.7410,-0.8211,0.6041,-0.1953
11.7420,-0.8211,0.6041,-0.1953
11.7420,-0.8211,0.6041,-0.1953
11.7420,-0.8185,0.6039,-0.1962
11.7430,-0.8185,0.6039,-0.1962
11.7750,-0.8185,0.6039,-0.1962
11.8070,-0.8185,0.6039,-0.1962
11.8080,-0.8185,0.6039,-0.1962
11.8080,-0.8209,0.5953,-0.1896
11.8080,-0.8273,0.5939,-0.1887
11.8090,-0.8273,0.5939,-0.1887
11.8090,-0.8273,0.5939,-0.1887
11.8100,-0.8273,0.5939,-0.1887
11.8100,-0.8258,0.5990,-0.1938
11.8180,-0.8258,0.5990,-0.1938
11.8190,-0.8258,0.5990,-0.1938
11.8190,-0.8258,0.5990,-0.1938
11.8190,-0.8211,0.5997,-0.1980
11.8190,-0.8211,0.5997,-0.1980
11.8430,-0.8211,0.5997,-0.1980
11.8480,-0.8211,0.5997,-0.1980
11.8490,-0.8211,0.5997,-0.1980
11.8490,-0.8211,0.5997,-0.1980
11.8490,-0.8153,0.6032,-0.1906
11.8490,-0.8077,0.6019,-0.1823
11.8770,-0.8077,0.6019,-0.1823
11.8780,-0.8077,0.6019,-0.1823
11.8780,-0.8077,0.6019,-0.1823
11.8790,-0.8072,0.6019,-0.1911
11.8990,-0.8072,0.6019,-0.1911
11.9000,-0.8072,0.6019,-0.1911
11.9000,-0.8072,0.6019,-0.1911
11.9000,-0.8192,0.6090,-0.1989
11.9010,-0.8192,0.6090,-0.1989
11.9300,-0.8192,0.6090,-0.1989
11.9300,-0.8192,0.6090,-0.1989
11.9300,-0.8192,0.6090,-0.1989
11.9310,-0.8292,0.6161,-0.1980
11.9310,-0.8236,0.6036,-0.1882
11.9590,-0.8236,0.6036,-0.1882
11.9600,-0.8236,0.6036,-0.1882
11.9600,-0.8236,0.6036,-0.1882
11.9600,-0.8124,0.5929,-0.1791
11.9800,-0.8124,0.5929,-0.1791
11.9810,-0.8124,0.5929,-0.1791
11.9810,-0.8124,0.5929,-0.1791
11.9810,-0.8116,0.5985,-0.1843
11.9820,-0.8116,0.5985,-0.1843
12.0140,-0.8116,0.5985,-0.1843
12.0150,-0.8116,0.5985,-0.1843
12.0150,-0.8116,0.5985,-0.1843
12.0160,-0.8185,0.6007,-0.1916
12.0160,-0.8231,0.5983,-0.1923
12.0440,-0.8231,0.5983,-0.1923
12.0440,-0.8231,0.5983,-0.1923
12.0440,-0.8231,0.5983,-0.1923
12.0450,-0.8255,0.5956,-0.1914
12.0450,-0.8255,0.5956,-0.1914
12.0610,-0.8255,0.5956,-0.1914
12.0620,-0.8255,0.5956,-0.1914
12.0620,-0.8255,0.5956,-0.1914
12.0620,-0.8233,0.5968,-0.1874
12.0630,-0.8233,0.5968,-0.1874
12.0940,-0.8233,0.5968,-0.1874
12.0940,-0.8233,0.5968,-0.1874
12.0950,-0.8233,0.5968,-0.1874
12.0950,-0.8224,0.5992,-0.1877
12.0960,-0.8251,0.6041,-0.1857
12.1200,-0.8251,0.6041,-0.1857
12.1210,-0.8251,0.6041,-0.1857
12.1210,-0.8251,0.6041,-0.1857
12.1220,-0.8302,0.6068,-0.1887
12.1410,-0.8302,0.6068,-0.1887
12.1420,-0.8302,0.6068,-0.1887
12.1420,-0.8302,0.6068,-0.1887
12.1430,-0.8253,0.6024,-0.1860
12.1430,-0.8253,0.6024,-0.1860
12.1770,-0.8253,0.6024,-0.1860
12.1770,-0.8253,0.6024,-0.1860
12.1770,-0.8253,0.6024,-0.1860
12.1770,-0.8163,0.5968,-0.1828
12.1780,-0.8080,0.5995,-0.1855
12.2000,-0.8080,0.5995,-0.1855
12.2010,-0.8080,0.5995,-0.1855
12.2010,-0.8080,0.5995,-0.1855
12.2020,-0.8155,0.6071,-0.1865
12.2210,-0.8155,0.6071,-0.1865
12.2210,-0.8155,0.6071,-0.1865
12.2220,-0.8155,0.6071,-0.1865
12.2220,-0.8275,0.6100,-0.1950
12.2230,-0.8275,0.6100,-0.1950
12.2450,-0.8275,0.6100,-0.1950
12.2510,-0.8275,0.6100,-0.1950
12.2520,-0.8275,0.6100,-0.1950
12.2520,-0.8275,0.6100,-0.1950
12.2530,-0.8295,0.6034,-0.2004
12.2540,-0.8229,0.5978,-0.1911
12.2800,-0.8229,0.5978,-0.1911
12.2800,-0.8229,0.5978,-0.1911
12.2810,-0.8229,0.5978,-0.1911
12.2810,-0.8163,0.6017,-0.1838
12.3010,-0.8163,0.6017,-0.1838
12.3010,-0.8163,0.6017,-0.1838
12.3020,-0.8163,0.6017,-0.1838
12.3020,-0.8136,0.6078,-0.1840
12.3020,-0.8136,0.6078,-0.1840
12.3300,-0.8136,0.6078,-0.1840
12.3300,-0.8136,0.6078,-0.1840
12.3310,-0.8136,0.6078,-0.1840
12.3310,-0.8106,0.5992,-0.1882
12.3310,-0.8158,0.5961,-0.1933
12.3580,-0.8158,0.5961,-0.1933
12.3580,-0.8158,0.5961,-0.1933
12.3590,-0.8158,0.5961,-0.1933
12.3590,-0.8219,0.6017,-0.1950
12.3800,-0.8219,0.6017,-0.1950
12.3800,-0.8219,0.6017,-0.1950
12.3800,-0.8219,0.6017,-0.1950
12.3810,-0.8309,0.6098,-0.1845
12.3810,-0.8309,0.6098,-0.1845
12.4120,-0.8309,0.6098,-0.1845
12.4120,-0.8309,0.6098,-0.1845
12.4130,-0.8309,0.6098,-0.1845
12.4130,-0.8299,0.6102,-0.1740
12.4130,-0.8214,0.6022,-0.1725
12.4440,-0.8214,0.6022,-0.1725
12.4450,-0.8214,0.6022,-0.1725
12.4450,-0.8214,0.6022,-0.1725
12.4460,-0.8165,0.5958,-0.1843
12.4460,-0.8165,0.5958,-0.1843
12.4590,-0.8165,0.5958,-0.1843
12.4600,-0.8165,0.5958,-0.1843
12.4600,-0.8165,0.5958,-0.1843
12.4610,-0.8177,0.5985,-0.1955
12.4610,-0.8177,0.5985,-0.1955
12.4900,-0.8177,0.5985,-0.1955
12.4910,-0.8177,0.5985,-0.1955
12.4910,-0.8177,0.5985,-0.1955
12.4920,-0.8209,0.6007,-0.1958
12.4920,-0.8190,0.5944,-0.1764
12.5200,-0.8190,0.5944,-0.1764
12.5200,-0.8190,0.5944,-0.1764
12.5200,-0.8190,0.5944,-0.1764
12.5210,-0.8150,0.5929,-0.1728
12.5410,-0.8150,0.5929,-0.1728
12.5420,-0.8150,0.5929,-0.1728
12.5420,-0.8150,0.5929,-0.1728
12.5420,-0.8109,0.5988,-0.1928
12.5420,-0.8109,0.5988,-0.1928
12.5720,-0.8109,0.5988,-0.1928
12.5730,-0.8109,0.5988,-0.1928
12.5730,-0.8109,0.5988,-0.1928
12.5740,-0.8119,0.6010,-0.1911
12.5740,-0.8163,0.6049,-0.1855
12.6010,-0.8163,0.6049,-0.1855
12.6010,-0.8163,0.6049,-0.1855
12.6010,-0.8163,0.6049,-0.1855
12.6020,-0.8168,0.6112,-0.1950
12.6210,-0.8168,0.6112,-0.1950
12.6220,-0.8168,0.6112,-0.1950
12.6220,-0.8168,0.6112,-0.1950
12.6220,-0.8192,0.6139,-0.2014
12.6230,-0.8192,0.6139,-0.2014
12.6450,-0.8192,0.6139,-0.2014
12.6540,-0.8192,0.6139,-0.2014
12.6540,-0.8192,0.6139,-0.2014
12.6550,-0.8192,0.6139,-0.2014
12.6550,-0.8194,0.6100,-0.1975
12.6550,-0.8192,0.6083,-0.1877
12.6820,-0.8192,0.6083,-0.1877
12.6820,-0.8192,0.6083,-0.1877
12.6820,-0.8192,0.6083,-0.1877
12.6830,-0.8155,0.6088,-0.1840
12.7010,-0.8155,0.6088,-0.1840
12.7010,-0.8155,0.6088,-0.1840
12.7020,-0.8155,0.6088,-0.1840
12.7020,-0.8148,0.6051,-0.1850
12.7020,-0.8148,0.6051,-0.1850
12.7330,-0.8148,0.6051,-0.1850
12.7330,-0.8148,0.6051,-0.1850
12.7340,-0.8148,0.6051,-0.1850
12.7340,-0.8175,0.6039,-0.1835
12.7340,-0.8168,0.6046,-0.1877
12.7610,-0.8168,0.6046,-0.1877
12.7610,-0.8168,0.6046,-0.1877
12.7620,-0.8168,0.6046,-0.1877
12.7620,-0.8148,0.6073,-0.1882
12.7820,-0.8148,0.6073,-0.1882
12.7830,-0.8148,0.6073,-0.1882
12.7830,-0.8148,0.6073,-0.1882
12.7840,-0.8216,0.6058,-0.1879
12.7840,-0.8216,0.6058,-0.1879
12.8110,-0.8216,0.6058,-0.1879
12.8110,-0.8216,0.6058,-0.1879
12.8120,-0.8216,0.6058,-0.1879
12.8120,-0.8241,0.6051,-0.1904
12.8130,-0.8204,0.6010,-0.1857
12.8460,-0.8204,0.6010,-0.1857
12.8470,-0.8204,0.6010,-0.1857
12.8470,-0.8204,0.6010,-0.1857
12.8470,-0.8160,0.6056,-0.1857
12.8540,-0.8160,0.6056,-0.1857
12.8620,-0.8160,0.6056,-0.1857
12.8620,-0.8160,0.6056,-0.1857
12.8630,-0.8160,0.6056,-0.1857
12.8630,-0.8116,0.6078,-0.1933
12.8810,-0.8116,0.6078,-0.1933
12.8920,-0.8116,0.6078,-0.1933
12.8930,-0.8116,0.6078,-0.1933
12.8930,-0.8116,0.6078,-0.1933
12.8940,-0.8136,0.6024,-0.1999
12.8940,-0.8209,0.6061,-0.1960
12.9210,-0.8209,0.6061,-0.1960
12.9210,-0.8209,0.6061,-0.1960
12.9210,-0.8209,0.6061,-0.1960
12.9220,-0.8246,0.6068,-0.1848
12.9420,-0.8246,0.6068,-0.1848
12.9420,-0.8246,0.6068,-0.1848
12.9420,-0.8246,0.6068,-0.1848
12.9430,-0.8226,0.6049,-0.1801
12.9440,-0.8226,0.6049,-0.1801
12.9750,-0.8226,0.6049,-0.1801
12.9750,-0.8226,0.6049,-0.1801
12.9760,-0.8226,0.6049,-0.1801
12.9770,-0.8233,0.6000,-0.1840
12.9770,-0.8287,0.5912,-0.1830
13.0020,-0.8287,0.5912,-0.1830
13.0030,-0.8287,0.5912,-0.1830
13.0030,-0.8287,0.5912,-0.1830
13.0040,-0.8255,0.5907,-0.1811
13.0220,-0.8255,0.5907,-0.1811
13.0230,-0.8255,0.5907,-0.1811
13.0230,-0.8255,0.5907,-0.1811
13.0240,-0.8246,0.5961,-0.1840
13.0240,-0.8246,0.5961,-0.1840
13.0440,-0.8246,0.5961,-0.1840
13.0540,-0.8246,0.5961,-0.1840
13.0550,-0.8246,0.5961,-0.1840
13.0550,-0.8246,0.5961,-0.1840
13.0560,-0.8253,0.5995,-0.1906
13.0560,-0.8229,0.5956,-0.1965
13.0820,-0.8229,0.5956,-0.1965
13.0820,-0.8229,0.5956,-0.1965
13.0830,-0.8229,0.5956,-0.1965
13.0830,-0.8165,0.5931,-0.2016
13.1030,-0.8165,0.5931,-0.2016
13.1040,-0.8165,0.5931,-0.2016
13.1040,-0.8165,0.5931,-0.2016
13.1040,-0.8150,0.5948,-0.1992
13.1050,-0.8150,0.5948,-0.1992
13.1360,-0.8150,0.5948,-0.1992
13.1370,-0.8150,0.5948,-0.1992
13.1370,-0.8150,0.5948,-0.1992
13.1380,-0.8175,0.5953,-0.1906
13.1380,-0.8182,0.6010,-0.1962
13.1620,-0.8182,0.6010,-0.1962
13.1620,-0.8182,0.6010,-0.1962
13.1630,-0.8182,0.6010,-0.1962
13.1630,-0.8204,0.6002,-0.2043
13.1820,-0.8204,0.6002,-0.2043
13.1820,-0.8204,0.6002,-0.2043
13.1830,-0.8204,0.6002,-0.2043
13.1830,-0.8251,0.5985,-0.1980
13.1830,-0.8251,0.5985,-0.1980
13.2140,-0.8251,0.5985,-0.1980
13.2140,-0.8251,0.5985,-0.1980
13.2140,-0.8251,0.5985,-0.1980
13.2150,-0.8265,0.5985,-0.1877
13.2150,-0.8209,0.5958,-0.1801
13.2470,-0.8209,0.5958,-0.1801
13.2470,-0.8209,0.5958,-0.1801
13.2480,-0.8209,0.5958,-0.1801
13.2480,-0.8192,0.5988,-0.1811
13.2480,-0.8192,0.5988,-0.1811
13.2630,-0.8192,0.5988,-0.1811
13.2630,-0.8192,0.5988,-0.1811
13.2640,-0.8192,0.5988,-0.1811
13.2640,-0.8260,0.6010,-0.1860
13.2650,-0.8260,0.6010,-0.1860
13.2900,-0.8260,0.6010,-0.1860
13.2900,-0.8260,0.6010,-0.1860
13.2910,-0.8260,0.6010,-0.1860
13.2910,-0.8287,0.5956,-0.1857
13.2910,-0.8241,0.5890,-0.1855
13.3210,-0.8241,0.5890,-0.1855
13.3220,-0.8241,0.5890,-0.1855
13.3220,-0.8241,0.5890,-0.1855
13.3220,-0.8243,0.5922,-0.1938
13.3420,-0.8243,0.5922,-0.1938
13.3420,-0.8243,0.5922,-0.1938
13.3430,-0.8243,0.5922,-0.1938
13.3430,-0.8287,0.5980,-0.1997
13.3430,-0.8287,0.5980,-0.1997
13.3700,-0.8287,0.5980,-0.1997
13.3700,-0.8287,0.5980,-0.1997
13.3710,-0.8287,0.5980,-0.1997
13.3710,-0.8251,0.5990,-0.1906
13.3720,-0.8243,0.5992,-0.1789
13.3990,-0.8243,0.5992,-0.1789
13.4000,-0.8243,0.5992,-0.1789
13.4000,-0.8243,0.5992,-0.1789
13.4000,-0.8163,0.6036,-0.1850
13.4200,-0.8163,0.6036,-0.1850
13.4200,-0.8163,0.6036,-0.1850
13.4200,-0.8163,0.6036,-0.1850
13.4210,-0.8143,0.6007,-0.1982
13.4300,-0.8143,0.6007,-0.1982
13.4430,-0.8143,0.6007,-0.1982
13.4430,-0.8143,0.6007,-0.1982
13.4510,-0.8143,0.6007,-0.1982
13.4510,-0.8143,0.6007,-0.1982
13.4510,-0.8143,0.6007,-0.1982
13.4510,-0.8268,0.5975,-0.2004
13.4520,-0.8339,0.5978,-0.1914
13.4790,-0.8339,0.5978,-0.1914
13.4790,-0.8339,0.5978,-0.1914
13.4790,-0.8339,0.5978,-0.1914
13.4800,-0.8260,0.5980,-0.1821
13.5000,-0.8260,0.5980,-0.1821
13.5000,-0.8260,0.5980,-0.1821
13.5010,-0.8260,0.5980,-0.1821
13.5010,-0.8216,0.5936,-0.1872
13.5010,-0.8216,0.5936,-0.1872
13.5340,-0.8216,0.5936,-0.1872
13.5340,-0.8216,0.5936,-0.1872
13.5350,-0.8216,0.5936,-0.1872
13.5350,-0.8231,0.5897,-0.1906
13.5350,-0.8236,0.5904,-0.1894
13.5620,-0.8236,0.5904,-0.1894
13.5620,-0.8236,0.5904,-0.1894
13.5630,-0.8236,0.5904,-0.1894
13.5630,-0.8214,0.5951,-0.1921
13.5840,-0.8214,0.5951,-0.1921
13.5840,-0.8214,0.5951,-0.1921
13.5850,-0.8214,0.5951,-0.1921
13.5850,-0.8241,0.5944,-0.1904
13.5860,-0.8241,0.5944,-0.1904
13.6120,-0.8241,0.5944,-0.1904
13.6130,-0.8241,0.5944,-0.1904
13.6130,-0.8241,0.5944,-0.1904
13.6140,-0.8238,0.5973,-0.1865
13.6140,-0.8207,0.5944,-0.1860
13.6440,-0.8207,0.5944,-0.1860
13.6450,-0.8207,0.5944,-0.1860
13.6450,-0.8207,0.5944,-0.1860
13.6460,-0.8207,0.5944,-0.1860
13.6460,-0.8216,0.5970,-0.1943
13.6620,-0.8216,0.5970,-0.1943
13.6630,-0.8216,0.5970,-0.1943
13.6630,-0.8216,0.5970,-0.1943
13.6640,-0.8275,0.5961,-0.1916
13.6640,-0.8275,0.5961,-0.1916
13.6930,-0.8275,0.5961,-0.1916
13.6930,-0.8275,0.5961,-0.1916
13.6940,-0.8275,0.5961,-0.1916
13.6940,-0.8292,0.5934,-0.1916
13.6950,-0.8280,0.5912,-0.1874
13.7220,-0.8280,0.5912,-0.1874
13.7220,-0.8280,0.5912,-0.1874
13.7230,-0.8280,0.5912,-0.1874
13.7230,-0.8175,0.5948,-0.1911
13.7430,-0.8175,0.5948,-0.1911
13.7430,-0.8175,0.5948,-0.1911
13.7440,-0.8175,0.5948,-0.1911
13.7440,-0.8126,0.5958,-0.1945
13.7450,-0.8126,0.5958,-0.1945
13.7720,-0.8126,0.5958,-0.1945
13.7730,-0.8126,0.5958,-0.1945
13.7730,-0.8126,0.5958,-0.1945
13.7740,-0.8168,0.5997,-0.1901
13.7740,-0.8199,0.6054,-0.1870
13.8020,-0.8199,0.6054,-0.1870
13.8020,-0.8199,0.6054,-0.1870
13.8030,-0.8199,0.6054,-0.1870
13.8030,-0.8175,0.5997,-0.1852
13.8230,-0.8175,0.5997,-0.1852
13.8230,-0.8175,0.5997,-0.1852
13.8230,-0.8175,0.5997,-0.1852
13.8240,-0.8136,0.5956,-0.1860
13.8240,-0.8136,0.5956,-0.1860
13.8460,-0.8136,0.5956,-0.1860
13.8470,-0.8136,0.5956,-0.1860
13.8570,-0.8136,0.5956,-0.1860
13.8570,-0.8136,0.5956,-0.1860
13.8580,-0.8136,0.5956,-0.1860
13.8580,-0.8182,0.6027,-0.1899
13.8580,-0.8285,0.6085,-0.1936
13.8820,-0.8285,0.6085,-0.1936
13.8830,-0.8285,0.6085,-0.1936
13.8830,-0.8285,0.6085,-0.1936
13.8840,-0.8324,0.6080,-0.1950
13.9040,-0.8324,0.6080,-0.1950
13.9040,-0.8324,0.6080,-0.1950
13.9050,-0.8324,0.6080,-0.1950
13.9050,-0.8255,0.6039,-0.1955
13.9060,-0.8255,0.6039,-0.1955
13.9340,-0.8255,0.6039,-0.1955
13.9340,-0.8255,0.6039,-0.1955
13.9350,-0.8255,0.6039,-0.1955
13.9350,-0.8185,0.5970,-0.1882
13.9350,-0.8121,0.6012,-0.1896
13.9630,-0.8121,0.6012,-0.1896
13.9630,-0.8121,0.6012,-0.1896
13.9640,-0.8121,0.6012,-0.1896
13.9640,-0.8099,0.6076,-0.1899
13.9840,-0.8099,0.6076,-0.1899
14.0060,-0.8099,0.6076,-0.1899
14.0060,-0.8099,0.6076,-0.1899
14.0060,-0.8190,0.6046,-0.1965
14.0070,-0.8190,0.6046,-0.1965
14.0110,-0.8190,0.6046,-0.1965
14.0120,-0.8190,0.6046,-0.1965
14.0120,-0.8190,0.6046,-0.1965
14.0120,-0.8270,0.5988,-0.1916
14.0130,-0.8226,0.5978,-0.1823
14.0430,-0.8226,0.5978,-0.1823
14.0440,-0.8226,0.5978,-0.1823
14.0450,-0.8226,0.5978,-0.1823
14.0450,-0.8226,0.5978,-0.1823
14.0450,-0.8136,0.6041,-0.1872
14.0620,-0.8136,0.6041,-0.1872
14.0630,-0.8136,0.6041,-0.1872
14.0630,-0.8136,0.6041,-0.1872
14.0640,-0.8124,0.6088,-0.1843
14.0640,-0.8124,0.6088,-0.1843
14.0920,-0.8124,0.6088,-0.1843
14.0920,-0.8124,0.6088,-0.1843
14.0920,-0.8124,0.6088,-0.1843
14.0930,-0.8170,0.6080,-0.1782
14.0930,-0.8165,0.6080,-0.1918
14.1210,-0.8165,0.6080,-0.1918
14.1220,-0.8165,0.6080,-0.1918
14.1220,-0.8165,0.6080,-0.1918
14.1230,-0.8106,0.6129,-0.2014
14.1430,-0.8106,0.6129,-0.2014
14.1440,-0.8106,0.6129,-0.2014
14.1440,-0.8106,0.6129,-0.2014
14.1450,-0.8143,0.6161,-0.2033
14.1450,-0.8143,0.6161,-0.2033
14.1740,-0.8143,0.6161,-0.2033
14.1750,-0.8143,0.6161,-0.2033
14.1750,-0.8143,0.6161,-0.2033
14.1760,-0.8148,0.6102,-0.2004
14.1760,-0.8089,0.6034,-0.1921
14.2050,-0.8089,0.6034,-0.1921
14.2060,-0.8089,0.6034,-0.1921
14.2100,-0.8089,0.6034,-0.1921
14.2110,-0.8099,0.6049,-0.1877
14.2230,-0.8099,0.6049,-0.1877
14.2240,-0.8099,0.6049,-0.1877
14.2240,-0.8099,0.6049,-0.1877
14.2250,-0.8148,0.6056,-0.1828
14.2250,-0.8148,0.6056,-0.1828
14.2440,-0.8148,0.6056,-0.1828
14.2530,-0.8148,0.6056,-0.1828
14.2530,-0.8148,0.6056,-0.1828
14.2540,-0.8148,0.6056,-0.1828
14.2540,-0.8143,0.6063,-0.1840
14.2550,-0.8114,0.6102,-0.1867
14.2820,-0.8114,0.6102,-0.1867
14.2830,-0.8114,0.6102,-0.1867
14.2830,-0.8114,0.6102,-0.1867
14.2840,-0.8175,0.6139,-0.1860
14.3040,-0.8175,0.6139,-0.1860
14.3040,-0.8175,0.6139,-0.1860
14.3050,-0.8175,0.6139,-0.1860
14.3050,-0.8158,0.6195,-0.1887
14.3050,-0.8158,0.6195,-0.1887
14.3330,-0.8158,0.6195,-0.1887
14.3340,-0.8158,0.6195,-0.1887
14.3340,-0.8158,0.6195,-0.1887
14.3340,-0.8138,0.6151,-0.1789
14.3350,-0.8119,0.6142,-0.1777
14.3640,-0.8119,0.6142,-0.1777
14.3640,-0.8119,0.6142,-0.1777
14.3650,-0.8119,0.6142,-0.1777
14.3650,-0.8163,0.6127,-0.1799
14.3840,-0.8163,0.6127,-0.1799
14.3840,-0.8163,0.6127,-0.1799
14.3850,-0.8163,0.6127,-0.1799
14.3850,-0.8077,0.6095,-0.1857
14.3860,-0.8077,0.6095,-0.1857
14.4160,-0.8077,0.6095,-0.1857
14.4160,-0.8077,0.6095,-0.1857
14.4170,-0.8077,0.6095,-0.1857
14.4170,-0.8187,0.6076,-0.1826
14.4170,-0.8197,0.6022,-0.1686
14.4470,-0.8197,0.6022,-0.1686
14.4470,-0.8197,0.6022,-0.1686
14.4480,-0.8197,0.6022,-0.1686
14.4480,-0.8197,0.6022,-0.1686
14.4490,-0.8204,0.6200,-0.1953
14.4650,-0.8204,0.6200,-0.1953
14.4660,-0.8204,0.6200,-0.1953
14.4660,-0.8204,0.6200,-0.1953
14.4670,-0.8109,0.6149,-0.2087
14.4670,-0.8109,0.6149,-0.2087
14.4960,-0.8109,0.6149,-0.2087
14.4970,-0.8109,0.6149,-0.2087
14.4970,-0.8109,0.6149,-0.2087
14.4980,-0.7957,0.6044,-0.1914
14.4980,-0.7904,0.6129,-0.1918
14.5240,-0.7904,0.6129,-0.1918
14.5250,-0.7904,0.6129,-0.1918
14.5250,-0.7904,0.6129,-0.1918
14.5250,-0.8011,0.6212,-0.1860
14.5440,-0.8011,0.6212,-0.1860
14.5450,-0.8011,0.6212,-0.1860
14.5450,-0.8011,0.6212,-0.1860
14.5450,-0.8204,0.6203,-0.1877
14.5460,-0.8204,0.6203,-0.1877
14.5730,-0.8204,0.6203,-0.1877
14.5730,-0.8204,0.6203,-0.1877
14.5740,-0.8204,0.6203,-0.1877
14.5740,-0.8255,0.6137,-0.1892
14.5750,-0.8299,0.6076,-0.1838
14.6030,-0.8299,0.6076,-0.1838
14.6030,-0.8299,0.6076,-0.1838
14.6040,-0.8299,0.6076,-0.1838
14.6040,-0.8312,0.6063,-0.1892
14.6240,-0.8312,0.6063,-0.1892
14.6240,-0.8312,0.6063,-0.1892
14.6250,-0.8312,0.6063,-0.1892
14.6250,-0.8248,0.6007,-0.1896
14.6260,-0.8248,0.6007,-0.1896
14.6450,-0.8248,0.6007,-0.1896
14.6530,-0.8248,0.6007,-0.1896
14.6540,-0.8248,0.6007,-0.1896
14.6540,-0.8248,0.6007,-0.1896
14.6540,-0.8133,0.5968,-0.1782
14.6550,-0.8197,0.6061,-0.1923
14.6830,-0.8197,0.6061,-0.1923
14.6840,-0.8197,0.6061,-0.1923
14.6840,-0.8197,0.6061,-0.1923
14.6840,-0.8165,0.6132,-0.2043
14.7040,-0.8165,0.6132,-0.2043
14.7050,-0.8165,0.6132,-0.2043
14.7050,-0.8165,0.6132,-0.2043
14.7080,-0.8080,0.6122,-0.2024
14.7090,-0.8080,0.6122,-0.2024
14.7340,-0.8080,0.6122,-0.2024
14.7340,-0.8080,0.6122,-0.2024
14.7350,-0.8080,0.6122,-0.2024
14.7350,-0.8026,0.6039,-0.1916
14.7360,-0.8082,0.6085,-0.1953
14.7640,-0.8082,0.6085,-0.1953
14.7650,-0.8082,0.6085,-0.1953
14.7650,-0.8082,0.6085,-0.1953
14.7650,-0.8092,0.6095,-0.1994
14.7880,-0.8092,0.6095,-0.1994
14.7890,-0.8092,0.6095,-0.1994
14.7890,-0.8092,0.6095,-0.1994
14.7900,-0.8062,0.6137,-0.1958
14.7900,-0.8062,0.6137,-0.1958
14.8150,-0.8062,0.6137,-0.1958
14.8150,-0.8062,0.6137,-0.1958
14.8150,-0.8062,0.6137,-0.1958
14.8160,-0.8089,0.6068,-0.1911
14.8170,-0.8133,0.6076,-0.1884
14.8450,-0.8133,0.6076,-0.1884
14.8450,-0.8133,0.6076,-0.1884
14.8460,-0.8133,0.6076,-0.1884
14.8460,-0.8133,0.6076,-0.1884
14.8470,-0.8199,0.6159,-0.1852
14.8640,-0.8199,0.6159,-0.1852
14.8650,-0.8199,0.6159,-0.1852
14.8650,-0.8199,0.6159,-0.1852
14.8660,-0.8241,0.6117,-0.1872
14.8700,-0.8241,0.6117,-0.1872
14.8940,-0.8241,0.6117,-0.1872
14.8950,-0.8241,0.6117,-0.1872
14.8950,-0.8241,0.6117,-0.1872
14.8960,-0.8243,0.6083,-0.1877
14.8960,-0.8141,0.6100,-0.1921
14.9250,-0.8141,0.6100,-0.1921
14.9260,-0.8141,0.6100,-0.1921
14.9260,-0.8141,0.6100,-0.1921
14.9260,-0.8077,0.6127,-0.2011
14.9460,-0.8077,0.6127,-0.2011
14.9460,-0.8077,0.6127,-0.2011
14.9470,-0.8077,0.6127,-0.2011
14.9470,-0.8111,0.6095,-0.2028
14.9480,-0.8111,0.6095,-0.2028
14.9740,-0.8111,0.6095,-0.2028
14.9740,-0.8111,0.6095,-0.2028
14.9750,-0.8111,0.6095,-0.2028
14.9750,-0.8106,0.6071,-0.1874
14.9760,-0.8089,0.6054,-0.1752
15.0040,-0.8089,0.6054,-0.1752
15.0040,-0.8089,0.6054,-0.1752
15.0050,-0.8089,0.6054,-0.1752
15.0050,-0.8072,0.6071,-0.1808
15.0260,-0.8072,0.6071,-0.1808
15.0260,-0.8072,0.6071,-0.1808
15.0270,-0.8072,0.6071,-0.1808
15.0270,-0.8192,0.6166,-0.2011
15.0280,-0.8192,0.6166,-0.2011
15.0460,-0.8192,0.6166,-0.2011
15.0540,-0.8192,0.6166,-0.2011
15.0550,-0.8192,0.6166,-0.2011
15.0550,-0.8192,0.6166,-0.2011
15.0560,-0.8292,0.6251,-0.2053
15.0560,-0.8312,0.6269,-0.1904
15.0840,-0.8312,0.6269,-0.1904
15.0850,-0.8312,0.6269,-0.1904
15.0850,-0.8312,0.6269,-0.1904
15.1120,-0.8109,0.6164,-0.1911
15.1130,-0.8109,0.6164,-0.1911
15.1140,-0.8109,0.6164,-0.1911
15.1140,-0.8109,0.6164,-0.1911
15.1140,-0.7896,0.6093,-0.2075
15.1150,-0.7896,0.6093,-0.2075
15.1320,-0.7896,0.6093,-0.2075
15.1320,-0.7896,0.6093,-0.2075
15.1320,-0.7896,0.6093,-0.2075
15.1330,-0.7872,0.6088,-0.2158
15.1330,-0.8014,0.6144,-0.2058
15.1620,-0.8014,0.6144,-0.2058
15.1630,-0.8014,0.6144,-0.2058
15.1630,-0.8014,0.6144,-0.2058
15.1630,-0.8045,0.6139,-0.1906
15.1820,-0.8045,0.6139,-0.1906
15.1830,-0.8045,0.6139,-0.1906
15.1830,-0.8045,0.6139,-0.1906
15.1830,-0.8084,0.6083,-0.1818
15.1830,-0.8084,0.6083,-0.1818
15.2120,-0.8084,0.6083,-0.1818
15.2120,-0.8084,0.6083,-0.1818
15.2120,-0.8084,0.6083,-0.1818
15.2140,-0.8053,0.6076,-0.1889
15.2150,-0.8028,0.6205,-0.1916
15.2450,-0.8028,0.6205,-0.1916
15.2470,-0.8028,0.6205,-0.1916
15.2480,-0.8028,0.6205,-0.1916
15.2480,-0.8028,0.6205,-0.1916
15.2480,-0.8006,0.6205,-0.1845
15.2630,-0.8006,0.6205,-0.1845
15.2630,-0.8006,0.6205,-0.1845
15.2640,-0.8006,0.6205,-0.1845
15.2660,-0.8104,0.6200,-0.1877
15.2670,-0.8104,0.6200,-0.1877
15.2940,-0.8104,0.6200,-0.1877
15.2940,-0.8104,0.6200,-0.1877
15.2940,-0.8104,0.6200,-0.1877
15.2950,-0.8158,0.6232,-0.1950
15.2950,-0.8109,0.6217,-0.2043
15.3220,-0.8109,0.6217,-0.2043
15.3230,-0.8109,0.6217,-0.2043
15.3240,-0.8109,0.6217,-0.2043
15.3240,-0.8040,0.6156,-0.2090
15.3430,-0.8040,0.6156,-0.2090
15.3470,-0.8040,0.6156,-0.2090
15.3480,-0.8040,0.6156,-0.2090
15.3480,-0.8089,0.6149,-0.2065
15.3480,-0.8089,0.6149,-0.2065
15.3740,-0.8089,0.6149,-0.2065
15.3740,-0.8089,0.6149,-0.2065
15.3740,-0.8089,0.6149,-0.2065
15.3750,-0.8092,0.6156,-0.1984
15.3750,-0.8014,0.6105,-0.1994
15.4040,-0.8014,0.6105,-0.1994
15.4040,-0.8014,0.6105,-0.1994
15.4050,-0.8014,0.6105,-0.1994
15.4050,-0.7935,0.6083,-0.1911
15.4230,-0.7935,0.6083,-0.1911
15.4240,-0.7935,0.6083,-0.1911
15.4240,-0.7935,0.6083,-0.1911
15.4260,-0.8031,0.6168,-0.1896
15.4260,-0.8031,0.6168,-0.1896
