
time,AccelerometerX,AccelerometerY,AccelerometerZ
0.0090,-0.2666,1.0181,0.1347
0.0090,-0.2666,1.0181,0.1347
0.0090,-0.2666,1.0181,0.1347
0.0100,-0.2674,1.0325,0.1141
0.0100,-0.2647,1.0152,0.1664
0.0480,-0.2647,1.0152,0.1664
0.0480,-0.2647,1.0152,0.1664
0.0490,-0.2647,1.0152,0.1664
0.0490,-0.2647,1.0152,0.1664
0.0490,-0.2708,1.0098,0.1647
0.0610,-0.2708,1.0098,0.1647
0.0610,-0.2708,1.0098,0.1647
0.0610,-0.2708,1.0098,0.1647
0.0620,-0.2788,1.0142,0.1469
0.0620,-0.2788,1.0142,0.1469
0.0890,-0.2788,1.0142,0.1469
0.0890,-0.2788,1.0142,0.1469
0.0900,-0.2788,1.0142,0.1469
0.0900,-0.2703,1.0091,0.1410
0.0910,-0.2647,1.0081,0.1779
0.1190,-0.2647,1.0081,0.1779
0.1200,-0.2647,1.0081,0.1779
0.1200,-0.2647,1.0081,0.1779
0.1200,-0.2681,1.0130,0.1442
0.1410,-0.2681,1.0130,0.1442
0.1410,-0.2681,1.0130,0.1442
0.1420,-0.2681,1.0130,0.1442
0.1430,-0.2701,1.0054,0.1596
0.1430,-0.2701,1.0054,0.1596
0.1720,-0.2701,1.0054,0.1596
0.1720,-0.2701,1.0054,0.1596
0.1730,-0.2701,1.0054,0.1596
0.1730,-0.2701,1.0110,0.1574
0.1730,-0.2627,1.0262,0.1415
0.2020,-0.2627,1.0262,0.1415
0.2020,-0.2627,1.0262,0.1415
0.2030,-0.2627,1.0262,0.1415
0.2040,-0.2593,1.0076,0.1552
0.2220,-0.2593,1.0076,0.1552
0.2230,-0.2593,1.0076,0.1552
0.2240,-0.2593,1.0076,0.1552
0.2240,-0.2644,0.9949,0.1716
0.2250,-0.2644,0.9949,0.1716
0.2300,-0.2644,0.9949,0.1716
0.2510,-0.2644,0.9949,0.1716
0.2510,-0.2644,0.9949,0.1716
0.2520,-0.2644,0.9949,0.1716
0.2520,-0.2649,1.0169,0.1483
0.2520,-0.2615,1.0259,0.1342
0.2810,-0.2615,1.0259,0.1342
0.2810,-0.2615,1.0259,0.1342
0.2820,-0.2615,1.0259,0.1342
0.2830,-0.2598,1.0176,0.1620
0.3020,-0.2598,1.0176,0.1620
0.3030,-0.2598,1.0176,0.1620
0.3030,-0.2598,1.0176,0.1620
0.3030,-0.2647,1.0093,0.1686
0.3030,-0.2647,1.0093,0.1686
0.3310,-0.2647,1.0093,0.1686
0.3310,-0.2647,1.0093,0.1686
0.3310,-0.2647,1.0093,0.1686
0.4450,-0.2627,1.0101,0.1481
0.4460,-0.2617,1.0059,0.1537
0.4530,-0.2617,1.0059,0.1537
0.4550,-0.2617,1.0059,0.1537
0.4550,-0.2617,1.0059,0.1537
0.4560,-0.2617,1.0059,0.1537
0.4560,-0.2617,1.0059,0.1537
0.4570,-0.2617,1.0059,0.1537
0.4570,-0.2617,1.0059,0.1537
0.4570,-0.2617,1.0059,0.1537
0.4570,-0.2617,1.0059,0.1537
0.4570,-0.2617,1.0059,0.1537
0.4580,-0.2617,1.0059,0.1537
0.4580,-0.2617,1.0059,0.1537
0.4580,-0.2561,1.0147,0.1515
0.4590,-0.2549,1.0250,0.1381
0.4590,-0.2661,1.0128,0.1545
0.4590,-0.2720,1.0018,0.1681
0.4590,-0.2659,1.0120,0.1498
0.4590,-0.2659,1.0120,0.1498
0.4600,-0.2659,1.0120,0.1498
0.4600,-0.2659,1.0120,0.1498
0.4600,-0.2659,1.0120,0.1498
0.4640,-0.2659,1.0120,0.1498
0.4640,-0.2659,1.0120,0.1498
0.4640,-0.2630,1.0147,0.1415
0.4640,-0.2630,1.0147,0.1415
0.4900,-0.2630,1.0147,0.1415
0.4900,-0.2630,1.0147,0.1415
0.4900,-0.2630,1.0147,0.1415
0.4910,-0.2669,1.0164,0.1547
0.4920,-0.2725,1.0103,0.1581
0.5200,-0.2725,1.0103,0.1581
0.5200,-0.2725,1.0103,0.1581
0.5210,-0.2725,1.0103,0.1581
0.5210,-0.2759,1.0096,0.1579
0.5410,-0.2759,1.0096,0.1579
0.5420,-0.2759,1.0096,0.1579
0.5420,-0.2759,1.0096,0.1579
0.5420,-0.2737,1.0157,0.1459
0.5430,-0.2737,1.0157,0.1459
0.5710,-0.2737,1.0157,0.1459
0.5720,-0.2737,1.0157,0.1459
0.5720,-0.2737,1.0157,0.1459
0.5730,-0.2664,1.0147,0.1398
0.5730,-0.2647,1.0130,0.1547
0.6020,-0.2647,1.0130,0.1547
0.6020,-0.2647,1.0130,0.1547
0.6030,-0.2647,1.0130,0.1547
0.6040,-0.2559,1.0125,0.1559
0.6220,-0.2559,1.0125,0.1559
0.6250,-0.2559,1.0125,0.1559
0.6250,-0.2559,1.0125,0.1559
0.6250,-0.2566,1.0150,0.1557
0.6260,-0.2566,1.0150,0.1557
0.6300,-0.2566,1.0150,0.1557
0.6350,-0.2566,1.0150,0.1557
0.6520,-0.2566,1.0150,0.1557
0.6520,-0.2566,1.0150,0.1557
0.6660,-0.2566,1.0150,0.1557
0.6660,-0.2603,1.0184,0.1454
0.6660,-0.2554,1.0120,0.1400
0.6820,-0.2554,1.0120,0.1400
0.6830,-0.2554,1.0120,0.1400
0.6830,-0.2554,1.0120,0.1400
0.6870,-0.2576,1.0074,0.1659
0.7030,-0.2576,1.0074,0.1659
0.7040,-0.2576,1.0074,0.1659
0.7040,-0.2576,1.0074,0.1659
0.7060,-0.2639,1.0181,0.1542
0.7070,-0.2639,1.0181,0.1542
0.7320,-0.2639,1.0181,0.1542
0.7320,-0.2639,1.0181,0.1542
0.7330,-0.2639,1.0181,0.1542
0.7350,-0.2639,1.0225,0.1337
0.7350,-0.2610,1.0174,0.1464
0.7630,-0.2610,1.0174,0.1464
0.7630,-0.2610,1.0174,0.1464
0.7630,-0.2610,1.0174,0.1464
0.7650,-0.2666,1.0135,0.1447
0.7830,-0.2666,1.0135,0.1447
0.7840,-0.2666,1.0135,0.1447
0.7840,-0.2666,1.0135,0.1447
0.7870,-0.2661,1.0145,0.1579
0.7870,-0.2661,1.0145,0.1579
0.8130,-0.2661,1.0145,0.1579
0.8130,-0.2661,1.0145,0.1579
0.8130,-0.2661,1.0145,0.1579
0.8160,-0.2627,1.0140,0.1623
0.8160,-0.2666,1.0091,0.1535
0.8300,-0.2666,1.0091,0.1535
0.8410,-0.2666,1.0091,0.1535
0.8410,-0.2666,1.0091,0.1535
0.8410,-0.2666,1.0091,0.1535
0.8420,-0.2698,1.0211,0.1461
0.8610,-0.2698,1.0211,0.1461
0.8620,-0.2698,1.0211,0.1461
0.8630,-0.2698,1.0211,0.1461
0.8630,-0.2715,1.0196,0.1420
0.8630,-0.2715,1.0196,0.1420
0.8900,-0.2715,1.0196,0.1420
0.8900,-0.2715,1.0196,0.1420
0.8910,-0.2715,1.0196,0.1420
0.8910,-0.2735,1.0066,0.1557
0.8920,-0.2647,1.0079,0.1552
0.9210,-0.2647,1.0079,0.1552
0.9210,-0.2647,1.0079,0.1552
0.9210,-0.2647,1.0079,0.1552
0.9210,-0.2635,1.0142,0.1410
0.9410,-0.2635,1.0142,0.1410
0.9410,-0.2635,1.0142,0.1410
0.9430,-0.2635,1.0142,0.1410
0.9430,-0.2676,1.0157,0.1508
0.9430,-0.2676,1.0157,0.1508
0.9710,-0.2676,1.0157,0.1508
0.9710,-0.2676,1.0157,0.1508
0.9710,-0.2676,1.0157,0.1508
0.9720,-0.2688,1.0169,0.1505
0.9720,-0.2659,1.0167,0.1552
1.0000,-0.2659,1.0167,0.1552
1.0000,-0.2659,1.0167,0.1552
1.0010,-0.2659,1.0167,0.1552
1.0010,-0.2674,1.0120,0.1549
1.0220,-0.2674,1.0120,0.1549
1.0220,-0.2674,1.0120,0.1549
1.0230,-0.2674,1.0120,0.1549
1.0230,-0.2681,1.0174,0.1498
1.0230,-0.2681,1.0174,0.1498
1.0280,-0.2681,1.0174,0.1498
1.0340,-0.2681,1.0174,0.1498
1.0500,-0.2681,1.0174,0.1498
1.0500,-0.2681,1.0174,0.1498
1.0510,-0.2681,1.0174,0.1498
1.0510,-0.2683,1.0084,0.1491
1.0510,-0.2696,1.0059,0.1618
1.0810,-0.2696,1.0059,0.1618
1.0810,-0.2696,1.0059,0.1618
1.0810,-0.2696,1.0059,0.1618
1.0820,-0.2666,1.0159,0.1461
1.1010,-0.2666,1.0159,0.1461
1.1010,-0.2666,1.0159,0.1461
1.1010,-0.2666,1.0159,0.1461
1.1020,-0.2630,1.0213,0.1400
1.1020,-0.2630,1.0213,0.1400
1.1310,-0.2630,1.0213,0.1400
1.1310,-0.2630,1.0213,0.1400
1.1310,-0.2630,1.0213,0.1400
1.1310,-0.2613,1.0118,0.1444
1.1320,-0.2686,1.0035,0.1527
1.1600,-0.2686,1.0035,0.1527
1.1610,-0.2686,1.0035,0.1527
1.1610,-0.2686,1.0035,0.1527
1.1610,-0.2698,1.0066,0.1596
1.1820,-0.2698,1.0066,0.1596
1.1820,-0.2698,1.0066,0.1596
1.1830,-0.2698,1.0066,0.1596
1.1830,-0.2537,1.0240,0.1481
1.1830,-0.2537,1.0240,0.1481
1.2110,-0.2537,1.0240,0.1481
1.2170,-0.2537,1.0240,0.1481
1.2180,-0.2537,1.0240,0.1481
1.2180,-0.2402,1.0277,0.1515
1.2180,-0.2505,1.0079,0.1633
1.2280,-0.2505,1.0079,0.1633
1.2330,-0.2505,1.0079,0.1633
1.2410,-0.2505,1.0079,0.1633
1.2410,-0.2505,1.0079,0.1633
1.2410,-0.2505,1.0079,0.1633
1.2420,-0.2666,1.0101,0.1623
1.2620,-0.2666,1.0101,0.1623
1.2620,-0.2666,1.0101,0.1623
1.2620,-0.2666,1.0101,0.1623
1.2630,-0.2803,1.0118,0.1532
1.2630,-0.2803,1.0118,0.1532
1.2910,-0.2803,1.0118,0.1532
1.2910,-0.2803,1.0118,0.1532
1.2910,-0.2803,1.0118,0.1532
1.2920,-0.2769,1.0191,0.1459
1.2920,-0.2771,1.0228,0.1310
1.3210,-0.2771,1.0228,0.1310
1.3210,-0.2771,1.0228,0.1310
1.3230,-0.2771,1.0228,0.1310
1.3230,-0.2754,1.0110,0.1586
1.3480,-0.2754,1.0110,0.1586
1.3490,-0.2754,1.0110,0.1586
1.3490,-0.2754,1.0110,0.1586
1.3490,-0.2688,1.0025,0.1799
1.3500,-0.2688,1.0025,0.1799
1.3730,-0.2688,1.0025,0.1799
1.3730,-0.2688,1.0025,0.1799
1.3730,-0.2688,1.0025,0.1799
1.3740,-0.2686,1.0064,0.1503
1.3740,-0.2788,1.0172,0.1425
1.4010,-0.2788,1.0172,0.1425
1.4020,-0.2788,1.0172,0.1425
1.4020,-0.2788,1.0172,0.1425
1.4030,-0.2754,1.0264,0.1383
1.4230,-0.2754,1.0264,0.1383
1.4240,-0.2754,1.0264,0.1383
1.4240,-0.2754,1.0264,0.1383
1.4240,-0.2681,1.0113,0.1457
1.4250,-0.2681,1.0113,0.1457
1.4300,-0.2681,1.0113,0.1457
1.4340,-0.2681,1.0113,0.1457
1.4520,-0.2681,1.0113,0.1457
1.4520,-0.2681,1.0113,0.1457
1.4530,-0.2681,1.0113,0.1457
1.4530,-0.2637,1.0069,0.1642
1.4530,-0.2617,1.0137,0.1373
1.4830,-0.2617,1.0137,0.1373
1.4830,-0.2617,1.0137,0.1373
1.4840,-0.2617,1.0137,0.1373
1.4840,-0.2617,1.0106,0.1339
1.5040,-0.2617,1.0106,0.1339
1.5040,-0.2617,1.0106,0.1339
1.5050,-0.2617,1.0106,0.1339
1.5060,-0.2676,1.0027,0.1542
1.5060,-0.2676,1.0027,0.1542
1.5330,-0.2676,1.0027,0.1542
1.5340,-0.2676,1.0027,0.1542
1.5340,-0.2676,1.0027,0.1542
1.5350,-0.2718,1.0110,0.1454
1.5360,-0.2659,1.0279,0.1471
1.5650,-0.2659,1.0279,0.1471
1.5670,-0.2659,1.0279,0.1471
1.5680,-0.2659,1.0279,0.1471
1.5690,-0.2664,1.0152,0.1454
1.5840,-0.2664,1.0152,0.1454
1.5850,-0.2664,1.0152,0.1454
1.5850,-0.2664,1.0152,0.1454
1.5860,-0.2688,1.0088,0.1579
1.5870,-0.2688,1.0088,0.1579
1.6130,-0.2688,1.0088,0.1579
1.6130,-0.2688,1.0088,0.1579
1.6140,-0.2688,1.0088,0.1579
1.6150,-0.2642,1.0176,0.1606
1.6150,-0.2661,1.0062,0.1559
1.6300,-0.2661,1.0062,0.1559
1.6450,-0.2661,1.0062,0.1559
1.6490,-0.2661,1.0062,0.1559
1.6510,-0.2661,1.0062,0.1559
1.6520,-0.2710,1.0108,0.1547
1.6700,-0.2710,1.0108,0.1547
1.6710,-0.2710,1.0108,0.1547
1.6720,-0.2710,1.0108,0.1547
1.6730,-0.2744,1.0193,0.1325
1.6740,-0.2744,1.0193,0.1325
1.6930,-0.2744,1.0193,0.1325
1.6940,-0.2744,1.0193,0.1325
1.6950,-0.2744,1.0193,0.1325
1.6960,-0.2696,1.0174,0.1481
1.6970,-0.2620,1.0164,0.1589
1.7260,-0.2620,1.0164,0.1589
1.7280,-0.2620,1.0164,0.1589
1.7290,-0.2620,1.0164,0.1589
1.7300,-0.2610,0.9993,0.1652
1.7500,-0.2610,0.9993,0.1652
1.7510,-0.2610,0.9993,0.1652
1.7520,-0.2610,0.9993,0.1652
1.7790,-0.2610,1.0098,0.1757
1.7800,-0.2610,1.0098,0.1757
1.7800,-0.2610,1.0098,0.1757
1.7800,-0.2610,1.0098,0.1757
1.7810,-0.2610,1.0098,0.1757
1.7810,-0.2561,1.0323,0.1486
1.7820,-0.2478,1.0345,0.1342
1.8020,-0.2478,1.0345,0.1342
1.8020,-0.2478,1.0345,0.1342
1.8030,-0.2478,1.0345,0.1342
1.8030,-0.2510,1.0218,0.1391
1.8230,-0.2510,1.0218,0.1391
1.8230,-0.2510,1.0218,0.1391
1.8230,-0.2510,1.0218,0.1391
1.8260,-0.2569,1.0115,0.1483
1.8260,-0.2569,1.0115,0.1483
1.8280,-0.2569,1.0115,0.1483
1.8530,-0.2569,1.0115,0.1483
1.8530,-0.2569,1.0115,0.1483
1.8540,-0.2569,1.0115,0.1483
1.8550,-0.2534,1.0137,0.1659
1.8550,-0.2493,1.0181,0.1620
1.8850,-0.2493,1.0181,0.1620
1.8850,-0.2493,1.0181,0.1620
1.8850,-0.2493,1.0181,0.1620
1.8860,-0.2490,1.0179,0.1447
1.9050,-0.2490,1.0179,0.1447
1.9050,-0.2490,1.0179,0.1447
1.9060,-0.2490,1.0179,0.1447
1.9070,-0.2515,1.0140,0.1442
1.9080,-0.2515,1.0140,0.1442
1.9330,-0.2515,1.0140,0.1442
1.9340,-0.2515,1.0140,0.1442
1.9350,-0.2515,1.0140,0.1442
1.9360,-0.2610,1.0157,0.1420
1.9370,-0.2701,1.0142,0.1483
1.9660,-0.2701,1.0142,0.1483
1.9680,-0.2701,1.0142,0.1483
1.9680,-0.2701,1.0142,0.1483
1.9690,-0.2757,1.0071,0.1552
1.9850,-0.2757,1.0071,0.1552
1.9850,-0.2757,1.0071,0.1552
1.9870,-0.2757,1.0071,0.1552
1.9880,-0.2720,1.0098,0.1628
1.9890,-0.2720,1.0098,0.1628
2.0140,-0.2720,1.0098,0.1628
2.0140,-0.2720,1.0098,0.1628
2.0150,-0.2720,1.0098,0.1628
2.0160,-0.2635,1.0189,0.1442
2.0160,-0.2605,1.0135,0.1351
2.0300,-0.2605,1.0135,0.1351
2.0450,-0.2605,1.0135,0.1351
2.0500,-0.2605,1.0135,0.1351
2.0500,-0.2605,1.0135,0.1351
2.0510,-0.2559,1.0128,0.1432
2.0650,-0.2559,1.0128,0.1432
2.0660,-0.2559,1.0128,0.1432
2.0670,-0.2559,1.0128,0.1432
2.0670,-0.2632,1.0113,0.1530
2.0680,-0.2632,1.0113,0.1530
2.0950,-0.2632,1.0113,0.1530
2.0950,-0.2632,1.0113,0.1530
2.0960,-0.2632,1.0113,0.1530
2.0970,-0.2664,1.0172,0.1576
2.0980,-0.2522,1.0230,0.1420
2.1310,-0.2522,1.0230,0.1420
2.1320,-0.2522,1.0230,0.1420
2.1330,-0.2522,1.0230,0.1420
2.1340,-0.2522,1.0091,0.1542
2.1450,-0.2522,1.0091,0.1542
2.1460,-0.2522,1.0091,0.1542
2.1470,-0.2522,1.0091,0.1542
2.1480,-0.2600,1.0128,0.1520
2.1480,-0.2600,1.0128,0.1520
2.1750,-0.2600,1.0128,0.1520
2.1760,-0.2600,1.0128,0.1520
2.1770,-0.2600,1.0128,0.1520
2.1780,-0.2559,1.0264,0.1263
2.1790,-0.2498,1.0167,0.1442
2.2050,-0.2498,1.0167,0.1442
2.2060,-0.2498,1.0167,0.1442
2.2080,-0.2498,1.0167,0.1442
2.2090,-0.2576,1.0086,0.1479
2.2260,-0.2576,1.0086,0.1479
2.2270,-0.2576,1.0086,0.1479
2.2300,-0.2576,1.0086,0.1479
2.2310,-0.2820,1.0076,0.1476
2.2320,-0.2820,1.0076,0.1476
2.2330,-0.2820,1.0076,0.1476
2.2540,-0.2820,1.0076,0.1476
2.2550,-0.2820,1.0076,0.1476
2.2560,-0.2820,1.0076,0.1476
2.2570,-0.2862,1.0128,0.1618
2.2580,-0.2666,1.0184,0.1579
2.2840,-0.2666,1.0184,0.1579
2.2850,-0.2666,1.0184,0.1579
2.2860,-0.2666,1.0184,0.1579
2.2870,-0.2456,1.0135,0.1615
2.3050,-0.2456,1.0135,0.1615
2.3070,-0.2456,1.0135,0.1615
2.3280,-0.2456,1.0135,0.1615
2.3280,-0.2549,1.0049,0.1669
2.3290,-0.2549,1.0049,0.1669
2.3320,-0.2549,1.0049,0.1669
2.3330,-0.2549,1.0049,0.1669
2.3330,-0.2549,1.0049,0.1669
2.3340,-0.2720,1.0159,0.1447
2.3340,-0.2698,1.0306,0.1303
2.3630,-0.2698,1.0306,0.1303
2.3640,-0.2698,1.0306,0.1303
2.3640,-0.2698,1.0306,0.1303
2.3650,-0.2595,1.0164,0.1633
2.3870,-0.2595,1.0164,0.1633
2.3880,-0.2595,1.0164,0.1633
2.3890,-0.2595,1.0164,0.1633
2.3900,-0.2569,1.0042,0.1725
2.3900,-0.2569,1.0042,0.1725
2.4140,-0.2569,1.0042,0.1725
2.4150,-0.2569,1.0042,0.1725
2.4160,-0.2569,1.0042,0.1725
2.4170,-0.2544,1.0145,0.1339
2.4180,-0.2561,1.0228,0.1351
2.4320,-0.2561,1.0228,0.1351
2.4470,-0.2561,1.0228,0.1351
2.4490,-0.2561,1.0228,0.1351
2.4500,-0.2561,1.0228,0.1351
2.4510,-0.2676,1.0157,0.1569
2.4670,-0.2676,1.0157,0.1569
2.4680,-0.2676,1.0157,0.1569
2.4690,-0.2676,1.0157,0.1569
2.4700,-0.2881,1.0096,0.1562
2.4710,-0.2881,1.0096,0.1562
2.4960,-0.2881,1.0096,0.1562
2.4970,-0.2881,1.0096,0.1562
2.4980,-0.2881,1.0096,0.1562
2.4990,-0.2908,1.0257,0.1483
2.5000,-0.2556,1.0426,0.1371
2.5270,-0.2556,1.0426,0.1371
2.5290,-0.2556,1.0426,0.1371
2.5300,-0.2556,1.0426,0.1371
2.5310,-0.2300,1.0005,0.1750
2.5470,-0.2300,1.0005,0.1750
2.5480,-0.2300,1.0005,0.1750
2.5500,-0.2300,1.0005,0.1750
2.5510,-0.2280,0.9861,0.2033
2.5520,-0.2280,0.9861,0.2033
2.5750,-0.2280,0.9861,0.2033
2.5760,-0.2280,0.9861,0.2033
2.5780,-0.2280,0.9861,0.2033
2.5790,-0.2412,1.0108,0.1596
2.5800,-0.2459,1.0240,0.1532
2.6050,-0.2459,1.0240,0.1532
2.6070,-0.2459,1.0240,0.1532
2.6070,-0.2459,1.0240,0.1532
2.6080,-0.2476,1.0193,0.1476
2.6280,-0.2476,1.0193,0.1476
2.6290,-0.2476,1.0193,0.1476
2.6300,-0.2476,1.0193,0.1476
2.6310,-0.2595,1.0054,0.1625
2.6330,-0.2595,1.0054,0.1625
2.6340,-0.2595,1.0054,0.1625
2.6560,-0.2595,1.0054,0.1625
2.6570,-0.2595,1.0054,0.1625
2.6580,-0.2595,1.0054,0.1625
2.6580,-0.2752,1.0049,0.1630
2.6590,-0.2837,1.0110,0.1640
2.6860,-0.2837,1.0110,0.1640
2.6870,-0.2837,1.0110,0.1640
2.6880,-0.2837,1.0110,0.1640
2.6880,-0.2703,1.0198,0.1806
2.7070,-0.2703,1.0198,0.1806
2.7070,-0.2703,1.0198,0.1806
2.7080,-0.2703,1.0198,0.1806
2.7080,-0.2461,1.0230,0.1537
2.7090,-0.2461,1.0230,0.1537
2.7340,-0.2461,1.0230,0.1537
2.7350,-0.2461,1.0230,0.1537
2.7360,-0.2461,1.0230,0.1537
2.7360,-0.2468,1.0128,0.1589
2.7370,-0.2598,1.0123,0.1532
2.7660,-0.2598,1.0123,0.1532
2.7680,-0.2598,1.0123,0.1532
2.7690,-0.2598,1.0123,0.1532
2.7700,-0.2586,1.0262,0.1527
2.7870,-0.2586,1.0262,0.1527
2.7900,-0.2586,1.0262,0.1527
2.7910,-0.2586,1.0262,0.1527
2.7930,-0.2454,1.0264,0.1498
2.7940,-0.2454,1.0264,0.1498
2.8170,-0.2454,1.0264,0.1498
2.8180,-0.2454,1.0264,0.1498
2.8200,-0.2454,1.0264,0.1498
2.8210,-0.2422,1.0140,0.1525
2.8210,-0.2468,1.0054,0.1769
2.8280,-0.2468,1.0054,0.1769
2.8340,-0.2468,1.0054,0.1769
2.8440,-0.2468,1.0054,0.1769
2.8440,-0.2468,1.0054,0.1769
2.8450,-0.2468,1.0054,0.1769
2.8460,-0.2483,1.0167,0.1571
2.8640,-0.2483,1.0167,0.1571
2.8640,-0.2483,1.0167,0.1571
2.8650,-0.2483,1.0167,0.1571
2.8650,-0.2380,1.0250,0.1525
2.8650,-0.2380,1.0250,0.1525
2.8950,-0.2380,1.0250,0.1525
2.8960,-0.2380,1.0250,0.1525
2.8970,-0.2380,1.0250,0.1525
2.8980,-0.2224,1.0240,0.1540
2.8980,-0.2222,1.0123,0.1574
2.9240,-0.2222,1.0123,0.1574
2.9250,-0.2222,1.0123,0.1574
2.9250,-0.2222,1.0123,0.1574
2.9260,-0.2373,1.0110,0.1745
2.9460,-0.2373,1.0110,0.1745
2.9470,-0.2373,1.0110,0.1745
2.9480,-0.2373,1.0110,0.1745
2.9500,-0.2490,1.0172,0.1501
2.9520,-0.2490,1.0172,0.1501
2.9760,-0.2490,1.0172,0.1501
2.9770,-0.2490,1.0172,0.1501
2.9780,-0.2490,1.0172,0.1501
2.9790,-0.2500,1.0142,0.1449
2.9800,-0.2693,1.0206,0.1557
3.0050,-0.2693,1.0206,0.1557
3.0070,-0.2693,1.0206,0.1557
3.0080,-0.2693,1.0206,0.1557
3.0090,-0.2920,1.0303,0.1437
3.0280,-0.2920,1.0303,0.1437
3.0300,-0.2920,1.0303,0.1437
3.0310,-0.2920,1.0303,0.1437
3.0320,-0.2874,1.0286,0.1686
3.0330,-0.2874,1.0286,0.1686
3.0340,-0.2874,1.0286,0.1686
3.0350,-0.2874,1.0286,0.1686
3.0570,-0.2874,1.0286,0.1686
3.0580,-0.2874,1.0286,0.1686
3.0590,-0.2874,1.0286,0.1686
3.0600,-0.2615,1.0130,0.1782
3.0610,-0.2525,1.0086,0.1711
3.0860,-0.2525,1.0086,0.1711
3.0870,-0.2525,1.0086,0.1711
3.0880,-0.2525,1.0086,0.1711
3.0900,-0.2522,1.0152,0.1645
3.1070,-0.2522,1.0152,0.1645
3.1080,-0.2522,1.0152,0.1645
3.1100,-0.2522,1.0152,0.1645
3.1110,-0.2542,1.0211,0.1520
3.1120,-0.2542,1.0211,0.1520
3.1360,-0.2542,1.0211,0.1520
3.1370,-0.2542,1.0211,0.1520
3.1380,-0.2542,1.0211,0.1520
3.1380,-0.2622,1.0101,0.1518
3.1390,-0.2586,1.0071,0.1628
3.1660,-0.2586,1.0071,0.1628
3.1670,-0.2586,1.0071,0.1628
3.1690,-0.2586,1.0071,0.1628
3.1700,-0.2463,1.0128,0.1603
3.1870,-0.2463,1.0128,0.1603
3.1880,-0.2463,1.0128,0.1603
3.1890,-0.2463,1.0128,0.1603
3.1900,-0.2371,1.0289,0.1400
3.1910,-0.2371,1.0289,0.1400
3.2160,-0.2371,1.0289,0.1400
3.2170,-0.2371,1.0289,0.1400
3.2180,-0.2371,1.0289,0.1400
3.2190,-0.2336,1.0362,0.1471
3.2200,-0.2437,1.0225,0.1840
3.2300,-0.2437,1.0225,0.1840
3.2470,-0.2437,1.0225,0.1840
3.2480,-0.2437,1.0225,0.1840
3.2490,-0.2437,1.0225,0.1840
3.2500,-0.2361,1.0281,0.1911
3.2670,-0.2361,1.0281,0.1911
3.2680,-0.2361,1.0281,0.1911
3.2690,-0.2361,1.0281,0.1911
3.2700,-0.2231,1.0362,0.1505
3.2710,-0.2231,1.0362,0.1505
3.2950,-0.2231,1.0362,0.1505
3.2960,-0.2231,1.0362,0.1505
3.2970,-0.2231,1.0362,0.1505
3.2980,-0.2251,1.0135,0.1669
3.2990,-0.2285,1.0130,0.1960
3.3290,-0.2285,1.0130,0.1960
3.3300,-0.2285,1.0130,0.1960
3.3310,-0.2285,1.0130,0.1960
3.3320,-0.2393,1.0264,0.1613
3.3510,-0.2393,1.0264,0.1613
3.3520,-0.2393,1.0264,0.1613
3.3530,-0.2393,1.0264,0.1613
3.3540,-0.2483,1.0093,0.1630
3.3550,-0.2483,1.0093,0.1630
3.3770,-0.2483,1.0093,0.1630
3.3780,-0.2483,1.0093,0.1630
3.3790,-0.2483,1.0093,0.1630
3.3800,-0.2507,0.9978,0.1830
3.3810,-0.2466,1.0159,0.1584
3.4060,-0.2466,1.0159,0.1584
3.4090,-0.2466,1.0159,0.1584
3.4100,-0.2466,1.0159,0.1584
3.4350,-0.2510,1.0228,0.1378
3.4360,-0.2510,1.0228,0.1378
3.4370,-0.2510,1.0228,0.1378
3.4380,-0.2510,1.0228,0.1378
3.4390,-0.2617,1.0098,0.1527
3.4420,-0.2617,1.0098,0.1527
3.4430,-0.2617,1.0098,0.1527
3.4550,-0.2617,1.0098,0.1527
3.4550,-0.2617,1.0098,0.1527
3.4560,-0.2617,1.0098,0.1527
3.4570,-0.2661,1.0030,0.1623
3.4570,-0.2598,1.0057,0.1601
3.4850,-0.2598,1.0057,0.1601
3.4860,-0.2598,1.0057,0.1601
3.4870,-0.2598,1.0057,0.1601
3.4880,-0.2537,1.0164,0.1251
3.5080,-0.2537,1.0164,0.1251
3.5100,-0.2537,1.0164,0.1251
3.5100,-0.2537,1.0164,0.1251
3.5110,-0.2547,1.0240,0.1224
3.5120,-0.2547,1.0240,0.1224
3.5350,-0.2547,1.0240,0.1224
3.5350,-0.2547,1.0240,0.1224
3.5360,-0.2547,1.0240,0.1224
3.6510,-0.2503,1.0225,0.1430
3.6530,-0.2437,1.0135,0.1557
3.6660,-0.2437,1.0135,0.1557
3.6670,-0.2437,1.0135,0.1557
3.6700,-0.2437,1.0135,0.1557
3.6710,-0.2437,1.0135,0.1557
3.6720,-0.2437,1.0135,0.1557
3.6720,-0.2437,1.0135,0.1557
3.6730,-0.2437,1.0135,0.1557
3.6740,-0.2437,1.0135,0.1557
3.6750,-0.2437,1.0135,0.1557
3.6760,-0.2437,1.0135,0.1557
3.6770,-0.2437,1.0135,0.1557
3.6780,-0.2437,1.0135,0.1557
3.6790,-0.2353,1.0164,0.1723
3.6800,-0.2459,1.0213,0.1887
3.6800,-0.2730,1.0069,0.1659
3.6810,-0.2835,0.9903,0.1760
3.6820,-0.2586,1.0106,0.2016
3.6820,-0.2586,1.0106,0.2016
3.6830,-0.2586,1.0106,0.2016
3.6840,-0.2586,1.0106,0.2016
3.6840,-0.2586,1.0106,0.2016
3.6850,-0.2586,1.0106,0.2016
3.6850,-0.2312,1.0196,0.1655
3.6860,-0.2312,1.0196,0.1655
3.6960,-0.2312,1.0196,0.1655
3.6960,-0.2312,1.0196,0.1655
3.6970,-0.2312,1.0196,0.1655
3.6980,-0.2217,1.0081,0.1830
3.6980,-0.2300,1.0220,0.1686
3.7290,-0.2300,1.0220,0.1686
3.7300,-0.2300,1.0220,0.1686
3.7310,-0.2300,1.0220,0.1686
3.7320,-0.2366,1.0438,0.1276
3.7470,-0.2366,1.0438,0.1276
3.7480,-0.2366,1.0438,0.1276
3.7490,-0.2366,1.0438,0.1276
3.7510,-0.2664,1.0176,0.1381
3.7520,-0.2664,1.0176,0.1381
3.7780,-0.2664,1.0176,0.1381
3.7780,-0.2664,1.0176,0.1381
3.7790,-0.2664,1.0176,0.1381
3.7800,-0.3052,0.9905,0.1782
3.7810,-0.3121,1.0030,0.1422
3.8070,-0.3121,1.0030,0.1422
3.8080,-0.3121,1.0030,0.1422
3.8090,-0.3121,1.0030,0.1422
3.8100,-0.2850,1.0211,0.1205
3.8270,-0.2850,1.0211,0.1205
3.8290,-0.2850,1.0211,0.1205
3.8310,-0.2850,1.0211,0.1205
3.8320,-0.2635,1.0054,0.1427
3.8330,-0.2635,1.0054,0.1427
3.8340,-0.2635,1.0054,0.1427
3.8570,-0.2635,1.0054,0.1427
3.8580,-0.2635,1.0054,0.1427
3.8580,-0.2635,1.0054,0.1427
3.8600,-0.2654,0.9978,0.1659
3.8610,-0.2735,1.0240,0.1518
3.8860,-0.2735,1.0240,0.1518
3.8870,-0.2735,1.0240,0.1518
3.8880,-0.2735,1.0240,0.1518
3.8890,-0.2571,1.0365,0.1097
3.9070,-0.2571,1.0365,0.1097
3.9080,-0.2571,1.0365,0.1097
3.9090,-0.2571,1.0365,0.1097
3.9100,-0.2353,1.0120,0.1212
3.9120,-0.2353,1.0120,0.1212
3.9370,-0.2353,1.0120,0.1212
3.9370,-0.2353,1.0120,0.1212
3.9380,-0.2353,1.0120,0.1212
3.9390,-0.2275,0.9956,0.1400
3.9400,-0.2290,1.0162,0.1351
3.9660,-0.2290,1.0162,0.1351
3.9680,-0.2290,1.0162,0.1351
3.9820,-0.2290,1.0162,0.1351
3.9830,-0.2112,1.0440,0.1136
3.9860,-0.2112,1.0440,0.1136
3.9880,-0.2112,1.0440,0.1136
3.9880,-0.2112,1.0440,0.1136
3.9890,-0.1911,1.0519,0.1168
3.9890,-0.1911,1.0519,0.1168
4.0150,-0.1911,1.0519,0.1168
4.0150,-0.1911,1.0519,0.1168
4.0160,-0.1911,1.0519,0.1168
4.0160,-0.1950,1.0438,0.1520
4.0170,-0.2168,1.0323,0.1623
4.0290,-0.2168,1.0323,0.1623
4.0450,-0.2168,1.0323,0.1623
4.0460,-0.2168,1.0323,0.1623
4.0460,-0.2168,1.0323,0.1623
4.0470,-0.2441,1.0245,0.1652
4.0660,-0.2441,1.0245,0.1652
4.0670,-0.2441,1.0245,0.1652
4.0680,-0.2441,1.0245,0.1652
4.0680,-0.2635,1.0101,0.1513
4.0690,-0.2635,1.0101,0.1513
4.0950,-0.2635,1.0101,0.1513
4.0950,-0.2635,1.0101,0.1513
4.0960,-0.2635,1.0101,0.1513
4.0960,-0.2671,1.0000,0.1444
4.0970,-0.2534,1.0071,0.1461
4.1250,-0.2534,1.0071,0.1461
4.1250,-0.2534,1.0071,0.1461
4.1260,-0.2534,1.0071,0.1461
4.1260,-0.2344,1.0372,0.1176
4.1460,-0.2344,1.0372,0.1176
4.1460,-0.2344,1.0372,0.1176
4.1470,-0.2344,1.0372,0.1176
4.1470,-0.2160,1.0421,0.1180
4.1470,-0.2160,1.0421,0.1180
4.1790,-0.2160,1.0421,0.1180
4.1800,-0.2160,1.0421,0.1180
4.1800,-0.2160,1.0421,0.1180
4.1810,-0.2248,1.0101,0.1740
4.1810,-0.2539,1.0147,0.1730
4.2070,-0.2539,1.0147,0.1730
4.2080,-0.2539,1.0147,0.1730
4.2080,-0.2539,1.0147,0.1730
4.2080,-0.2622,1.0274,0.1310
4.2280,-0.2622,1.0274,0.1310
4.2290,-0.2622,1.0274,0.1310
4.2290,-0.2622,1.0274,0.1310
4.2330,-0.2569,1.0120,0.1525
4.2330,-0.2569,1.0120,0.1525
4.2330,-0.2569,1.0120,0.1525
4.2590,-0.2569,1.0120,0.1525
4.2590,-0.2569,1.0120,0.1525
4.2590,-0.2569,1.0120,0.1525
4.2600,-0.2512,0.9964,0.1562
4.2600,-0.2578,1.0132,0.1410
4.2890,-0.2578,1.0132,0.1410
4.2900,-0.2578,1.0132,0.1410
4.2900,-0.2578,1.0132,0.1410
4.2900,-0.2764,1.0164,0.1366
4.3110,-0.2764,1.0164,0.1366
4.3110,-0.2764,1.0164,0.1366
4.3120,-0.2764,1.0164,0.1366
4.3140,-0.2681,1.0052,0.1852
4.3150,-0.2681,1.0052,0.1852
4.3400,-0.2681,1.0052,0.1852
4.3400,-0.2681,1.0052,0.1852
4.3400,-0.2681,1.0052,0.1852
4.3400,-0.2437,1.0025,0.1833
4.3410,-0.2483,0.9961,0.1567
4.3690,-0.2483,0.9961,0.1567
4.3690,-0.2483,0.9961,0.1567
4.3700,-0.2483,0.9961,0.1567
4.3700,-0.2615,0.9986,0.1635
4.3880,-0.2615,0.9986,0.1635
4.3890,-0.2615,0.9986,0.1635
4.3890,-0.2615,0.9986,0.1635
4.3920,-0.2591,1.0218,0.1532
4.3920,-0.2591,1.0218,0.1532
4.4190,-0.2591,1.0218,0.1532
4.4200,-0.2591,1.0218,0.1532
4.4200,-0.2591,1.0218,0.1532
4.4200,-0.2446,1.0438,0.1523
4.4210,-0.2353,1.0460,0.1601
4.4320,-0.2353,1.0460,0.1601
4.4460,-0.2353,1.0460,0.1601
4.4470,-0.2353,1.0460,0.1601
4.4470,-0.2353,1.0460,0.1601
4.4470,-0.2305,1.0533,0.1347
4.4680,-0.2305,1.0533,0.1347
4.4680,-0.2305,1.0533,0.1347
4.4690,-0.2305,1.0533,0.1347
4.4710,-0.2273,1.0509,0.1290
4.4720,-0.2273,1.0509,0.1290
4.5000,-0.2273,1.0509,0.1290
4.5000,-0.2273,1.0509,0.1290
4.5010,-0.2273,1.0509,0.1290
4.5010,-0.2373,1.0198,0.1652
4.5010,-0.2305,1.0071,0.1950
4.5270,-0.2305,1.0071,0.1950
4.5420,-0.2305,1.0071,0.1950
4.5440,-0.2305,1.0071,0.1950
4.5440,-0.2207,1.0030,0.1857
4.5460,-0.2207,1.0030,0.1857
4.5460,-0.2207,1.0030,0.1857
4.5470,-0.2207,1.0030,0.1857
4.5470,-0.2248,0.9993,0.1872
4.5480,-0.2248,0.9993,0.1872
4.5780,-0.2248,0.9993,0.1872
4.5780,-0.2248,0.9993,0.1872
4.5780,-0.2248,0.9993,0.1872
4.5790,-0.2309,1.0101,0.1650
4.5790,-0.2363,1.0255,0.1305
4.6070,-0.2363,1.0255,0.1305
4.6080,-0.2363,1.0255,0.1305
4.6080,-0.2363,1.0255,0.1305
4.6090,-0.2454,1.0152,0.1545
4.6290,-0.2454,1.0152,0.1545
4.6320,-0.2454,1.0152,0.1545
4.6330,-0.2454,1.0152,0.1545
4.6330,-0.2507,1.0020,0.1608
4.6340,-0.2507,1.0020,0.1608
4.6340,-0.2507,1.0020,0.1608
4.6580,-0.2507,1.0020,0.1608
4.6580,-0.2507,1.0020,0.1608
4.6580,-0.2507,1.0020,0.1608
4.6590,-0.2551,1.0069,0.1405
4.6590,-0.2859,1.0086,0.1623
4.6890,-0.2859,1.0086,0.1623
4.6890,-0.2859,1.0086,0.1623
4.6900,-0.2859,1.0086,0.1623
4.6900,-0.3184,1.0008,0.1664
4.7090,-0.3184,1.0008,0.1664
4.7100,-0.3184,1.0008,0.1664
4.7100,-0.3184,1.0008,0.1664
4.7110,-0.3175,0.9844,0.1552
4.7120,-0.3175,0.9844,0.1552
4.7390,-0.3175,0.9844,0.1552
4.7390,-0.3175,0.9844,0.1552
4.7400,-0.3175,0.9844,0.1552
4.7400,-0.2862,0.9812,0.1496
4.7410,-0.2605,0.9986,0.1613
4.7700,-0.2605,0.9986,0.1613
4.7700,-0.2605,0.9986,0.1613
4.7700,-0.2605,0.9986,0.1613
4.7710,-0.2410,1.0267,0.1840
4.7900,-0.2410,1.0267,0.1840
4.7910,-0.2410,1.0267,0.1840
4.7910,-0.2410,1.0267,0.1840
4.7920,-0.2256,1.0404,0.1659
4.7920,-0.2256,1.0404,0.1659
4.8200,-0.2256,1.0404,0.1659
4.8210,-0.2256,1.0404,0.1659
4.8210,-0.2256,1.0404,0.1659
4.8220,-0.2038,1.0394,0.1361
4.8220,-0.2099,1.0589,0.1342
4.8330,-0.2099,1.0589,0.1342
4.8520,-0.2099,1.0589,0.1342
4.8530,-0.2099,1.0589,0.1342
4.8530,-0.2099,1.0589,0.1342
4.8530,-0.2331,1.0609,0.1239
4.8680,-0.2331,1.0609,0.1239
4.8690,-0.2331,1.0609,0.1239
4.8700,-0.2331,1.0609,0.1239
4.8700,-0.2434,1.0316,0.1432
4.8710,-0.2434,1.0316,0.1432
4.8990,-0.2434,1.0316,0.1432
4.8990,-0.2434,1.0316,0.1432
4.9000,-0.2434,1.0316,0.1432
4.9000,-0.2229,1.0054,0.1618
4.9000,-0.1933,0.9937,0.1420
4.9280,-0.1933,0.9937,0.1420
4.9290,-0.1933,0.9937,0.1420
4.9290,-0.1933,0.9937,0.1420
4.9300,-0.1943,0.9888,0.1430
4.9490,-0.1943,0.9888,0.1430
4.9510,-0.1943,0.9888,0.1430
4.9520,-0.1943,0.9888,0.1430
4.9520,-0.2324,0.9917,0.1796
4.9520,-0.2324,0.9917,0.1796
4.9800,-0.2324,0.9917,0.1796
4.9800,-0.2324,0.9917,0.1796
4.9810,-0.2324,0.9917,0.1796
4.9810,-0.2551,1.0128,0.1742
4.9820,-0.2466,1.0492,0.1195
5.0100,-0.2466,1.0492,0.1195
5.0100,-0.2466,1.0492,0.1195
5.0110,-0.2466,1.0492,0.1195
5.0110,-0.2329,1.0558,0.1048
5.0300,-0.2329,1.0558,0.1048
5.0300,-0.2329,1.0558,0.1048
5.0310,-0.2329,1.0558,0.1048
5.0310,-0.2317,1.0330,0.1339
5.0310,-0.2317,1.0330,0.1339
5.0330,-0.2317,1.0330,0.1339
5.0600,-0.2317,1.0330,0.1339
5.0600,-0.2317,1.0330,0.1339
5.0610,-0.2317,1.0330,0.1339
5.0610,-0.2439,1.0018,0.1747
5.0610,-0.2676,0.9824,0.1833
5.0860,-0.2676,0.9824,0.1833
5.0860,-0.2676,0.9824,0.1833
5.0870,-0.2676,0.9824,0.1833
5.0870,-0.2911,0.9961,0.1784
5.1070,-0.2911,0.9961,0.1784
5.1070,-0.2911,0.9961,0.1784
5.1080,-0.2911,0.9961,0.1784
5.1080,-0.3035,1.0318,0.1337
5.1080,-0.3035,1.0318,0.1337
5.1370,-0.3035,1.0318,0.1337
5.1380,-0.3035,1.0318,0.1337
5.1380,-0.3035,1.0318,0.1337
5.1380,-0.2815,1.0479,0.1051
5.1380,-0.2637,1.0228,0.1459
5.1660,-0.2637,1.0228,0.1459
5.1670,-0.2637,1.0228,0.1459
5.1670,-0.2637,1.0228,0.1459
5.1670,-0.2573,0.9952,0.1813
5.1890,-0.2573,0.9952,0.1813
5.1900,-0.2573,0.9952,0.1813
5.1900,-0.2573,0.9952,0.1813
5.1910,-0.2691,0.9983,0.1640
5.1910,-0.2691,0.9983,0.1640
5.2190,-0.2691,0.9983,0.1640
5.2190,-0.2691,0.9983,0.1640
5.2200,-0.2691,0.9983,0.1640
5.2200,-0.2781,1.0145,0.1312
5.2200,-0.2801,1.0233,0.1215
5.2300,-0.2801,1.0233,0.1215
5.2490,-0.2801,1.0233,0.1215
5.2500,-0.2801,1.0233,0.1215
5.2500,-0.2801,1.0233,0.1215
5.2510,-0.2889,1.0272,0.1227
5.2700,-0.2889,1.0272,0.1227
5.2710,-0.2889,1.0272,0.1227
5.2710,-0.2889,1.0272,0.1227
5.2720,-0.2830,1.0338,0.1474
5.2720,-0.2830,1.0338,0.1474
5.3000,-0.2830,1.0338,0.1474
5.3000,-0.2830,1.0338,0.1474
5.3000,-0.2830,1.0338,0.1474
5.3010,-0.2610,1.0313,0.1349
5.3010,-0.2566,0.9964,0.1681
5.3290,-0.2566,0.9964,0.1681
5.3290,-0.2566,0.9964,0.1681
5.3300,-0.2566,0.9964,0.1681
5.3300,-0.2544,0.9839,0.1916
5.3490,-0.2544,0.9839,0.1916
5.3490,-0.2544,0.9839,0.1916
5.3500,-0.2544,0.9839,0.1916
5.3500,-0.2593,1.0030,0.1574
5.3500,-0.2593,1.0030,0.1574
5.3800,-0.2593,1.0030,0.1574
5.3800,-0.2593,1.0030,0.1574
5.3810,-0.2593,1.0030,0.1574
5.3810,-0.2710,1.0237,0.1408
5.3810,-0.2771,1.0255,0.1354
5.4080,-0.2771,1.0255,0.1354
5.4090,-0.2771,1.0255,0.1354
5.4090,-0.2771,1.0255,0.1354
5.4100,-0.2723,1.0176,0.1491
5.4300,-0.2723,1.0176,0.1491
5.4310,-0.2723,1.0176,0.1491
5.4310,-0.2723,1.0176,0.1491
5.4320,-0.2593,1.0294,0.1364
5.4320,-0.2593,1.0294,0.1364
5.4320,-0.2593,1.0294,0.1364
5.4590,-0.2593,1.0294,0.1364
5.4600,-0.2593,1.0294,0.1364
5.4600,-0.2593,1.0294,0.1364
5.4600,-0.2529,1.0240,0.1327
5.4600,-0.2481,1.0008,0.1752
5.4890,-0.2481,1.0008,0.1752
5.4900,-0.2481,1.0008,0.1752
5.4900,-0.2481,1.0008,0.1752
5.4900,-0.2410,1.0022,0.1606
5.5100,-0.2410,1.0022,0.1606
5.5100,-0.2410,1.0022,0.1606
5.5110,-0.2410,1.0022,0.1606
5.5110,-0.2503,1.0235,0.1224
5.5110,-0.2503,1.0235,0.1224
5.5370,-0.2503,1.0235,0.1224
5.5370,-0.2503,1.0235,0.1224
5.5380,-0.2503,1.0235,0.1224
5.5380,-0.2630,1.0323,0.1229
5.5380,-0.2698,1.0240,0.1251
5.5680,-0.2698,1.0240,0.1251
5.5680,-0.2698,1.0240,0.1251
5.5680,-0.2698,1.0240,0.1251
5.5690,-0.2632,1.0128,0.1549
5.5890,-0.2632,1.0128,0.1549
5.5890,-0.2632,1.0128,0.1549
5.5900,-0.2632,1.0128,0.1549
5.5900,-0.2625,1.0154,0.1735
5.5900,-0.2625,1.0154,0.1735
5.6180,-0.2625,1.0154,0.1735
5.6190,-0.2625,1.0154,0.1735
5.6190,-0.2625,1.0154,0.1735
5.6190,-0.2766,1.0159,0.1606
5.6200,-0.2908,1.0098,0.1493
5.6350,-0.2908,1.0098,0.1493
5.6480,-0.2908,1.0098,0.1493
5.6480,-0.2908,1.0098,0.1493
5.6490,-0.2908,1.0098,0.1493
5.6490,-0.2898,1.0150,0.1498
5.6680,-0.2898,1.0150,0.1498
5.6690,-0.2898,1.0150,0.1498
5.6690,-0.2898,1.0150,0.1498
5.6690,-0.2691,1.0179,0.1452
5.6690,-0.2691,1.0179,0.1452
5.6970,-0.2691,1.0179,0.1452
5.6970,-0.2691,1.0179,0.1452
5.6980,-0.2691,1.0179,0.1452
5.6980,-0.2576,1.0096,0.1351
5.6980,-0.2671,1.0054,0.1405
5.7270,-0.2671,1.0054,0.1405
5.7270,-0.2671,1.0054,0.1405
5.7280,-0.2671,1.0054,0.1405
5.7280,-0.2801,1.0118,0.1417
5.7480,-0.2801,1.0118,0.1417
5.7480,-0.2801,1.0118,0.1417
5.7490,-0.2801,1.0118,0.1417
5.7490,-0.2796,1.0181,0.1356
5.7490,-0.2796,1.0181,0.1356
5.7780,-0.2796,1.0181,0.1356
5.7790,-0.2796,1.0181,0.1356
5.7790,-0.2796,1.0181,0.1356
5.7800,-0.2730,1.0101,0.1496
5.7800,-0.2603,1.0052,0.1611
5.8070,-0.2603,1.0052,0.1611
5.8070,-0.2603,1.0052,0.1611
5.8080,-0.2603,1.0052,0.1611
5.8090,-0.2539,1.0162,0.1571
5.8310,-0.2539,1.0162,0.1571
5.8310,-0.2539,1.0162,0.1571
5.8320,-0.2539,1.0162,0.1571
5.8330,-0.2476,1.0242,0.1329
5.8340,-0.2476,1.0242,0.1329
5.8340,-0.2476,1.0242,0.1329
5.8580,-0.2476,1.0242,0.1329
5.8580,-0.2476,1.0242,0.1329
5.8590,-0.2476,1.0242,0.1329
5.8610,-0.2564,1.0147,0.1007
5.8610,-0.2759,1.0086,0.1171
5.8900,-0.2759,1.0086,0.1171
5.8910,-0.2759,1.0086,0.1171
5.8920,-0.2759,1.0086,0.1171
5.8920,-0.3033,1.0128,0.1469
5.9080,-0.3033,1.0128,0.1469
5.9090,-0.3033,1.0128,0.1469
5.9100,-0.3033,1.0128,0.1469
5.9110,-0.3182,1.0027,0.1694
5.9120,-0.3182,1.0027,0.1694
5.9380,-0.3182,1.0027,0.1694
5.9390,-0.3182,1.0027,0.1694
5.9400,-0.3182,1.0027,0.1694
5.9410,-0.3072,0.9883,0.1596
5.9410,-0.2889,0.9952,0.1290
5.9690,-0.2889,0.9952,0.1290
5.9700,-0.2889,0.9952,0.1290
5.9710,-0.2889,0.9952,0.1290
5.9720,-0.2786,1.0184,0.1549
5.9920,-0.2786,1.0184,0.1549
5.9930,-0.2786,1.0184,0.1549
5.9940,-0.2786,1.0184,0.1549
5.9950,-0.2476,1.0404,0.1718
5.9960,-0.2476,1.0404,0.1718
6.0200,-0.2476,1.0404,0.1718
6.0210,-0.2476,1.0404,0.1718
6.0230,-0.2476,1.0404,0.1718
6.0240,-0.2532,1.0098,0.1386
6.0250,-0.2598,0.9881,0.1882
6.0310,-0.2598,0.9881,0.1882
6.0500,-0.2598,0.9881,0.1882
6.0520,-0.2598,0.9881,0.1882
6.0530,-0.2598,0.9881,0.1882
6.0540,-0.2725,1.0150,0.1503
6.0720,-0.2725,1.0150,0.1503
6.0730,-0.2725,1.0150,0.1503
6.0740,-0.2725,1.0150,0.1503
6.0750,-0.2642,1.0335,0.1163
6.0770,-0.2642,1.0335,0.1163
6.1010,-0.2642,1.0335,0.1163
6.1030,-0.2642,1.0335,0.1163
6.1040,-0.2642,1.0335,0.1163
6.1050,-0.2473,1.0176,0.1413
6.1060,-0.2515,1.0030,0.1532
6.1290,-0.2515,1.0030,0.1532
6.1310,-0.2515,1.0030,0.1532
6.1310,-0.2515,1.0030,0.1532
6.1320,-0.2617,1.0213,0.1395
6.1510,-0.2617,1.0213,0.1395
6.1520,-0.2617,1.0213,0.1395
6.1530,-0.2617,1.0213,0.1395
6.1540,-0.2718,1.0365,0.1303
6.1550,-0.2718,1.0365,0.1303
6.1800,-0.2718,1.0365,0.1303
6.1810,-0.2718,1.0365,0.1303
6.1830,-0.2718,1.0365,0.1303
6.1840,-0.2669,1.0193,0.1652
6.2140,-0.2569,1.0110,0.1689
6.2140,-0.2569,1.0110,0.1689
6.2150,-0.2569,1.0110,0.1689
6.2150,-0.2569,1.0110,0.1689
6.2150,-0.2605,1.0110,0.1513
6.2300,-0.2605,1.0110,0.1513
6.2300,-0.2605,1.0110,0.1513
6.2310,-0.2605,1.0110,0.1513
6.2310,-0.2637,1.0152,0.1427
6.2310,-0.2637,1.0152,0.1427
6.2310,-0.2637,1.0152,0.1427
6.2580,-0.2637,1.0152,0.1427
6.2590,-0.2637,1.0152,0.1427
6.2600,-0.2637,1.0152,0.1427
6.2610,-0.2510,1.0208,0.1347
6.2610,-0.2476,1.0159,0.1425
6.2880,-0.2476,1.0159,0.1425
6.2890,-0.2476,1.0159,0.1425
6.2900,-0.2476,1.0159,0.1425
6.2910,-0.2517,1.0140,0.1486
6.3100,-0.2517,1.0140,0.1486
6.3110,-0.2517,1.0140,0.1486
6.3120,-0.2517,1.0140,0.1486
6.3130,-0.2559,1.0123,0.1359
6.3140,-0.2559,1.0123,0.1359
6.3390,-0.2559,1.0123,0.1359
6.3400,-0.2559,1.0123,0.1359
6.3400,-0.2559,1.0123,0.1359
6.3410,-0.2608,1.0164,0.1515
6.3420,-0.2691,1.0206,0.1540
6.3690,-0.2691,1.0206,0.1540
6.3700,-0.2691,1.0206,0.1540
6.3700,-0.2691,1.0206,0.1540
6.3710,-0.2764,1.0088,0.1479
6.3910,-0.2764,1.0088,0.1479
6.3910,-0.2764,1.0088,0.1479
6.3930,-0.2764,1.0088,0.1479
6.3940,-0.2832,1.0042,0.1613
6.3950,-0.2832,1.0042,0.1613
6.4200,-0.2832,1.0042,0.1613
6.4210,-0.2832,1.0042,0.1613
6.4220,-0.2832,1.0042,0.1613
6.4230,-0.2854,1.0059,0.1459
6.4240,-0.2874,1.0145,0.1349
6.4300,-0.2874,1.0145,0.1349
6.4510,-0.2874,1.0145,0.1349
6.4520,-0.2874,1.0145,0.1349
6.4530,-0.2874,1.0145,0.1349
6.4550,-0.2859,1.0147,0.1391
6.4710,-0.2859,1.0147,0.1391
6.4730,-0.2859,1.0147,0.1391
6.4740,-0.2859,1.0147,0.1391
6.4750,-0.2803,1.0101,0.1513
6.4760,-0.2803,1.0101,0.1513
6.5010,-0.2803,1.0101,0.1513
6.5050,-0.2803,1.0101,0.1513
6.5080,-0.2803,1.0101,0.1513
6.5090,-0.2791,1.0022,0.1679
6.5100,-0.2701,1.0066,0.1589
6.5300,-0.2701,1.0066,0.1589
6.5310,-0.2701,1.0066,0.1589
6.5320,-0.2701,1.0066,0.1589
6.5330,-0.2617,1.0176,0.1239
6.5520,-0.2617,1.0176,0.1239
6.5540,-0.2617,1.0176,0.1239
6.5550,-0.2617,1.0176,0.1239
6.5560,-0.2593,1.0237,0.1090
6.5570,-0.2593,1.0237,0.1090
6.5800,-0.2593,1.0237,0.1090
6.5810,-0.2593,1.0237,0.1090
6.5840,-0.2593,1.0237,0.1090
6.5850,-0.2666,1.0086,0.1386
6.5850,-0.2708,1.0013,0.1562
6.6090,-0.2708,1.0013,0.1562
6.6100,-0.2708,1.0013,0.1562
6.6110,-0.2708,1.0013,0.1562
6.6120,-0.2652,1.0145,0.1540
6.6320,-0.2652,1.0145,0.1540
6.6330,-0.2652,1.0145,0.1540
6.6340,-0.2652,1.0145,0.1540
6.6340,-0.2554,1.0203,0.1503
6.6350,-0.2554,1.0203,0.1503
6.6350,-0.2554,1.0203,0.1503
6.6610,-0.2554,1.0203,0.1503
6.6630,-0.2554,1.0203,0.1503
6.6640,-0.2554,1.0203,0.1503
6.6640,-0.2520,1.0164,0.1464
6.6650,-0.2534,1.0213,0.1400
6.6900,-0.2534,1.0213,0.1400
6.6910,-0.2534,1.0213,0.1400
6.6920,-0.2534,1.0213,0.1400
6.6920,-0.2654,1.0108,0.1400
6.7120,-0.2654,1.0108,0.1400
6.7130,-0.2654,1.0108,0.1400
6.7140,-0.2654,1.0108,0.1400
6.7150,-0.2705,1.0079,0.1589
6.7160,-0.2705,1.0079,0.1589
6.7400,-0.2705,1.0079,0.1589
6.7410,-0.2705,1.0079,0.1589
6.7430,-0.2705,1.0079,0.1589
6.8540,-0.2608,1.0220,0.1596
6.8550,-0.2537,1.0264,0.1466
6.8640,-0.2537,1.0264,0.1466
6.8640,-0.2537,1.0264,0.1466
6.8650,-0.2537,1.0264,0.1466
6.8650,-0.2537,1.0264,0.1466
6.8660,-0.2537,1.0264,0.1466
6.8670,-0.2537,1.0264,0.1466
6.8680,-0.2537,1.0264,0.1466
6.8690,-0.2537,1.0264,0.1466
6.8700,-0.2537,1.0264,0.1466
6.8710,-0.2537,1.0264,0.1466
6.8720,-0.2537,1.0264,0.1466
6.8730,-0.2537,1.0264,0.1466
6.8740,-0.2593,1.0213,0.1444
6.8750,-0.2720,1.0211,0.1420
6.8760,-0.2708,1.0245,0.1378
6.8770,-0.2630,1.0118,0.1513
6.8780,-0.2539,1.0013,0.1532
6.8790,-0.2539,1.0013,0.1532
6.8800,-0.2539,1.0013,0.1532
6.8810,-0.2539,1.0013,0.1532
6.8820,-0.2539,1.0013,0.1532
6.8820,-0.2539,1.0013,0.1532
6.8830,-0.2559,1.0013,0.1383
6.8840,-0.2559,1.0013,0.1383
6.8980,-0.2559,1.0013,0.1383
6.8990,-0.2559,1.0013,0.1383
6.8990,-0.2559,1.0013,0.1383
6.9000,-0.2632,1.0169,0.1325
6.9000,-0.2725,1.0193,0.1386
6.9290,-0.2725,1.0193,0.1386
6.9300,-0.2725,1.0193,0.1386
6.9310,-0.2725,1.0193,0.1386
6.9310,-0.2798,1.0132,0.1623
6.9510,-0.2798,1.0132,0.1623
6.9520,-0.2798,1.0132,0.1623
6.9530,-0.2798,1.0132,0.1623
6.9580,-0.2769,1.0101,0.1657
6.9590,-0.2769,1.0101,0.1657
6.9800,-0.2769,1.0101,0.1657
6.9800,-0.2769,1.0101,0.1657
6.9810,-0.2769,1.0101,0.1657
6.9810,-0.2688,1.0132,0.1415
6.9820,-0.2661,1.0096,0.1432
7.0100,-0.2661,1.0096,0.1432
7.0110,-0.2661,1.0096,0.1432
7.0120,-0.2661,1.0096,0.1432
7.0130,-0.2676,1.0137,0.1496
7.0310,-0.2676,1.0137,0.1496
7.0320,-0.2676,1.0137,0.1496
7.0340,-0.2676,1.0137,0.1496
7.0360,-0.2676,1.0137,0.1496
7.0370,-0.2637,1.0218,0.1391
7.0380,-0.2637,1.0218,0.1391
7.0620,-0.2637,1.0218,0.1391
7.0630,-0.2637,1.0218,0.1391
7.0640,-0.2637,1.0218,0.1391
7.0650,-0.2598,1.0140,0.1545
7.0650,-0.2605,1.0069,0.1562
7.0910,-0.2605,1.0069,0.1562
7.0910,-0.2605,1.0069,0.1562
7.0920,-0.2605,1.0069,0.1562
7.0930,-0.2600,1.0071,0.1457
7.1140,-0.2600,1.0071,0.1457
7.1160,-0.2600,1.0071,0.1457
7.1180,-0.2600,1.0071,0.1457
7.1190,-0.2661,1.0130,0.1586
7.1200,-0.2661,1.0130,0.1586
7.1400,-0.2661,1.0130,0.1586
7.1420,-0.2661,1.0130,0.1586
7.1430,-0.2661,1.0130,0.1586
7.1440,-0.2473,1.0284,0.1415
7.1450,-0.2285,1.0225,0.1383
7.1700,-0.2285,1.0225,0.1383
7.1710,-0.2285,1.0225,0.1383
7.1710,-0.2285,1.0225,0.1383
7.1720,-0.2300,1.0108,0.1716
7.1910,-0.2300,1.0108,0.1716
7.1920,-0.2300,1.0108,0.1716
7.1930,-0.2300,1.0108,0.1716
7.1940,-0.2488,1.0159,0.1530
7.1950,-0.2488,1.0159,0.1530
7.2200,-0.2488,1.0159,0.1530
7.2210,-0.2488,1.0159,0.1530
7.2220,-0.2488,1.0159,0.1530
7.2230,-0.2637,1.0250,0.1437
7.2240,-0.2617,1.0233,0.1339
7.2310,-0.2617,1.0233,0.1339
7.2510,-0.2617,1.0233,0.1339
7.2520,-0.2617,1.0233,0.1339
7.2530,-0.2617,1.0233,0.1339
7.2540,-0.2600,1.0218,0.1479
7.2710,-0.2600,1.0218,0.1479
7.2720,-0.2600,1.0218,0.1479
7.2730,-0.2600,1.0218,0.1479
7.2740,-0.2637,1.0208,0.1567
7.2740,-0.2637,1.0208,0.1567
7.3010,-0.2637,1.0208,0.1567
7.3020,-0.2637,1.0208,0.1567
7.3240,-0.2637,1.0208,0.1567
7.3250,-0.2654,1.0257,0.1576
7.3260,-0.2688,1.0084,0.1593
7.3300,-0.2688,1.0084,0.1593
7.3310,-0.2688,1.0084,0.1593
7.3320,-0.2688,1.0084,0.1593
7.3320,-0.2625,1.0106,0.1503
7.3500,-0.2625,1.0106,0.1503
7.3510,-0.2625,1.0106,0.1503
7.3520,-0.2625,1.0106,0.1503
7.3530,-0.2615,1.0230,0.1325
7.3540,-0.2615,1.0230,0.1325
7.3810,-0.2615,1.0230,0.1325
7.3820,-0.2615,1.0230,0.1325
7.3840,-0.2615,1.0230,0.1325
7.3850,-0.2649,1.0142,0.1437
7.3860,-0.2581,1.0088,0.1730
7.4140,-0.2581,1.0088,0.1730
7.4150,-0.2581,1.0088,0.1730
7.4150,-0.2581,1.0088,0.1730
7.4160,-0.2483,1.0140,0.1630
7.4310,-0.2483,1.0140,0.1630
7.4320,-0.2483,1.0140,0.1630
7.4330,-0.2483,1.0140,0.1630
7.4340,-0.2446,1.0179,0.1591
7.4350,-0.2446,1.0179,0.1591
7.4350,-0.2446,1.0179,0.1591
7.4600,-0.2446,1.0179,0.1591
7.4610,-0.2446,1.0179,0.1591
7.4630,-0.2446,1.0179,0.1591
7.4640,-0.2544,1.0225,0.1386
7.4650,-0.2583,1.0325,0.1185
7.4910,-0.2583,1.0325,0.1185
7.4920,-0.2583,1.0325,0.1185
7.4960,-0.2583,1.0325,0.1185
7.4970,-0.2698,1.0215,0.1393
7.5130,-0.2698,1.0215,0.1393
7.5150,-0.2698,1.0215,0.1393
7.5160,-0.2698,1.0215,0.1393
7.5170,-0.2793,1.0020,0.1723
7.5190,-0.2793,1.0020,0.1723
7.5440,-0.2793,1.0020,0.1723
7.5460,-0.2793,1.0020,0.1723
7.5470,-0.2793,1.0020,0.1723
7.5480,-0.2708,1.0074,0.1755
7.5500,-0.2586,1.0123,0.1498
7.5710,-0.2586,1.0123,0.1498
7.5720,-0.2586,1.0123,0.1498
7.5730,-0.2586,1.0123,0.1498
7.5740,-0.2578,1.0106,0.1464
7.5920,-0.2578,1.0106,0.1464
7.5940,-0.2578,1.0106,0.1464
7.5960,-0.2578,1.0106,0.1464
7.5970,-0.2620,1.0179,0.1361
7.5980,-0.2620,1.0179,0.1361
7.6220,-0.2620,1.0179,0.1361
7.6230,-0.2620,1.0179,0.1361
7.6240,-0.2620,1.0179,0.1361
7.6250,-0.2613,1.0123,0.1520
7.6260,-0.2593,1.0066,0.1535
7.6330,-0.2593,1.0066,0.1535
7.6510,-0.2593,1.0066,0.1535
7.6520,-0.2593,1.0066,0.1535
7.6530,-0.2593,1.0066,0.1535
7.6540,-0.2593,1.0008,0.1623
7.6730,-0.2593,1.0008,0.1623
7.6740,-0.2593,1.0008,0.1623
7.6740,-0.2593,1.0008,0.1623
7.6750,-0.2625,1.0142,0.1628
7.6750,-0.2625,1.0142,0.1628
7.7010,-0.2625,1.0142,0.1628
7.7030,-0.2625,1.0142,0.1628
7.7040,-0.2625,1.0142,0.1628
7.7050,-0.2657,1.0264,0.1430
7.7070,-0.2674,1.0223,0.1435
7.7350,-0.2674,1.0223,0.1435
7.7360,-0.2674,1.0223,0.1435
7.7370,-0.2674,1.0223,0.1435
7.7380,-0.2683,1.0223,0.1571
7.7530,-0.2683,1.0223,0.1571
7.7550,-0.2683,1.0223,0.1571
7.7570,-0.2683,1.0223,0.1571
7.7580,-0.2676,1.0193,0.1557
7.7590,-0.2676,1.0193,0.1557
7.7820,-0.2676,1.0193,0.1557
7.7830,-0.2676,1.0193,0.1557
7.7840,-0.2676,1.0193,0.1557
7.7850,-0.2539,1.0142,0.1601
7.7860,-0.2339,1.0159,0.1733
7.8120,-0.2339,1.0159,0.1733
7.8130,-0.2339,1.0159,0.1733
7.8140,-0.2339,1.0159,0.1733
7.8150,-0.2217,1.0189,0.1637
7.8350,-0.2217,1.0189,0.1637
7.8360,-0.2217,1.0189,0.1637
7.8370,-0.2217,1.0189,0.1637
7.8380,-0.2217,1.0189,0.1637
7.8390,-0.2222,1.0167,0.1457
7.8400,-0.2222,1.0167,0.1457
7.8620,-0.2222,1.0167,0.1457
7.8810,-0.2222,1.0167,0.1457
7.8820,-0.2222,1.0167,0.1457
7.8840,-0.2300,1.0106,0.1513
7.8860,-0.2341,1.0242,0.1574
7.8890,-0.2341,1.0242,0.1574
7.8900,-0.2341,1.0242,0.1574
7.8900,-0.2341,1.0242,0.1574
7.8910,-0.2312,1.0225,0.1623
7.9100,-0.2312,1.0225,0.1623
7.9110,-0.2312,1.0225,0.1623
7.9110,-0.2312,1.0225,0.1623
7.9120,-0.2275,1.0096,0.1916
7.9120,-0.2275,1.0096,0.1916
7.9420,-0.2275,1.0096,0.1916
7.9430,-0.2275,1.0096,0.1916
7.9430,-0.2275,1.0096,0.1916
7.9440,-0.2156,1.0172,0.1584
7.9440,-0.2388,1.0196,0.1447
7.9690,-0.2388,1.0196,0.1447
7.9700,-0.2388,1.0196,0.1447
7.9700,-0.2388,1.0196,0.1447
7.9710,-0.2654,1.0189,0.1750
7.9900,-0.2654,1.0189,0.1750
7.9910,-0.2654,1.0189,0.1750
7.9910,-0.2654,1.0189,0.1750
7.9910,-0.2644,1.0228,0.1806
7.9920,-0.2644,1.0228,0.1806
8.0190,-0.2644,1.0228,0.1806
8.0200,-0.2644,1.0228,0.1806
8.0200,-0.2644,1.0228,0.1806
8.0210,-0.2566,1.0191,0.1662
8.0220,-0.2566,1.0172,0.1518
8.0280,-0.2566,1.0172,0.1518
8.0490,-0.2566,1.0172,0.1518
8.0500,-0.2566,1.0172,0.1518
8.0500,-0.2566,1.0172,0.1518
8.0510,-0.2764,1.0233,0.1442
8.0700,-0.2764,1.0233,0.1442
8.0710,-0.2764,1.0233,0.1442
8.0710,-0.2764,1.0233,0.1442
8.0720,-0.2713,1.0338,0.1545
8.0720,-0.2713,1.0338,0.1545
8.1010,-0.2713,1.0338,0.1545
8.1020,-0.2713,1.0338,0.1545
8.1020,-0.2713,1.0338,0.1545
8.1030,-0.2283,1.0264,0.1659
8.1040,-0.2085,1.0108,0.1496
8.1320,-0.2085,1.0108,0.1496
8.1330,-0.2085,1.0108,0.1496
8.1340,-0.2085,1.0108,0.1496
8.1350,-0.2124,1.0047,0.1303
8.1520,-0.2124,1.0047,0.1303
8.1530,-0.2124,1.0047,0.1303
8.1540,-0.2124,1.0047,0.1303
8.1550,-0.1928,1.0135,0.1293
8.1560,-0.1928,1.0135,0.1293
8.1830,-0.1928,1.0135,0.1293
8.1840,-0.1928,1.0135,0.1293
8.1850,-0.1928,1.0135,0.1293
8.1870,-0.1547,1.0250,0.1305
8.1880,-0.1349,1.0357,0.1417
8.2130,-0.1349,1.0357,0.1417
8.2140,-0.1349,1.0357,0.1417
8.2150,-0.1349,1.0357,0.1417
8.2160,-0.1684,1.0406,0.1452
8.2310,-0.1684,1.0406,0.1452
8.2320,-0.1684,1.0406,0.1452
8.2330,-0.1684,1.0406,0.1452
8.2340,-0.1684,1.0406,0.1452
8.2360,-0.2290,1.0338,0.1606
8.2370,-0.2290,1.0338,0.1606
8.2380,-0.2290,1.0338,0.1606
8.2660,-0.2290,1.0338,0.1606
8.2680,-0.2290,1.0338,0.1606
8.2700,-0.2290,1.0338,0.1606
8.2710,-0.2679,1.0333,0.1672
8.2720,-0.2713,1.0406,0.1408
8.2920,-0.2713,1.0406,0.1408
8.2940,-0.2713,1.0406,0.1408
8.2950,-0.2713,1.0406,0.1408
8.2970,-0.2534,1.0357,0.1207
8.3140,-0.2534,1.0357,0.1207
8.3150,-0.2534,1.0357,0.1207
8.3170,-0.2534,1.0357,0.1207
8.3170,-0.2415,1.0352,0.1132
8.3180,-0.2415,1.0352,0.1132
8.3460,-0.2415,1.0352,0.1132
8.3480,-0.2415,1.0352,0.1132
8.3490,-0.2415,1.0352,0.1132
8.3500,-0.2446,1.0308,0.1229
8.3510,-0.2439,1.0228,0.1342
8.3710,-0.2439,1.0228,0.1342
8.3720,-0.2439,1.0228,0.1342
8.3730,-0.2439,1.0228,0.1342
8.3740,-0.2383,1.0225,0.1295
8.3940,-0.2383,1.0225,0.1295
8.3950,-0.2383,1.0225,0.1295
8.3960,-0.2383,1.0225,0.1295
8.3970,-0.2402,1.0096,0.1305
8.3980,-0.2402,1.0096,0.1305
8.4210,-0.2402,1.0096,0.1305
8.4220,-0.2402,1.0096,0.1305
8.4220,-0.2402,1.0096,0.1305
8.4230,-0.2385,1.0030,0.1259
8.4230,-0.2510,1.0174,0.1212
8.4300,-0.2510,1.0174,0.1212
8.4360,-0.2510,1.0174,0.1212
8.4510,-0.2510,1.0174,0.1212
8.4510,-0.2510,1.0174,0.1212
8.4520,-0.2510,1.0174,0.1212
8.4520,-0.2613,1.0245,0.1344
8.4720,-0.2613,1.0245,0.1344
8.4730,-0.2613,1.0245,0.1344
8.4740,-0.2613,1.0245,0.1344
8.4750,-0.2737,1.0154,0.1268
8.4760,-0.2737,1.0154,0.1268
8.5020,-0.2737,1.0154,0.1268
8.5060,-0.2737,1.0154,0.1268
8.5060,-0.2737,1.0154,0.1268
8.5070,-0.2842,1.0159,0.1410
8.5070,-0.2718,1.0220,0.1105
8.5330,-0.2718,1.0220,0.1105
8.5340,-0.2718,1.0220,0.1105
8.5350,-0.2718,1.0220,0.1105
8.5360,-0.2503,1.0281,0.0970
8.5530,-0.2503,1.0281,0.0970
8.5540,-0.2503,1.0281,0.0970
8.5550,-0.2503,1.0281,0.0970
8.5560,-0.2400,1.0289,0.1154
8.5570,-0.2400,1.0289,0.1154
8.5820,-0.2400,1.0289,0.1154
8.5840,-0.2400,1.0289,0.1154
8.5850,-0.2400,1.0289,0.1154
8.5870,-0.2551,1.0113,0.1435
8.5880,-0.2815,1.0037,0.1593
8.6130,-0.2815,1.0037,0.1593
8.6140,-0.2815,1.0037,0.1593
8.6150,-0.2815,1.0037,0.1593
8.6160,-0.2720,1.0145,0.1327
8.6310,-0.2720,1.0145,0.1327
8.6360,-0.2720,1.0145,0.1327
8.6370,-0.2720,1.0145,0.1327
8.6380,-0.2720,1.0145,0.1327
8.6390,-0.2429,1.0179,0.1359
8.6400,-0.2429,1.0179,0.1359
8.6410,-0.2429,1.0179,0.1359
8.6640,-0.2429,1.0179,0.1359
8.6650,-0.2429,1.0179,0.1359
8.6680,-0.2429,1.0179,0.1359
8.6690,-0.2395,1.0150,0.1400
8.6690,-0.2441,1.0181,0.1420
8.6940,-0.2441,1.0181,0.1420
8.6950,-0.2441,1.0181,0.1420
8.6970,-0.2441,1.0181,0.1420
8.6980,-0.2197,1.0325,0.1146
8.7120,-0.2197,1.0325,0.1146
8.7130,-0.2197,1.0325,0.1146
8.7140,-0.2197,1.0325,0.1146
8.7150,-0.2016,1.0445,0.0990
8.7180,-0.2016,1.0445,0.0990
8.7430,-0.2016,1.0445,0.0990
8.7440,-0.2016,1.0445,0.0990
8.7450,-0.2016,1.0445,0.0990
8.7470,-0.2121,1.0228,0.1354
8.7480,-0.2270,0.9986,0.1620
8.7730,-0.2270,0.9986,0.1620
8.7740,-0.2270,0.9986,0.1620
8.7750,-0.2270,0.9986,0.1620
8.7760,-0.2314,1.0086,0.1527
8.7940,-0.2314,1.0086,0.1527
8.7950,-0.2314,1.0086,0.1527
8.7950,-0.2314,1.0086,0.1527
8.7960,-0.2405,1.0374,0.1469
8.7970,-0.2405,1.0374,0.1469
8.8240,-0.2405,1.0374,0.1469
8.8280,-0.2405,1.0374,0.1469
8.8290,-0.2405,1.0374,0.1469
8.8290,-0.2512,1.0355,0.1447
8.8300,-0.2625,1.0040,0.1755
8.8310,-0.2625,1.0040,0.1755
8.8520,-0.2625,1.0040,0.1755
8.8530,-0.2625,1.0040,0.1755
8.8530,-0.2625,1.0040,0.1755
8.8540,-0.2549,0.9971,0.1694
8.8780,-0.2549,0.9971,0.1694
8.8790,-0.2549,0.9971,0.1694
8.8800,-0.2549,0.9971,0.1694
8.8810,-0.2344,1.0274,0.1200
8.8820,-0.2344,1.0274,0.1200
8.9040,-0.2344,1.0274,0.1200
8.9050,-0.2344,1.0274,0.1200
8.9070,-0.2344,1.0274,0.1200
8.9080,-0.2278,1.0369,0.1102
8.9100,-0.2251,1.0245,0.1239
8.9320,-0.2251,1.0245,0.1239
8.9330,-0.2251,1.0245,0.1239
8.9340,-0.2251,1.0245,0.1239
8.9350,-0.2393,1.0245,0.1342
8.9540,-0.2393,1.0245,0.1342
8.9550,-0.2393,1.0245,0.1342
8.9780,-0.2393,1.0245,0.1342
8.9780,-0.2564,1.0279,0.1410
8.9790,-0.2564,1.0279,0.1410
8.9830,-0.2564,1.0279,0.1410
8.9830,-0.2564,1.0279,0.1410
8.9840,-0.2564,1.0279,0.1410
8.9850,-0.2463,1.0291,0.1381
8.9850,-0.2402,1.0145,0.1535
9.0110,-0.2402,1.0145,0.1535
9.0110,-0.2402,1.0145,0.1535
9.0120,-0.2402,1.0145,0.1535
9.0130,-0.2368,1.0091,0.1672
9.0290,-0.2368,1.0091,0.1672
9.0320,-0.2368,1.0091,0.1672
9.0340,-0.2368,1.0091,0.1672
9.0350,-0.2368,1.0091,0.1672
9.0350,-0.2239,1.0169,0.1158
9.0360,-0.2239,1.0169,0.1158
9.0630,-0.2239,1.0169,0.1158
9.0640,-0.2239,1.0169,0.1158
9.0660,-0.2239,1.0169,0.1158
9.0670,-0.2180,1.0269,0.1044
9.0680,-0.2344,1.0277,0.1488
9.0920,-0.2344,1.0277,0.1488
9.0930,-0.2344,1.0277,0.1488
9.0940,-0.2344,1.0277,0.1488
9.0950,-0.2657,1.0213,0.1657
9.1130,-0.2657,1.0213,0.1657
9.1140,-0.2657,1.0213,0.1657
9.1150,-0.2657,1.0213,0.1657
9.1160,-0.2808,1.0233,0.1669
9.1170,-0.2808,1.0233,0.1669
9.1440,-0.2808,1.0233,0.1669
9.1460,-0.2808,1.0233,0.1669
9.1480,-0.2808,1.0233,0.1669
9.1490,-0.3052,0.9988,0.1694
9.1500,-0.3187,0.9741,0.1850
9.1730,-0.3187,0.9741,0.1850
9.1740,-0.3187,0.9741,0.1850
9.1750,-0.3187,0.9741,0.1850
9.1770,-0.2925,1.0015,0.1730
9.1940,-0.2925,1.0015,0.1730
9.1950,-0.2925,1.0015,0.1730
9.1960,-0.2925,1.0015,0.1730
9.1970,-0.2529,1.0277,0.1408
9.1980,-0.2529,1.0277,0.1408
9.2280,-0.2529,1.0277,0.1408
9.2300,-0.2529,1.0277,0.1408
9.2310,-0.2529,1.0277,0.1408
9.2320,-0.2344,1.0137,0.1241
9.2330,-0.2473,0.9996,0.1439
9.2340,-0.2473,0.9996,0.1439
9.2350,-0.2473,0.9996,0.1439
9.2520,-0.2473,0.9996,0.1439
9.2530,-0.2473,0.9996,0.1439
9.2540,-0.2473,0.9996,0.1439
9.2550,-0.2498,1.0257,0.1312
9.2740,-0.2498,1.0257,0.1312
9.2750,-0.2498,1.0257,0.1312
9.2760,-0.2498,1.0257,0.1312
9.2770,-0.2344,1.0614,0.0890
9.2780,-0.2344,1.0614,0.0890
9.3060,-0.2344,1.0614,0.0890
9.3070,-0.2344,1.0614,0.0890
9.3090,-0.2344,1.0614,0.0890
9.3100,-0.2307,1.0357,0.1146
9.3110,-0.2647,0.9881,0.1796
9.3330,-0.2647,0.9881,0.1796
9.3340,-0.2647,0.9881,0.1796
9.3350,-0.2647,0.9881,0.1796
9.3360,-0.2620,0.9961,0.1711
9.3550,-0.2620,0.9961,0.1711
9.3570,-0.2620,0.9961,0.1711
9.3590,-0.2620,0.9961,0.1711
9.3620,-0.2576,1.0467,0.1075
9.3630,-0.2576,1.0467,0.1075
9.3840,-0.2576,1.0467,0.1075
9.3850,-0.2576,1.0467,0.1075
9.3860,-0.2576,1.0467,0.1075
9.3870,-0.2507,1.0589,0.0772
9.3880,-0.2495,1.0030,0.1452
9.4130,-0.2495,1.0030,0.1452
9.4140,-0.2495,1.0030,0.1452
9.4150,-0.2495,1.0030,0.1452
9.4160,-0.2539,0.9859,0.2014
9.4320,-0.2539,0.9859,0.2014
9.4330,-0.2539,0.9859,0.2014
9.4340,-0.2539,0.9859,0.2014
9.4350,-0.2539,0.9859,0.2014
9.4370,-0.2989,1.0318,0.1652
9.4380,-0.2989,1.0318,0.1652
9.4400,-0.2989,1.0318,0.1652
9.4640,-0.2989,1.0318,0.1652
9.4650,-0.2989,1.0318,0.1652
9.4660,-0.2989,1.0318,0.1652
9.4670,-0.2894,1.0553,0.1058
9.4680,-0.2305,1.0467,0.0738
9.4940,-0.2305,1.0467,0.0738
9.4950,-0.2305,1.0467,0.0738
9.4960,-0.2305,1.0467,0.0738
9.5200,-0.1833,1.0448,0.1056
9.5210,-0.1833,1.0448,0.1056
9.5210,-0.1833,1.0448,0.1056
9.5220,-0.1833,1.0448,0.1056
9.5230,-0.1576,1.0289,0.1285
9.5240,-0.1576,1.0289,0.1285
9.5440,-0.1576,1.0289,0.1285
9.5450,-0.1576,1.0289,0.1285
9.5450,-0.1576,1.0289,0.1285
9.5460,-0.1684,1.0169,0.1122
9.5470,-0.1696,1.0242,0.1198
9.5730,-0.1696,1.0242,0.1198
9.5740,-0.1696,1.0242,0.1198
9.5750,-0.1696,1.0242,0.1198
9.5770,-0.1711,1.0472,0.1212
9.5940,-0.1711,1.0472,0.1212
9.5950,-0.1711,1.0472,0.1212
9.5960,-0.1711,1.0472,0.1212
9.5970,-0.1552,1.0345,0.1369
9.5980,-0.1552,1.0345,0.1369
9.6250,-0.1552,1.0345,0.1369
9.6260,-0.1552,1.0345,0.1369
9.6280,-0.1552,1.0345,0.1369
9.6310,-0.1662,1.0289,0.1337
9.6330,-0.2087,1.0423,0.1298
9.6340,-0.2087,1.0423,0.1298
9.6350,-0.2087,1.0423,0.1298
9.6560,-0.2087,1.0423,0.1298
9.6570,-0.2087,1.0423,0.1298
9.6600,-0.2087,1.0423,0.1298
9.6610,-0.2136,1.0387,0.1090
9.6730,-0.2136,1.0387,0.1090
9.6740,-0.2136,1.0387,0.1090
9.6750,-0.2136,1.0387,0.1090
9.6760,-0.1984,1.0391,0.0970
9.6770,-0.1984,1.0391,0.0970
9.7040,-0.1984,1.0391,0.0970
9.7050,-0.1984,1.0391,0.0970
9.7080,-0.1984,1.0391,0.0970
9.7090,-0.1848,1.0428,0.1249
9.7100,-0.1877,1.0394,0.1136
9.7330,-0.1877,1.0394,0.1136
9.7340,-0.1877,1.0394,0.1136
9.7340,-0.1877,1.0394,0.1136
9.7350,-0.1987,1.0274,0.1132
9.7580,-0.1987,1.0274,0.1132
9.7600,-0.1987,1.0274,0.1132
9.7610,-0.1987,1.0274,0.1132
9.7620,-0.2119,1.0311,0.1381
9.7630,-0.2119,1.0311,0.1381
9.7850,-0.2119,1.0311,0.1381
9.7860,-0.2119,1.0311,0.1381
9.7870,-0.2119,1.0311,0.1381
9.7870,-0.2124,1.0391,0.1315
9.7880,-0.2099,1.0220,0.1281
9.8130,-0.2099,1.0220,0.1281
9.8140,-0.2099,1.0220,0.1281
9.8150,-0.2099,1.0220,0.1281
9.8160,-0.2175,1.0172,0.1376
9.8300,-0.2175,1.0172,0.1376
9.8390,-0.2175,1.0172,0.1376
9.8400,-0.2175,1.0172,0.1376
9.8410,-0.2175,1.0172,0.1376
9.8410,-0.2229,1.0272,0.1171
9.8420,-0.2229,1.0272,0.1171
9.8460,-0.2229,1.0272,0.1171
9.8640,-0.2229,1.0272,0.1171
9.8650,-0.2229,1.0272,0.1171
9.8670,-0.2229,1.0272,0.1171
9.8680,-0.2339,1.0345,0.1014
9.8690,-0.2339,1.0230,0.1105
9.8930,-0.2339,1.0230,0.1105
9.8930,-0.2339,1.0230,0.1105
9.8940,-0.2339,1.0230,0.1105
9.8950,-0.2229,1.0198,0.1310
9.9150,-0.2229,1.0198,0.1310
9.9160,-0.2229,1.0198,0.1310
9.9170,-0.2229,1.0198,0.1310
9.9220,-0.2263,1.0347,0.1364
9.9250,-0.2263,1.0347,0.1364
9.9450,-0.2263,1.0347,0.1364
9.9460,-0.2263,1.0347,0.1364
9.9470,-0.2263,1.0347,0.1364
9.9480,-0.2388,1.0389,0.1356
9.9500,-0.2375,1.0286,0.1224
9.9730,-0.2375,1.0286,0.1224
9.9740,-0.2375,1.0286,0.1224
9.9750,-0.2375,1.0286,0.1224
9.9760,-0.2261,1.0186,0.1171
9.9940,-0.2261,1.0186,0.1171
9.9950,-0.2261,1.0186,0.1171
9.9960,-0.2261,1.0186,0.1171
9.9970,-0.2236,1.0240,0.1171
9.9980,-0.2236,1.0240,0.1171
10.0260,-0.2236,1.0240,0.1171
10.0280,-0.2236,1.0240,0.1171
10.0300,-0.2236,1.0240,0.1171
10.0310,-0.2197,1.0277,0.1080
10.0320,-0.2222,1.0152,0.1283
10.0330,-0.2222,1.0152,0.1283
10.0540,-0.2222,1.0152,0.1283
10.0540,-0.2222,1.0152,0.1283
10.0550,-0.2222,1.0152,0.1283
10.0560,-0.2104,1.0123,0.1437
10.0720,-0.2104,1.0123,0.1437
10.0730,-0.2104,1.0123,0.1437
10.0740,-0.2104,1.0123,0.1437
10.0740,-0.2033,1.0235,0.1373
10.0750,-0.2033,1.0235,0.1373
10.1020,-0.2033,1.0235,0.1373
10.1030,-0.2033,1.0235,0.1373
10.1040,-0.2033,1.0235,0.1373
10.1040,-0.2036,1.0389,0.1139
10.1040,-0.2195,1.0316,0.1012
10.1330,-0.2195,1.0316,0.1012
10.1340,-0.2195,1.0316,0.1012
10.1350,-0.2195,1.0316,0.1012
10.1360,-0.2449,1.0274,0.1234
10.1540,-0.2449,1.0274,0.1234
10.1550,-0.2449,1.0274,0.1234
10.1560,-0.2449,1.0274,0.1234
10.1570,-0.2551,1.0372,0.1354
10.1580,-0.2551,1.0372,0.1354
10.1830,-0.2551,1.0372,0.1354
10.1850,-0.2551,1.0372,0.1354
10.1850,-0.2551,1.0372,0.1354
10.1870,-0.2434,1.0487,0.1097
10.1880,-0.2275,1.0325,0.1239
10.2140,-0.2275,1.0325,0.1239
10.2150,-0.2275,1.0325,0.1239
10.2160,-0.2275,1.0325,0.1239
10.2170,-0.2192,1.0196,0.1503
10.2300,-0.2192,1.0196,0.1503
10.2420,-0.2192,1.0196,0.1503
10.2460,-0.2192,1.0196,0.1503
10.2470,-0.2192,1.0196,0.1503
10.2480,-0.2053,1.0330,0.1298
10.2490,-0.2053,1.0330,0.1298
10.2520,-0.2053,1.0330,0.1298
10.2680,-0.2053,1.0330,0.1298
10.2700,-0.2053,1.0330,0.1298
10.2700,-0.2053,1.0330,0.1298
10.2710,-0.1987,1.0330,0.1163
10.2710,-0.2021,1.0279,0.1173
10.2940,-0.2021,1.0279,0.1173
10.2940,-0.2021,1.0279,0.1173
10.2950,-0.2021,1.0279,0.1173
10.2950,-0.2214,1.0284,0.1347
10.3140,-0.2214,1.0284,0.1347
10.3150,-0.2214,1.0284,0.1347
10.3160,-0.2214,1.0284,0.1347
10.3160,-0.2263,1.0360,0.1349
10.3170,-0.2263,1.0360,0.1349
10.3450,-0.2263,1.0360,0.1349
10.3460,-0.2263,1.0360,0.1349
10.3470,-0.2263,1.0360,0.1349
10.3470,-0.2214,1.0369,0.1254
10.3480,-0.2131,1.0284,0.1249
10.3740,-0.2131,1.0284,0.1249
10.3740,-0.2131,1.0284,0.1249
10.3750,-0.2131,1.0284,0.1249
10.3750,-0.2138,1.0206,0.1310
10.3950,-0.2138,1.0206,0.1310
10.3970,-0.2138,1.0206,0.1310
10.3970,-0.2138,1.0206,0.1310
10.3980,-0.2151,1.0277,0.1241
10.4000,-0.2151,1.0277,0.1241
10.4250,-0.2151,1.0277,0.1241
10.4260,-0.2151,1.0277,0.1241
10.4270,-0.2151,1.0277,0.1241
10.4280,-0.2153,1.0318,0.1220
10.4290,-0.2256,1.0343,0.1432
10.4300,-0.2256,1.0343,0.1432
10.4370,-0.2256,1.0343,0.1432
10.4570,-0.2256,1.0343,0.1432
10.4580,-0.2256,1.0343,0.1432
10.4590,-0.2256,1.0343,0.1432
10.4600,-0.2317,1.0279,0.1408
10.4760,-0.2317,1.0279,0.1408
10.4770,-0.2317,1.0279,0.1408
10.4780,-0.2317,1.0279,0.1408
10.4790,-0.2195,1.0303,0.1310
10.4800,-0.2195,1.0303,0.1310
10.5060,-0.2195,1.0303,0.1310
10.5070,-0.2195,1.0303,0.1310
10.5080,-0.2195,1.0303,0.1310
10.5100,-0.2060,1.0413,0.1156
10.5100,-0.2097,1.0350,0.1151
10.5340,-0.2097,1.0350,0.1151
10.5360,-0.2097,1.0350,0.1151
10.5370,-0.2097,1.0350,0.1151
10.5380,-0.2116,1.0279,0.1422
10.5560,-0.2116,1.0279,0.1422
10.5580,-0.2116,1.0279,0.1422
10.5590,-0.2116,1.0279,0.1422
10.5600,-0.1994,1.0360,0.1300
10.5630,-0.1994,1.0360,0.1300
10.5860,-0.1994,1.0360,0.1300
10.5870,-0.1994,1.0360,0.1300
10.5890,-0.1994,1.0360,0.1300
10.6120,-0.2002,1.0279,0.1144
10.6120,-0.2192,1.0181,0.1381
10.6130,-0.2192,1.0181,0.1381
10.6140,-0.2192,1.0181,0.1381
10.6140,-0.2192,1.0181,0.1381
10.6150,-0.2197,1.0416,0.1078
10.6290,-0.2197,1.0416,0.1078
10.6350,-0.2197,1.0416,0.1078
10.6360,-0.2197,1.0416,0.1078
10.6370,-0.2197,1.0416,0.1078
10.6370,-0.2226,1.0399,0.0887
10.6380,-0.2226,1.0399,0.0887
10.6380,-0.2226,1.0399,0.0887
10.6670,-0.2226,1.0399,0.0887
10.6670,-0.2226,1.0399,0.0887
10.6690,-0.2226,1.0399,0.0887
10.6700,-0.2363,1.0154,0.1452
10.6710,-0.2363,1.0157,0.1552
10.6950,-0.2363,1.0157,0.1552
10.6960,-0.2363,1.0157,0.1552
10.6970,-0.2363,1.0157,0.1552
10.6980,-0.2229,1.0374,0.1112
10.7150,-0.2229,1.0374,0.1112
10.7190,-0.2229,1.0374,0.1112
10.7200,-0.2229,1.0374,0.1112
10.7230,-0.2063,1.0433,0.1122
10.7240,-0.2063,1.0433,0.1122
10.7460,-0.2063,1.0433,0.1122
10.7470,-0.2063,1.0433,0.1122
10.7480,-0.2063,1.0433,0.1122
10.7500,-0.1989,1.0237,0.1237
10.7500,-0.2043,1.0257,0.1342
10.7740,-0.2043,1.0257,0.1342
10.7760,-0.2043,1.0257,0.1342
10.7780,-0.2043,1.0257,0.1342
10.7790,-0.2175,1.0338,0.1327
10.7960,-0.2175,1.0338,0.1327
10.7970,-0.2175,1.0338,0.1327
10.7980,-0.2175,1.0338,0.1327
10.7990,-0.2170,1.0377,0.1220
10.8000,-0.2170,1.0377,0.1220
10.8250,-0.2170,1.0377,0.1220
10.8270,-0.2170,1.0377,0.1220
10.8280,-0.2170,1.0377,0.1220
10.8300,-0.2143,1.0404,0.1276
10.8310,-0.2275,1.0215,0.1442
10.8330,-0.2275,1.0215,0.1442
10.8350,-0.2275,1.0215,0.1442
10.8550,-0.2275,1.0215,0.1442
10.8560,-0.2275,1.0215,0.1442
10.8570,-0.2275,1.0215,0.1442
10.8580,-0.2346,1.0218,0.1479
10.8750,-0.2346,1.0218,0.1479
10.8760,-0.2346,1.0218,0.1479
10.8780,-0.2346,1.0218,0.1479
10.8800,-0.2165,1.0382,0.1178
10.8810,-0.2165,1.0382,0.1178
10.9070,-0.2165,1.0382,0.1178
10.9080,-0.2165,1.0382,0.1178
10.9090,-0.2165,1.0382,0.1178
10.9100,-0.2024,1.0308,0.1129
10.9100,-0.2087,1.0184,0.1483
10.9350,-0.2087,1.0184,0.1483
10.9360,-0.2087,1.0184,0.1483
10.9370,-0.2087,1.0184,0.1483
10.9370,-0.2180,1.0313,0.1427
10.9540,-0.2180,1.0313,0.1427
10.9550,-0.2180,1.0313,0.1427
10.9550,-0.2180,1.0313,0.1427
10.9560,-0.2243,1.0421,0.1271
10.9570,-0.2243,1.0421,0.1271
10.9860,-0.2243,1.0421,0.1271
10.9860,-0.2243,1.0421,0.1271
10.9870,-0.2243,1.0421,0.1271
10.9870,-0.2185,1.0245,0.1283
10.9870,-0.2114,1.0235,0.1263
11.0150,-0.2114,1.0235,0.1263
11.0150,-0.2114,1.0235,0.1263
11.0160,-0.2114,1.0235,0.1263
11.0170,-0.2314,1.0360,0.1200
11.0290,-0.2314,1.0360,0.1200
11.0370,-0.2314,1.0360,0.1200
11.0370,-0.2314,1.0360,0.1200
11.0380,-0.2314,1.0360,0.1200
11.0390,-0.2239,1.0296,0.1151
11.0390,-0.2239,1.0296,0.1151
11.0690,-0.2239,1.0296,0.1151
11.0700,-0.2239,1.0296,0.1151
11.0720,-0.2239,1.0296,0.1151
11.0730,-0.2119,1.0267,0.1163
11.0740,-0.2080,1.0240,0.1342
11.0950,-0.2080,1.0240,0.1342
11.0960,-0.2080,1.0240,0.1342
11.0970,-0.2080,1.0240,0.1342
11.0980,-0.2033,1.0176,0.1425
11.1170,-0.2033,1.0176,0.1425
11.1180,-0.2033,1.0176,0.1425
11.1200,-0.2033,1.0176,0.1425
11.1210,-0.2104,1.0281,0.1261
11.1240,-0.2104,1.0281,0.1261
11.1470,-0.2104,1.0281,0.1261
11.1490,-0.2104,1.0281,0.1261
11.1490,-0.2104,1.0281,0.1261
11.1500,-0.2107,1.0396,0.1112
11.1500,-0.2246,1.0299,0.1329
11.1740,-0.2246,1.0299,0.1329
11.1740,-0.2246,1.0299,0.1329
11.1750,-0.2246,1.0299,0.1329
11.1750,-0.2329,1.0321,0.1471
11.1940,-0.2329,1.0321,0.1471
11.1950,-0.2329,1.0321,0.1471
11.1950,-0.2329,1.0321,0.1471
11.1950,-0.2163,1.0406,0.1188
11.1960,-0.2163,1.0406,0.1188
11.2250,-0.2163,1.0406,0.1188
11.2260,-0.2163,1.0406,0.1188
11.2260,-0.2163,1.0406,0.1188
11.2260,-0.1928,1.0352,0.1149
11.2270,-0.1848,1.0286,0.1241
11.2280,-0.1848,1.0286,0.1241
11.2560,-0.1848,1.0286,0.1241
11.2570,-0.1848,1.0286,0.1241
11.2580,-0.1848,1.0286,0.1241
11.2590,-0.1816,1.0272,0.1048
11.2760,-0.1816,1.0272,0.1048
11.2770,-0.1816,1.0272,0.1048
11.2780,-0.1816,1.0272,0.1048
11.2780,-0.1892,1.0321,0.1234
11.2790,-0.1892,1.0321,0.1234
11.3040,-0.1892,1.0321,0.1234
11.3050,-0.1892,1.0321,0.1234
11.3070,-0.1892,1.0321,0.1234
11.3070,-0.2053,1.0269,0.1496
11.3080,-0.2280,1.0374,0.1361
11.3360,-0.2280,1.0374,0.1361
11.3370,-0.2280,1.0374,0.1361
11.3380,-0.2280,1.0374,0.1361
11.3390,-0.2415,1.0379,0.1378
11.3570,-0.2415,1.0379,0.1378
11.3580,-0.2415,1.0379,0.1378
11.3580,-0.2415,1.0379,0.1378
11.3590,-0.2329,1.0189,0.1410
11.3600,-0.2329,1.0189,0.1410
11.3890,-0.2329,1.0189,0.1410
11.3900,-0.2329,1.0189,0.1410
11.3910,-0.2329,1.0189,0.1410
11.3910,-0.2229,1.0235,0.1432
11.3920,-0.2195,1.0367,0.1134
11.4170,-0.2195,1.0367,0.1134
11.4180,-0.2195,1.0367,0.1134
11.4190,-0.2195,1.0367,0.1134
11.4200,-0.2109,1.0445,0.1092
11.4300,-0.2109,1.0445,0.1092
11.4380,-0.2109,1.0445,0.1092
11.4390,-0.2109,1.0445,0.1092
11.4400,-0.2109,1.0445,0.1092
11.4410,-0.2129,1.0286,0.1334
11.4410,-0.2129,1.0286,0.1334
11.4670,-0.2129,1.0286,0.1334
11.4680,-0.2129,1.0286,0.1334
11.4690,-0.2129,1.0286,0.1334
11.4700,-0.2068,1.0225,0.1535
11.4710,-0.2006,1.0279,0.1405
11.4970,-0.2006,1.0279,0.1405
11.4980,-0.2006,1.0279,0.1405
11.5000,-0.2006,1.0279,0.1405
11.5010,-0.2063,1.0318,0.1156
11.5170,-0.2063,1.0318,0.1156
11.5180,-0.2063,1.0318,0.1156
11.5190,-0.2063,1.0318,0.1156
11.5190,-0.2173,1.0365,0.1171
11.5200,-0.2173,1.0365,0.1171
11.5480,-0.2173,1.0365,0.1171
11.5490,-0.2173,1.0365,0.1171
11.5500,-0.2173,1.0365,0.1171
11.5510,-0.2317,1.0291,0.1327
11.5520,-0.2341,1.0196,0.1476
11.5770,-0.2341,1.0196,0.1476
11.5780,-0.2341,1.0196,0.1476
11.5790,-0.2341,1.0196,0.1476
11.5800,-0.2165,1.0257,0.1295
11.6000,-0.2165,1.0257,0.1295
11.6030,-0.2165,1.0257,0.1295
11.6040,-0.2165,1.0257,0.1295
11.6060,-0.2031,1.0362,0.1105
11.6070,-0.2031,1.0362,0.1105
11.6280,-0.2031,1.0362,0.1105
11.6290,-0.2031,1.0362,0.1105
11.6300,-0.2031,1.0362,0.1105
11.6310,-0.2077,1.0294,0.1229
11.6330,-0.2143,1.0203,0.1305
11.6340,-0.2143,1.0203,0.1305
11.6560,-0.2143,1.0203,0.1305
11.6570,-0.2143,1.0203,0.1305
11.6580,-0.2143,1.0203,0.1305
11.6590,-0.2129,1.0284,0.1053
11.6780,-0.2129,1.0284,0.1053
11.6780,-0.2129,1.0284,0.1053
11.6790,-0.2129,1.0284,0.1053
11.6800,-0.2427,1.0391,0.1058
11.7000,-0.2427,1.0391,0.1058
11.7050,-0.2427,1.0391,0.1058
11.7060,-0.2427,1.0391,0.1058
11.7060,-0.2427,1.0391,0.1058
11.7070,-0.2219,1.0570,0.0948
11.7070,-0.1767,1.0470,0.0968
11.7350,-0.1767,1.0470,0.0968
11.7350,-0.1767,1.0470,0.0968
11.7360,-0.1767,1.0470,0.0968
11.7360,-0.1945,0.9974,0.1611
11.7580,-0.1945,0.9974,0.1611
11.7590,-0.1945,0.9974,0.1611
11.7600,-0.1945,0.9974,0.1611
11.7610,-0.2085,1.0030,0.1684
11.7620,-0.2085,1.0030,0.1684
11.7860,-0.2085,1.0030,0.1684
11.7870,-0.2085,1.0030,0.1684
11.7880,-0.2085,1.0030,0.1684
11.7890,-0.2175,1.0611,0.0938
11.7890,-0.2197,1.0685,0.0616
11.8170,-0.2197,1.0685,0.0616
11.8180,-0.2197,1.0685,0.0616
11.8190,-0.2197,1.0685,0.0616
11.8200,-0.2207,0.9915,0.1679
11.8310,-0.2207,0.9915,0.1679
11.8390,-0.2207,0.9915,0.1679
11.8400,-0.2207,0.9915,0.1679
11.8410,-0.2207,0.9915,0.1679
11.8420,-0.2515,0.9883,0.2380
11.8430,-0.2515,0.9883,0.2380
11.8680,-0.2515,0.9883,0.2380
11.8690,-0.2515,0.9883,0.2380
11.8700,-0.2515,0.9883,0.2380
11.8720,-0.2283,1.0255,0.1608
11.8730,-0.2268,1.0460,0.0831
11.8980,-0.2268,1.0460,0.0831
11.9000,-0.2268,1.0460,0.0831
11.9010,-0.2268,1.0460,0.0831
11.9010,-0.2087,1.0325,0.1046
11.9170,-0.2087,1.0325,0.1046
11.9180,-0.2087,1.0325,0.1046
11.9190,-0.2087,1.0325,0.1046
11.9200,-0.1975,1.0296,0.1268
11.9210,-0.1975,1.0296,0.1268
11.9480,-0.1975,1.0296,0.1268
11.9500,-0.1975,1.0296,0.1268
11.9510,-0.1975,1.0296,0.1268
11.9520,-0.1984,1.0413,0.1078
11.9530,-0.2138,1.0313,0.1163
11.9780,-0.2138,1.0313,0.1163
11.9810,-0.2138,1.0313,0.1163
11.9820,-0.2138,1.0313,0.1163
11.9830,-0.2256,1.0054,0.1552
11.9980,-0.2256,1.0054,0.1552
11.9990,-0.2256,1.0054,0.1552
12.0000,-0.2256,1.0054,0.1552
12.0010,-0.2226,1.0132,0.1826
12.0020,-0.2226,1.0132,0.1826
12.0280,-0.2226,1.0132,0.1826
12.0330,-0.2226,1.0132,0.1826
12.0340,-0.2226,1.0132,0.1826
12.0350,-0.2202,1.0479,0.1488
12.0360,-0.2219,1.0445,0.1278
12.0370,-0.2219,1.0445,0.1278
12.0570,-0.2219,1.0445,0.1278
12.0570,-0.2219,1.0445,0.1278
12.0580,-0.2219,1.0445,0.1278
12.0600,-0.2222,1.0181,0.1586
12.0780,-0.2222,1.0181,0.1586
12.0800,-0.2222,1.0181,0.1586
12.0810,-0.2222,1.0181,0.1586
12.0850,-0.2060,1.0159,0.1508
12.0870,-0.2060,1.0159,0.1508
12.1070,-0.2060,1.0159,0.1508
12.1090,-0.2060,1.0159,0.1508
12.1100,-0.2060,1.0159,0.1508
12.1110,-0.2116,1.0391,0.1268
12.1120,-0.2092,1.0484,0.1002
12.1370,-0.2092,1.0484,0.1002
12.1380,-0.2092,1.0484,0.1002
12.1390,-0.2092,1.0484,0.1002
12.1400,-0.2060,1.0191,0.1317
12.1570,-0.2060,1.0191,0.1317
12.1580,-0.2060,1.0191,0.1317
12.1600,-0.2060,1.0191,0.1317
12.1600,-0.2195,1.0069,0.1777
12.1610,-0.2195,1.0069,0.1777
12.1870,-0.2195,1.0069,0.1777
12.1880,-0.2195,1.0069,0.1777
12.1900,-0.2195,1.0069,0.1777
12.1910,-0.2319,1.0355,0.1317
12.1920,-0.2373,1.0409,0.1114
12.2170,-0.2373,1.0409,0.1114
12.2180,-0.2373,1.0409,0.1114
12.2190,-0.2373,1.0409,0.1114
12.2200,-0.2363,1.0137,0.1444
12.2300,-0.2363,1.0137,0.1444
12.2360,-0.2363,1.0137,0.1444
12.2390,-0.2363,1.0137,0.1444
12.2400,-0.2363,1.0137,0.1444
12.2720,-0.2363,1.0137,0.1444
12.2720,-0.2261,1.0142,0.1545
12.2730,-0.2261,1.0142,0.1545
12.2740,-0.2261,1.0142,0.1545
12.2740,-0.2261,1.0142,0.1545
12.2740,-0.2261,1.0142,0.1545
12.2750,-0.2241,1.0350,0.1273
12.2750,-0.2287,1.0382,0.1141
12.2950,-0.2287,1.0382,0.1141
12.2960,-0.2287,1.0382,0.1141
12.2960,-0.2287,1.0382,0.1141
12.2970,-0.2212,1.0289,0.1163
12.3160,-0.2212,1.0289,0.1163
12.3170,-0.2212,1.0289,0.1163
12.3180,-0.2212,1.0289,0.1163
12.3190,-0.2168,1.0167,0.1356
12.3200,-0.2168,1.0167,0.1356
12.3460,-0.2168,1.0167,0.1356
12.3470,-0.2168,1.0167,0.1356
12.3480,-0.2168,1.0167,0.1356
12.3490,-0.2214,1.0150,0.1655
12.3500,-0.2297,1.0374,0.1383
12.3770,-0.2297,1.0374,0.1383
12.3780,-0.2297,1.0374,0.1383
12.3790,-0.2297,1.0374,0.1383
12.3800,-0.2265,1.0457,0.1119
12.3980,-0.2265,1.0457,0.1119
12.3990,-0.2265,1.0457,0.1119
12.4000,-0.2265,1.0457,0.1119
12.4010,-0.2119,1.0269,0.1444
12.4020,-0.2119,1.0269,0.1444
12.4270,-0.2119,1.0269,0.1444
12.4290,-0.2119,1.0269,0.1444
12.4300,-0.2119,1.0269,0.1444
12.4310,-0.2063,1.0128,0.1657
12.4320,-0.2063,1.0230,0.1241
12.4340,-0.2063,1.0230,0.1241
12.4350,-0.2063,1.0230,0.1241
12.4580,-0.2063,1.0230,0.1241
12.4590,-0.2063,1.0230,0.1241
12.4600,-0.2063,1.0230,0.1241
12.4620,-0.1997,1.0431,0.1085
12.4800,-0.1997,1.0431,0.1085
12.4810,-0.1997,1.0431,0.1085
12.4820,-0.1997,1.0431,0.1085
12.4830,-0.1926,1.0318,0.1300
12.4840,-0.1926,1.0318,0.1300
12.5100,-0.1926,1.0318,0.1300
12.5110,-0.1926,1.0318,0.1300
12.5160,-0.1926,1.0318,0.1300
12.5170,-0.1958,1.0125,0.1640
12.5180,-0.1955,1.0196,0.1513
12.5370,-0.1955,1.0196,0.1513
12.5380,-0.1955,1.0196,0.1513
12.5390,-0.1955,1.0196,0.1513
12.5400,-0.1918,1.0416,0.0951
12.5650,-0.1918,1.0416,0.0951
12.5660,-0.1918,1.0416,0.0951
12.5670,-0.1918,1.0416,0.0951
12.5680,-0.2170,1.0377,0.1110
12.5700,-0.2170,1.0377,0.1110
12.5880,-0.2170,1.0377,0.1110
12.5900,-0.2170,1.0377,0.1110
12.5910,-0.2170,1.0377,0.1110
12.5920,-0.2588,1.0110,0.1823
12.5930,-0.2549,1.0343,0.1655
12.6170,-0.2549,1.0343,0.1655
12.6180,-0.2549,1.0343,0.1655
12.6190,-0.2549,1.0343,0.1655
12.6200,-0.2292,1.0438,0.1141
12.6300,-0.2292,1.0438,0.1141
12.6400,-0.2292,1.0438,0.1141
12.6410,-0.2292,1.0438,0.1141
12.6420,-0.2292,1.0438,0.1141
12.6430,-0.2273,1.0132,0.1300
12.6440,-0.2273,1.0132,0.1300
12.6690,-0.2273,1.0132,0.1300
12.6700,-0.2273,1.0132,0.1300
12.6710,-0.2273,1.0132,0.1300
12.6710,-0.2302,1.0076,0.1476
12.6720,-0.2312,1.0272,0.1386
12.7000,-0.2312,1.0272,0.1386
12.7010,-0.2312,1.0272,0.1386
12.7040,-0.2312,1.0272,0.1386
12.7050,-0.2246,1.0306,0.1332
12.7180,-0.2246,1.0306,0.1332
12.7190,-0.2246,1.0306,0.1332
12.7200,-0.2246,1.0306,0.1332
12.7210,-0.2351,1.0247,0.1400
12.7220,-0.2351,1.0247,0.1400
12.7500,-0.2351,1.0247,0.1400
12.7500,-0.2351,1.0247,0.1400
12.7520,-0.2351,1.0247,0.1400
12.7530,-0.2439,1.0274,0.1369
12.7540,-0.2407,1.0311,0.1530
12.7790,-0.2407,1.0311,0.1530
12.7800,-0.2407,1.0311,0.1530
12.7810,-0.2407,1.0311,0.1530
12.7820,-0.2175,1.0313,0.1237
12.7990,-0.2175,1.0313,0.1237
12.8220,-0.2175,1.0313,0.1237
12.8230,-0.2175,1.0313,0.1237
12.8240,-0.2309,1.0215,0.1031
12.8250,-0.2309,1.0215,0.1031
12.8260,-0.2309,1.0215,0.1031
12.8270,-0.2309,1.0215,0.1031
12.8270,-0.2309,1.0215,0.1031
12.8300,-0.2603,1.0113,0.1501
12.8310,-0.2657,1.0284,0.1559
12.8320,-0.2657,1.0284,0.1559
12.8360,-0.2657,1.0284,0.1559
12.8570,-0.2657,1.0284,0.1559
12.8570,-0.2657,1.0284,0.1559
12.8580,-0.2657,1.0284,0.1559
12.8580,-0.2432,1.0286,0.1263
12.8790,-0.2432,1.0286,0.1263
12.8800,-0.2432,1.0286,0.1263
12.8810,-0.2432,1.0286,0.1263
12.8820,-0.2309,1.0137,0.1342
12.8830,-0.2309,1.0137,0.1342
12.9070,-0.2309,1.0137,0.1342
12.9080,-0.2309,1.0137,0.1342
12.9090,-0.2309,1.0137,0.1342
12.9100,-0.2334,1.0259,0.1307
12.9120,-0.2295,1.0306,0.1154
12.9370,-0.2295,1.0306,0.1154
12.9390,-0.2295,1.0306,0.1154
12.9400,-0.2295,1.0306,0.1154
12.9410,-0.2390,1.0206,0.1593
12.9610,-0.2390,1.0206,0.1593
12.9630,-0.2390,1.0206,0.1593
12.9640,-0.2390,1.0206,0.1593
12.9650,-0.2322,1.0228,0.1642
12.9660,-0.2322,1.0228,0.1642
12.9900,-0.2322,1.0228,0.1642
12.9910,-0.2322,1.0228,0.1642
12.9910,-0.2322,1.0228,0.1642
12.9920,-0.2102,1.0269,0.1268
12.9930,-0.2080,1.0230,0.1315
13.0170,-0.2080,1.0230,0.1315
13.0180,-0.2080,1.0230,0.1315
13.0190,-0.2080,1.0230,0.1315
13.0200,-0.2134,1.0237,0.1234
13.0310,-0.2134,1.0237,0.1234
13.0370,-0.2134,1.0237,0.1234
13.0380,-0.2134,1.0237,0.1234
13.0390,-0.2134,1.0237,0.1234
13.0400,-0.2134,1.0237,0.1234
13.0420,-0.2156,1.0269,0.1288
13.0430,-0.2156,1.0269,0.1288
13.0690,-0.2156,1.0269,0.1288
13.0700,-0.2156,1.0269,0.1288
13.0710,-0.2156,1.0269,0.1288
13.0720,-0.2102,1.0269,0.1591
13.0730,-0.2114,1.0233,0.1549
13.0990,-0.2114,1.0233,0.1549
13.1000,-0.2114,1.0233,0.1549
13.1010,-0.2114,1.0233,0.1549
13.1050,-0.2229,1.0164,0.1486
13.1210,-0.2229,1.0164,0.1486
13.1220,-0.2229,1.0164,0.1486
13.1240,-0.2229,1.0164,0.1486
13.1260,-0.2393,1.0201,0.1576
13.1290,-0.2393,1.0201,0.1576
13.1480,-0.2393,1.0201,0.1576
13.1480,-0.2393,1.0201,0.1576
13.1490,-0.2393,1.0201,0.1576
13.1500,-0.2459,1.0382,0.1332
13.1510,-0.2358,1.0435,0.1146
13.1780,-0.2358,1.0435,0.1146
13.1800,-0.2358,1.0435,0.1146
13.1810,-0.2358,1.0435,0.1146
13.1840,-0.2278,1.0211,0.1510
13.1990,-0.2278,1.0211,0.1510
13.2000,-0.2278,1.0211,0.1510
13.2010,-0.2278,1.0211,0.1510
13.2020,-0.2287,1.0081,0.1845
13.2030,-0.2287,1.0081,0.1845
13.2330,-0.2287,1.0081,0.1845
13.2350,-0.2287,1.0081,0.1845
13.2360,-0.2287,1.0081,0.1845
13.2370,-0.2297,1.0162,0.1584
13.2380,-0.2378,1.0294,0.1188
13.2390,-0.2378,1.0294,0.1188
13.2400,-0.2378,1.0294,0.1188
13.2590,-0.2378,1.0294,0.1188
13.2600,-0.2378,1.0294,0.1188
13.2610,-0.2378,1.0294,0.1188
13.2620,-0.2344,1.0413,0.1391
13.2800,-0.2344,1.0413,0.1391
13.2810,-0.2344,1.0413,0.1391
13.2820,-0.2344,1.0413,0.1391
13.2850,-0.2195,1.0259,0.1417
13.2860,-0.2195,1.0259,0.1417
13.3120,-0.2195,1.0259,0.1417
13.3130,-0.2195,1.0259,0.1417
13.3140,-0.2195,1.0259,0.1417
13.3150,-0.2258,1.0110,0.1711
13.3160,-0.2192,1.0159,0.1613
13.3400,-0.2192,1.0159,0.1613
13.3700,-0.2192,1.0159,0.1613
13.3700,-0.2192,1.0159,0.1613
13.3710,-0.2104,1.0301,0.1139
13.3720,-0.2104,1.0301,0.1139
13.3730,-0.2104,1.0301,0.1139
13.3740,-0.2104,1.0301,0.1139
13.3740,-0.2097,1.0301,0.1266
13.3750,-0.2097,1.0301,0.1266
13.3860,-0.2097,1.0301,0.1266
13.3870,-0.2097,1.0301,0.1266
13.3870,-0.2097,1.0301,0.1266
13.3880,-0.2339,1.0174,0.1640
13.3880,-0.2424,1.0262,0.1508
13.4180,-0.2424,1.0262,0.1508
13.4180,-0.2424,1.0262,0.1508
13.4190,-0.2424,1.0262,0.1508
13.4190,-0.2309,1.0404,0.1276
13.4290,-0.2309,1.0404,0.1276
13.4360,-0.2309,1.0404,0.1276
13.4380,-0.2309,1.0404,0.1276
13.4380,-0.2309,1.0404,0.1276
13.4390,-0.2309,1.0404,0.1276
13.4390,-0.2204,1.0313,0.1564
13.4400,-0.2204,1.0313,0.1564
13.4670,-0.2204,1.0313,0.1564
13.4680,-0.2204,1.0313,0.1564
13.4690,-0.2204,1.0313,0.1564
13.4700,-0.2197,1.0169,0.1664
13.4710,-0.2239,1.0225,0.1417
13.4970,-0.2239,1.0225,0.1417
13.4980,-0.2239,1.0225,0.1417
13.4990,-0.2239,1.0225,0.1417
13.5000,-0.2300,1.0225,0.1232
13.5200,-0.2300,1.0225,0.1232
13.5210,-0.2300,1.0225,0.1232
13.5220,-0.2300,1.0225,0.1232
13.5230,-0.2292,1.0308,0.1342
13.5240,-0.2292,1.0308,0.1342
13.5540,-0.2292,1.0308,0.1342
13.5550,-0.2292,1.0308,0.1342
13.5560,-0.2292,1.0308,0.1342
13.5570,-0.2097,1.0396,0.1254
13.5590,-0.2143,1.0071,0.1417
13.5800,-0.2143,1.0071,0.1417
13.5820,-0.2143,1.0071,0.1417
13.5830,-0.2143,1.0071,0.1417
13.5850,-0.2273,0.9956,0.1977
13.5990,-0.2273,0.9956,0.1977
13.6010,-0.2273,0.9956,0.1977
13.6020,-0.2273,0.9956,0.1977
13.6030,-0.2283,1.0299,0.1513
13.6030,-0.2283,1.0299,0.1513
13.6340,-0.2283,1.0299,0.1513
13.6350,-0.2283,1.0299,0.1513
13.6350,-0.2283,1.0299,0.1513
13.6360,-0.2200,1.0641,0.0811
13.6360,-0.2099,1.0372,0.0826
13.6370,-0.2099,1.0372,0.0826
13.6370,-0.2099,1.0372,0.0826
13.6580,-0.2099,1.0372,0.0826
13.6600,-0.2099,1.0372,0.0826
13.6610,-0.2099,1.0372,0.0826
13.6630,-0.2109,1.0020,0.1383
13.6780,-0.2109,1.0020,0.1383
13.6800,-0.2109,1.0020,0.1383
13.6800,-0.2109,1.0020,0.1383
13.6830,-0.2119,1.0208,0.1408
13.6830,-0.2119,1.0208,0.1408
13.7130,-0.2119,1.0208,0.1408
13.7140,-0.2119,1.0208,0.1408
13.7150,-0.2119,1.0208,0.1408
13.7160,-0.2126,1.0389,0.1227
13.7170,-0.2312,1.0448,0.1259
13.7400,-0.2312,1.0448,0.1259
13.7450,-0.2312,1.0448,0.1259
13.7480,-0.2312,1.0448,0.1259
13.7480,-0.2192,1.0328,0.1481
13.7610,-0.2192,1.0328,0.1481
13.7640,-0.2192,1.0328,0.1481
13.7650,-0.2192,1.0328,0.1481
13.7670,-0.2217,1.0174,0.1711
13.7670,-0.2217,1.0174,0.1711
13.7880,-0.2217,1.0174,0.1711
13.7890,-0.2217,1.0174,0.1711
13.7900,-0.2217,1.0174,0.1711
13.7910,-0.2295,1.0267,0.1518
13.7910,-0.2202,1.0318,0.1158
13.8200,-0.2202,1.0318,0.1158
13.8210,-0.2202,1.0318,0.1158
13.8230,-0.2202,1.0318,0.1158
13.8250,-0.2080,1.0240,0.1234
13.8310,-0.2080,1.0240,0.1234
13.8360,-0.2080,1.0240,0.1234
13.8400,-0.2080,1.0240,0.1234
13.8410,-0.2080,1.0240,0.1234
13.8420,-0.2080,1.0240,0.1234
13.8430,-0.1826,1.0460,0.1149
13.8430,-0.1826,1.0460,0.1149
13.8680,-0.1826,1.0460,0.1149
13.8700,-0.1826,1.0460,0.1149
13.8900,-0.1826,1.0460,0.1149
13.8900,-0.1838,1.0443,0.0870
13.8910,-0.2046,1.0269,0.1193
13.8980,-0.2046,1.0269,0.1193
13.8980,-0.2046,1.0269,0.1193
13.8990,-0.2046,1.0269,0.1193
13.9000,-0.1984,1.0230,0.1430
13.9200,-0.1984,1.0230,0.1430
13.9200,-0.1984,1.0230,0.1430
13.9210,-0.1984,1.0230,0.1430
13.9210,-0.1916,1.0340,0.1024
13.9220,-0.1916,1.0340,0.1024
13.9480,-0.1916,1.0340,0.1024
13.9500,-0.1916,1.0340,0.1024
13.9510,-0.1916,1.0340,0.1024
13.9520,-0.2058,1.0379,0.1097
13.9530,-0.2236,1.0264,0.1366
13.9780,-0.2236,1.0264,0.1366
13.9800,-0.2236,1.0264,0.1366
13.9800,-0.2236,1.0264,0.1366
13.9810,-0.2314,1.0230,0.1459
13.9990,-0.2314,1.0230,0.1459
14.0000,-0.2314,1.0230,0.1459
14.0010,-0.2314,1.0230,0.1459
14.0030,-0.2258,1.0313,0.1464
14.0030,-0.2258,1.0313,0.1464
14.0320,-0.2258,1.0313,0.1464
14.0340,-0.2258,1.0313,0.1464
14.0350,-0.2258,1.0313,0.1464
14.0360,-0.2383,1.0418,0.1112
14.0370,-0.2539,1.0470,0.1002
14.0380,-0.2539,1.0470,0.1002
14.0390,-0.2539,1.0470,0.1002
14.0640,-0.2539,1.0470,0.1002
14.0650,-0.2539,1.0470,0.1002
14.0700,-0.2539,1.0470,0.1002
14.0710,-0.2349,1.0291,0.1373
14.0790,-0.2349,1.0291,0.1373
14.0810,-0.2349,1.0291,0.1373
14.0810,-0.2349,1.0291,0.1373
14.0830,-0.2104,1.0047,0.1606
14.0840,-0.2104,1.0047,0.1606
14.1070,-0.2104,1.0047,0.1606
14.1070,-0.2104,1.0047,0.1606
14.1080,-0.2104,1.0047,0.1606
14.1110,-0.2041,0.9974,0.1498
14.1110,-0.2104,1.0233,0.1190
14.1370,-0.2104,1.0233,0.1190
14.1370,-0.2104,1.0233,0.1190
14.1380,-0.2104,1.0233,0.1190
14.1380,-0.2092,1.0413,0.0970
14.1580,-0.2092,1.0413,0.0970
14.1590,-0.2092,1.0413,0.0970
14.1590,-0.2092,1.0413,0.0970
14.1600,-0.2163,1.0259,0.1281
14.1600,-0.2163,1.0259,0.1281
14.1890,-0.2163,1.0259,0.1281
14.1900,-0.2163,1.0259,0.1281
14.1910,-0.2163,1.0259,0.1281
14.1930,-0.2368,1.0242,0.1735
14.1940,-0.2395,1.0191,0.1491
14.2200,-0.2395,1.0191,0.1491
14.2210,-0.2395,1.0191,0.1491
14.2220,-0.2395,1.0191,0.1491
14.2230,-0.2107,1.0311,0.1273
14.2300,-0.2107,1.0311,0.1273
14.2400,-0.2107,1.0311,0.1273
14.2410,-0.2107,1.0311,0.1273
14.2430,-0.2107,1.0311,0.1273
14.2440,-0.1987,1.0303,0.1105
14.2440,-0.1987,1.0303,0.1105
14.2690,-0.1987,1.0303,0.1105
14.2700,-0.1987,1.0303,0.1105
14.2710,-0.1987,1.0303,0.1105
14.2720,-0.2344,1.0196,0.1405
14.2740,-0.2429,1.0245,0.1625
14.2990,-0.2429,1.0245,0.1625
14.3000,-0.2429,1.0245,0.1625
14.3010,-0.2429,1.0245,0.1625
14.3060,-0.2175,1.0299,0.1244
14.3210,-0.2175,1.0299,0.1244
14.3250,-0.2175,1.0299,0.1244
14.3260,-0.2175,1.0299,0.1244
14.3270,-0.2043,1.0240,0.1141
14.3280,-0.2043,1.0240,0.1141
14.3490,-0.2043,1.0240,0.1141
14.3500,-0.2043,1.0240,0.1141
14.3510,-0.2043,1.0240,0.1141
14.3520,-0.2082,1.0240,0.1239
14.3530,-0.2180,1.0343,0.1092
14.3800,-0.2180,1.0343,0.1092
14.3810,-0.2180,1.0343,0.1092
14.3820,-0.2180,1.0343,0.1092
14.3830,-0.2378,1.0255,0.1303
14.4010,-0.2378,1.0255,0.1303
14.4020,-0.2378,1.0255,0.1303
14.4050,-0.2378,1.0255,0.1303
14.4120,-0.2368,1.0013,0.1606
14.4130,-0.2368,1.0013,0.1606
14.4300,-0.2368,1.0013,0.1606
14.4580,-0.2368,1.0013,0.1606
14.4600,-0.2368,1.0013,0.1606
14.4600,-0.2383,1.0035,0.1420
14.4610,-0.2283,1.0277,0.1215
14.4620,-0.2283,1.0277,0.1215
14.4630,-0.2283,1.0277,0.1215
14.4630,-0.2283,1.0277,0.1215
14.4640,-0.2283,1.0277,0.1215
14.4640,-0.2283,1.0277,0.1215
14.4650,-0.2339,1.0541,0.0914
14.4790,-0.2339,1.0541,0.0914
14.4800,-0.2339,1.0541,0.0914
14.4800,-0.2339,1.0541,0.0914
14.4810,-0.2610,1.0724,0.0623
14.4810,-0.2610,1.0724,0.0623
14.5080,-0.2610,1.0724,0.0623
14.5080,-0.2610,1.0724,0.0623
14.5090,-0.2610,1.0724,0.0623
14.5090,-0.2319,1.0257,0.1310
14.5100,-0.2148,0.9714,0.2329
14.5380,-0.2148,0.9714,0.2329
14.5400,-0.2148,0.9714,0.2329
14.5410,-0.2148,0.9714,0.2329
14.5420,-0.1980,0.9959,0.1747
14.5590,-0.1980,0.9959,0.1747
14.5600,-0.1980,0.9959,0.1747
14.5610,-0.1980,0.9959,0.1747
14.5620,-0.2070,1.0435,0.0894
14.5640,-0.2070,1.0435,0.0894
14.5910,-0.2070,1.0435,0.0894
14.5920,-0.2070,1.0435,0.0894
14.5930,-0.2070,1.0435,0.0894
14.5940,-0.2097,1.0558,0.0860
14.5950,-0.2050,1.0401,0.1322
14.6220,-0.2050,1.0401,0.1322
14.6250,-0.2050,1.0401,0.1322
14.6260,-0.2050,1.0401,0.1322
14.6290,-0.1997,1.0211,0.1515
14.6300,-0.1997,1.0211,0.1515
14.6360,-0.1997,1.0211,0.1515
14.6410,-0.1997,1.0211,0.1515
14.6420,-0.1997,1.0211,0.1515
14.6430,-0.1997,1.0211,0.1515
14.6450,-0.2124,1.0162,0.1657
14.6460,-0.2124,1.0162,0.1657
14.6710,-0.2124,1.0162,0.1657
14.6720,-0.2124,1.0162,0.1657
14.6730,-0.2124,1.0162,0.1657
14.6740,-0.2146,1.0274,0.1351
14.6750,-0.2158,1.0423,0.0978
14.6990,-0.2158,1.0423,0.0978
14.7000,-0.2158,1.0423,0.0978
14.7010,-0.2158,1.0423,0.0978
14.7020,-0.2202,1.0289,0.1325
14.7220,-0.2202,1.0289,0.1325
14.7230,-0.2202,1.0289,0.1325
14.7240,-0.2202,1.0289,0.1325
14.7250,-0.2185,1.0259,0.1469
14.7260,-0.2185,1.0259,0.1469
14.7500,-0.2185,1.0259,0.1469
14.7510,-0.2185,1.0259,0.1469
14.7520,-0.2185,1.0259,0.1469
14.7530,-0.2168,1.0301,0.1356
14.7550,-0.2175,1.0264,0.1457
14.7790,-0.2175,1.0264,0.1457
14.7800,-0.2175,1.0264,0.1457
14.7810,-0.2175,1.0264,0.1457
14.7820,-0.2170,1.0247,0.1415
14.8030,-0.2170,1.0247,0.1415
14.8040,-0.2170,1.0247,0.1415
14.8050,-0.2170,1.0247,0.1415
14.8070,-0.2378,1.0357,0.1207
14.8080,-0.2378,1.0357,0.1207
14.8310,-0.2378,1.0357,0.1207
14.8330,-0.2378,1.0357,0.1207
14.8340,-0.2378,1.0357,0.1207
14.8350,-0.2300,1.0289,0.1266
14.8360,-0.2112,1.0201,0.1442
14.8370,-0.2112,1.0201,0.1442
14.8580,-0.2112,1.0201,0.1442
14.8580,-0.2112,1.0201,0.1442
14.8590,-0.2112,1.0201,0.1442
14.8590,-0.2046,1.0203,0.1320
14.8790,-0.2046,1.0203,0.1320
14.8800,-0.2046,1.0203,0.1320
14.8800,-0.2046,1.0203,0.1320
14.8800,-0.2246,1.0277,0.1689
14.8810,-0.2246,1.0277,0.1689
14.9090,-0.2246,1.0277,0.1689
14.9090,-0.2246,1.0277,0.1689
14.9090,-0.2246,1.0277,0.1689
14.9100,-0.2136,1.0267,0.1410
14.9100,-0.2129,1.0372,0.1114
14.9390,-0.2129,1.0372,0.1114
14.9400,-0.2129,1.0372,0.1114
14.9400,-0.2129,1.0372,0.1114
14.9400,-0.2119,1.0303,0.1366
14.9620,-0.2119,1.0303,0.1366
14.9620,-0.2119,1.0303,0.1366
14.9620,-0.2119,1.0303,0.1366
14.9790,-0.2065,1.0259,0.1437
14.9810,-0.2065,1.0259,0.1437
14.9950,-0.2065,1.0259,0.1437
14.9950,-0.2065,1.0259,0.1437
14.9960,-0.2065,1.0259,0.1437
14.9960,-0.2156,1.0189,0.1449
14.9960,-0.2258,1.0306,0.1329
15.0200,-0.2258,1.0306,0.1329
15.0210,-0.2258,1.0306,0.1329
15.0210,-0.2258,1.0306,0.1329
15.0210,-0.2226,1.0445,0.0938
