
time,AccelerometerX,AccelerometerY,AccelerometerZ
0.0190,-0.1967,1.0084,0.1523
0.0190,-0.2055,1.0294,0.1124
0.0200,-0.2055,1.0294,0.1124
0.0200,-0.2055,1.0294,0.1124
0.0200,-0.2055,1.0294,0.1124
0.0200,-0.2055,1.0294,0.1124
0.0210,-0.2058,1.0306,0.1293
0.0210,-0.2090,1.0597,0.0833
0.0610,-0.2090,1.0597,0.0833
0.0610,-0.2090,1.0597,0.0833
0.0620,-0.2090,1.0597,0.0833
0.0620,-0.1862,1.0511,0.1110
0.0700,-0.1862,1.0511,0.1110
0.0720,-0.1862,1.0511,0.1110
0.0720,-0.1862,1.0511,0.1110
0.0730,-0.2004,1.0115,0.1725
0.0730,-0.2004,1.0115,0.1725
0.0900,-0.2004,1.0115,0.1725
0.1000,-0.2004,1.0115,0.1725
0.1010,-0.2004,1.0115,0.1725
0.1010,-0.2004,1.0115,0.1725
0.1010,-0.1989,1.0154,0.1738
0.1010,-0.1884,1.0443,0.1046
0.1300,-0.1884,1.0443,0.1046
0.1310,-0.1884,1.0443,0.1046
0.1310,-0.1884,1.0443,0.1046
0.1310,-0.1806,1.0467,0.1200
0.1510,-0.1806,1.0467,0.1200
0.1520,-0.1806,1.0467,0.1200
0.1520,-0.1806,1.0467,0.1200
0.1530,-0.1879,1.0350,0.1510
0.1530,-0.1879,1.0350,0.1510
0.1800,-0.1879,1.0350,0.1510
0.1810,-0.1879,1.0350,0.1510
0.1810,-0.1879,1.0350,0.1510
0.1810,-0.1936,1.0264,0.1320
0.1810,-0.1984,1.0277,0.1263
0.2100,-0.1984,1.0277,0.1263
0.2110,-0.1984,1.0277,0.1263
0.2110,-0.1984,1.0277,0.1263
0.2110,-0.1987,1.0374,0.1202
0.2310,-0.1987,1.0374,0.1202
0.2310,-0.1987,1.0374,0.1202
0.2320,-0.1987,1.0374,0.1202
0.2320,-0.2011,1.0409,0.1224
0.2330,-0.2011,1.0409,0.1224
0.2610,-0.2011,1.0409,0.1224
0.2610,-0.2011,1.0409,0.1224
0.2610,-0.2011,1.0409,0.1224
0.2620,-0.2002,1.0242,0.1420
0.2620,-0.2055,1.0206,0.1527
0.2910,-0.2055,1.0206,0.1527
0.2910,-0.2055,1.0206,0.1527
0.2920,-0.2055,1.0206,0.1527
0.2920,-0.2019,1.0321,0.1322
0.2940,-0.2019,1.0321,0.1322
0.2950,-0.2019,1.0321,0.1322
0.3110,-0.2019,1.0321,0.1322
0.3120,-0.2019,1.0321,0.1322
0.3120,-0.2019,1.0321,0.1322
0.3120,-0.1945,1.0504,0.1256
0.3130,-0.1945,1.0504,0.1256
0.3400,-0.1945,1.0504,0.1256
0.3410,-0.1945,1.0504,0.1256
0.3410,-0.1945,1.0504,0.1256
0.3420,-0.1914,1.0387,0.1320
0.3420,-0.1870,1.0247,0.1366
0.3700,-0.1870,1.0247,0.1366
0.3710,-0.1870,1.0247,0.1366
0.3710,-0.1870,1.0247,0.1366
0.3710,-0.1823,1.0333,0.1403
0.3920,-0.1823,1.0333,0.1403
0.3920,-0.1823,1.0333,0.1403
0.3920,-0.1823,1.0333,0.1403
0.3930,-0.1887,1.0438,0.1303
0.3930,-0.1887,1.0438,0.1303
0.4210,-0.1887,1.0438,0.1303
0.4210,-0.1887,1.0438,0.1303
0.4210,-0.1887,1.0438,0.1303
0.4220,-0.1958,1.0357,0.1259
0.4220,-0.2033,1.0306,0.1339
0.4510,-0.2033,1.0306,0.1339
0.4510,-0.2033,1.0306,0.1339
0.4510,-0.2033,1.0306,0.1339
0.4520,-0.2058,1.0308,0.1325
0.4720,-0.2058,1.0308,0.1325
0.4720,-0.2058,1.0308,0.1325
0.4720,-0.2058,1.0308,0.1325
0.4720,-0.2104,1.0286,0.1344
0.4810,-0.2104,1.0286,0.1344
0.4910,-0.2104,1.0286,0.1344
0.4930,-0.2104,1.0286,0.1344
0.5010,-0.2104,1.0286,0.1344
0.5020,-0.2104,1.0286,0.1344
0.5020,-0.2104,1.0286,0.1344
0.5020,-0.2082,1.0289,0.1349
0.5020,-0.2072,1.0284,0.1251
0.5300,-0.2072,1.0284,0.1251
0.5310,-0.2072,1.0284,0.1251
0.5310,-0.2072,1.0284,0.1251
0.5310,-0.2138,1.0338,0.1256
0.5510,-0.2138,1.0338,0.1256
0.5530,-0.2138,1.0338,0.1256
0.5530,-0.2138,1.0338,0.1256
0.5540,-0.2134,1.0357,0.1232
0.5540,-0.2134,1.0357,0.1232
0.5860,-0.2134,1.0357,0.1232
0.5870,-0.2134,1.0357,0.1232
0.5870,-0.2134,1.0357,0.1232
0.5870,-0.2055,1.0340,0.1298
0.5870,-0.2016,1.0301,0.1464
0.6110,-0.2016,1.0301,0.1464
0.6110,-0.2016,1.0301,0.1464
0.6110,-0.2016,1.0301,0.1464
0.6120,-0.2024,1.0247,0.1420
0.6320,-0.2024,1.0247,0.1420
0.6330,-0.2024,1.0247,0.1420
0.6330,-0.2024,1.0247,0.1420
0.6340,-0.2102,1.0245,0.1364
0.6340,-0.2102,1.0245,0.1364
0.6610,-0.2102,1.0245,0.1364
0.6610,-0.2102,1.0245,0.1364
0.6610,-0.2102,1.0245,0.1364
0.6620,-0.2092,1.0328,0.1356
0.6620,-0.2055,1.0340,0.1378
0.6910,-0.2055,1.0340,0.1378
0.6950,-0.2055,1.0340,0.1378
0.6950,-0.2055,1.0340,0.1378
0.6950,-0.2055,1.0340,0.1378
0.6960,-0.2058,1.0211,0.1476
0.6960,-0.2058,1.0211,0.1476
0.7120,-0.2058,1.0211,0.1476
0.7120,-0.2058,1.0211,0.1476
0.7130,-0.2058,1.0211,0.1476
0.7130,-0.2050,1.0281,0.1437
0.7140,-0.2050,1.0281,0.1437
0.7430,-0.2050,1.0281,0.1437
0.7440,-0.2050,1.0281,0.1437
0.7440,-0.2050,1.0281,0.1437
0.7440,-0.2060,1.0484,0.1283
0.7450,-0.2024,1.0374,0.1354
0.7700,-0.2024,1.0374,0.1354
0.7710,-0.2024,1.0374,0.1354
0.7710,-0.2024,1.0374,0.1354
0.7720,-0.1989,1.0233,0.1452
0.7930,-0.1989,1.0233,0.1452
0.7930,-0.1989,1.0233,0.1452
0.7930,-0.1989,1.0233,0.1452
0.7940,-0.1999,1.0264,0.1422
0.7940,-0.1999,1.0264,0.1422
0.8210,-0.1999,1.0264,0.1422
0.8210,-0.1999,1.0264,0.1422
0.8220,-0.1999,1.0264,0.1422
0.8220,-0.2041,1.0435,0.1337
0.8220,-0.2036,1.0357,0.1163
0.8510,-0.2036,1.0357,0.1163
0.8510,-0.2036,1.0357,0.1163
0.8510,-0.2036,1.0357,0.1163
0.8520,-0.2016,1.0218,0.1315
0.8720,-0.2016,1.0218,0.1315
0.8720,-0.2016,1.0218,0.1315
0.8720,-0.2016,1.0218,0.1315
0.8730,-0.2036,1.0267,0.1461
0.8730,-0.2036,1.0267,0.1461
0.8940,-0.2036,1.0267,0.1461
0.8950,-0.2036,1.0267,0.1461
0.9020,-0.2036,1.0267,0.1461
0.9020,-0.2036,1.0267,0.1461
0.9020,-0.2036,1.0267,0.1461
0.9030,-0.2011,1.0384,0.1237
0.9030,-0.1945,1.0313,0.1207
0.9310,-0.1945,1.0313,0.1207
0.9320,-0.1945,1.0313,0.1207
0.9320,-0.1945,1.0313,0.1207
0.9320,-0.1918,1.0228,0.1425
0.9520,-0.1918,1.0228,0.1425
0.9530,-0.1918,1.0228,0.1425
0.9530,-0.1918,1.0228,0.1425
0.9540,-0.1948,1.0299,0.1464
0.9540,-0.1948,1.0299,0.1464
0.9810,-0.1948,1.0299,0.1464
0.9820,-0.1948,1.0299,0.1464
0.9820,-0.1948,1.0299,0.1464
0.9820,-0.1992,1.0345,0.1303
0.9820,-0.2031,1.0465,0.1183
1.0120,-0.2031,1.0465,0.1183
1.0120,-0.2031,1.0465,0.1183
1.0120,-0.2031,1.0465,0.1183
1.0130,-0.1987,1.0340,0.1273
1.0320,-0.1987,1.0340,0.1273
1.0330,-0.1987,1.0340,0.1273
1.0330,-0.1987,1.0340,0.1273
1.0330,-0.1975,1.0206,0.1527
1.0330,-0.1975,1.0206,0.1527
1.0610,-0.1975,1.0206,0.1527
1.0610,-0.1975,1.0206,0.1527
1.0620,-0.1975,1.0206,0.1527
1.0620,-0.2024,1.0294,0.1471
1.0620,-0.2014,1.0472,0.1232
1.0920,-0.2014,1.0472,0.1232
1.0950,-0.2014,1.0472,0.1232
1.0960,-0.2014,1.0472,0.1232
1.0960,-0.2014,1.0472,0.1232
1.0960,-0.1918,1.0411,0.1322
1.0970,-0.1918,1.0411,0.1322
1.1130,-0.1918,1.0411,0.1322
1.1130,-0.1918,1.0411,0.1322
1.1130,-0.1918,1.0411,0.1322
1.1140,-0.1852,1.0198,0.1505
1.1140,-0.1852,1.0198,0.1505
1.1420,-0.1852,1.0198,0.1505
1.1420,-0.1852,1.0198,0.1505
1.1420,-0.1852,1.0198,0.1505
1.1430,-0.1972,1.0176,0.1466
1.1430,-0.2116,1.0347,0.1290
1.1720,-0.2116,1.0347,0.1290
1.1720,-0.2116,1.0347,0.1290
1.1720,-0.2116,1.0347,0.1290
1.1720,-0.2070,1.0404,0.1259
1.1930,-0.2070,1.0404,0.1259
1.1940,-0.2070,1.0404,0.1259
1.1940,-0.2070,1.0404,0.1259
1.1940,-0.2011,1.0223,0.1474
1.1940,-0.2011,1.0223,0.1474
1.2210,-0.2011,1.0223,0.1474
1.2210,-0.2011,1.0223,0.1474
1.2220,-0.2011,1.0223,0.1474
1.2220,-0.2038,1.0181,0.1447
1.2220,-0.2104,1.0343,0.1271
1.2510,-0.2104,1.0343,0.1271
1.2520,-0.2104,1.0343,0.1271
1.2520,-0.2104,1.0343,0.1271
1.2520,-0.2048,1.0355,0.1210
1.2730,-0.2048,1.0355,0.1210
1.2730,-0.2048,1.0355,0.1210
1.2740,-0.2048,1.0355,0.1210
1.2740,-0.1984,1.0269,0.1386
1.2740,-0.1984,1.0269,0.1386
1.2940,-0.1984,1.0269,0.1386
1.3020,-0.1984,1.0269,0.1386
1.3020,-0.1984,1.0269,0.1386
1.3020,-0.1984,1.0269,0.1386
1.3030,-0.1992,1.0343,0.1400
1.3030,-0.1955,1.0426,0.1217
1.3310,-0.1955,1.0426,0.1217
1.3320,-0.1955,1.0426,0.1217
1.3320,-0.1955,1.0426,0.1217
1.3320,-0.1909,1.0343,0.1259
1.3530,-0.1909,1.0343,0.1259
1.3540,-0.1909,1.0343,0.1259
1.3540,-0.1909,1.0343,0.1259
1.3540,-0.1972,1.0228,0.1483
1.3550,-0.1972,1.0228,0.1483
1.3820,-0.1972,1.0228,0.1483
1.3830,-0.1972,1.0228,0.1483
1.3840,-0.1972,1.0228,0.1483
1.3840,-0.2021,1.0313,0.1559
1.3840,-0.2048,1.0377,0.1232
1.4130,-0.2048,1.0377,0.1232
1.4130,-0.2048,1.0377,0.1232
1.4130,-0.2048,1.0377,0.1232
1.4140,-0.2116,1.0325,0.1188
1.4330,-0.2116,1.0325,0.1188
1.4330,-0.2116,1.0325,0.1188
1.4330,-0.2116,1.0325,0.1188
1.4340,-0.2153,1.0345,0.1449
1.4340,-0.2153,1.0345,0.1449
1.4630,-0.2153,1.0345,0.1449
1.4630,-0.2153,1.0345,0.1449
1.4640,-0.2153,1.0345,0.1449
1.4640,-0.2107,1.0303,0.1432
1.4640,-0.2097,1.0267,0.1452
1.4930,-0.2097,1.0267,0.1452
1.4960,-0.2097,1.0267,0.1452
1.4970,-0.2097,1.0267,0.1452
1.4970,-0.2097,1.0267,0.1452
1.4980,-0.2053,1.0313,0.1413
1.5150,-0.2053,1.0313,0.1413
1.5150,-0.2053,1.0313,0.1413
1.5160,-0.2053,1.0313,0.1413
1.5170,-0.1958,1.0338,0.1261
1.5180,-0.1958,1.0338,0.1261
1.5430,-0.1958,1.0338,0.1261
1.5440,-0.1958,1.0338,0.1261
1.5440,-0.1958,1.0338,0.1261
1.5450,-0.1921,1.0321,0.1415
1.5460,-0.1933,1.0347,0.1378
1.5740,-0.1933,1.0347,0.1378
1.5750,-0.1933,1.0347,0.1378
1.5890,-0.1933,1.0347,0.1378
1.5900,-0.1940,1.0286,0.1295
1.5940,-0.1940,1.0286,0.1295
1.5940,-0.1940,1.0286,0.1295
1.5950,-0.1940,1.0286,0.1295
1.5960,-0.1901,1.0284,0.1459
1.5970,-0.1901,1.0284,0.1459
1.6230,-0.1901,1.0284,0.1459
1.6230,-0.1901,1.0284,0.1459
1.6240,-0.1901,1.0284,0.1459
1.6250,-0.1965,1.0360,0.1459
1.6250,-0.2087,1.0421,0.1354
1.6520,-0.2087,1.0421,0.1354
1.6530,-0.2087,1.0421,0.1354
1.6540,-0.2087,1.0421,0.1354
1.6540,-0.2104,1.0379,0.1332
1.6750,-0.2104,1.0379,0.1332
1.6760,-0.2104,1.0379,0.1332
1.6760,-0.2104,1.0379,0.1332
1.6770,-0.2055,1.0267,0.1400
1.6780,-0.2055,1.0267,0.1400
1.6950,-0.2055,1.0267,0.1400
1.7050,-0.2055,1.0267,0.1400
1.7060,-0.2055,1.0267,0.1400
1.7070,-0.2055,1.0267,0.1400
1.7080,-0.1994,1.0215,0.1393
1.7090,-0.2014,1.0338,0.1298
1.7340,-0.2014,1.0338,0.1298
1.7360,-0.2014,1.0338,0.1298
1.7370,-0.2014,1.0338,0.1298
1.7380,-0.2043,1.0379,0.1403
1.7560,-0.2043,1.0379,0.1403
1.7570,-0.2043,1.0379,0.1403
1.7580,-0.2043,1.0379,0.1403
1.7590,-0.1921,1.0296,0.1540
1.7600,-0.1921,1.0296,0.1540
1.7850,-0.1921,1.0296,0.1540
1.7860,-0.1921,1.0296,0.1540
1.7870,-0.1921,1.0296,0.1540
1.7870,-0.1867,1.0218,0.1232
1.7880,-0.1945,1.0355,0.1127
1.8190,-0.1945,1.0355,0.1127
1.8220,-0.1945,1.0355,0.1127
1.8230,-0.1945,1.0355,0.1127
1.8240,-0.2019,1.0453,0.1285
1.8400,-0.2019,1.0453,0.1285
1.8410,-0.2019,1.0453,0.1285
1.8420,-0.2019,1.0453,0.1285
1.8430,-0.2092,1.0308,0.1520
1.8440,-0.2092,1.0308,0.1520
1.8650,-0.2092,1.0308,0.1520
1.8660,-0.2092,1.0308,0.1520
1.8670,-0.2092,1.0308,0.1520
1.8680,-0.1980,1.0247,0.1444
1.8690,-0.1852,1.0352,0.1193
1.8960,-0.1852,1.0352,0.1193
1.8980,-0.1852,1.0352,0.1193
1.8990,-0.1852,1.0352,0.1193
1.9000,-0.1852,1.0352,0.1193
1.9010,-0.1904,1.0389,0.1185
1.9190,-0.1904,1.0389,0.1185
1.9190,-0.1904,1.0389,0.1185
1.9200,-0.1904,1.0389,0.1185
1.9210,-0.2016,1.0281,0.1415
1.9220,-0.2016,1.0281,0.1415
1.9450,-0.2016,1.0281,0.1415
1.9470,-0.2016,1.0281,0.1415
1.9480,-0.2016,1.0281,0.1415
1.9500,-0.2011,1.0259,0.1503
1.9510,-0.1933,1.0389,0.1268
1.9760,-0.1933,1.0389,0.1268
1.9770,-0.1933,1.0389,0.1268
1.9780,-0.1933,1.0389,0.1268
1.9800,-0.1909,1.0428,0.1207
1.9980,-0.1909,1.0428,0.1207
2.0010,-0.1909,1.0428,0.1207
2.0010,-0.1909,1.0428,0.1207
2.0020,-0.1950,1.0242,0.1383
2.0030,-0.1950,1.0242,0.1383
2.0260,-0.1950,1.0242,0.1383
2.0270,-0.1950,1.0242,0.1383
2.0280,-0.1950,1.0242,0.1383
2.0290,-0.1972,1.0213,0.1579
2.0300,-0.1923,1.0367,0.1386
2.0560,-0.1923,1.0367,0.1386
2.0570,-0.1923,1.0367,0.1386
2.0580,-0.1923,1.0367,0.1386
2.0590,-0.1926,1.0482,0.1205
2.0770,-0.1926,1.0482,0.1205
2.0780,-0.1926,1.0482,0.1205
2.0800,-0.1926,1.0482,0.1205
2.0810,-0.2033,1.0377,0.1241
2.0820,-0.2033,1.0377,0.1241
2.0970,-0.2033,1.0377,0.1241
2.1050,-0.2033,1.0377,0.1241
2.1050,-0.2033,1.0377,0.1241
2.1060,-0.2033,1.0377,0.1241
2.1070,-0.2094,1.0333,0.1298
2.1080,-0.2173,1.0347,0.1444
2.1340,-0.2173,1.0347,0.1444
2.1550,-0.2173,1.0347,0.1444
2.1560,-0.2173,1.0347,0.1444
2.1570,-0.2080,1.0335,0.1415
2.1570,-0.2080,1.0335,0.1415
2.1580,-0.2080,1.0335,0.1415
2.1580,-0.2080,1.0335,0.1415
2.1590,-0.1967,1.0274,0.1322
2.1590,-0.1967,1.0274,0.1322
2.1840,-0.1967,1.0274,0.1322
2.1840,-0.1967,1.0274,0.1322
2.1840,-0.1967,1.0274,0.1322
2.1850,-0.1972,1.0281,0.1435
2.1850,-0.1989,1.0328,0.1351
2.2130,-0.1989,1.0328,0.1351
2.2130,-0.1989,1.0328,0.1351
2.2130,-0.1989,1.0328,0.1351
2.2140,-0.1950,1.0423,0.1220
2.2350,-0.1950,1.0423,0.1220
2.2360,-0.1950,1.0423,0.1220
2.2360,-0.1950,1.0423,0.1220
2.2370,-0.1936,1.0423,0.1263
2.2380,-0.1936,1.0423,0.1263
2.2630,-0.1936,1.0423,0.1263
2.2640,-0.1936,1.0423,0.1263
2.2650,-0.1936,1.0423,0.1263
2.2660,-0.1958,1.0306,0.1420
2.2660,-0.1938,1.0237,0.1461
2.2980,-0.1938,1.0237,0.1461
2.3000,-0.1938,1.0237,0.1461
2.3010,-0.1938,1.0237,0.1461
2.3020,-0.1938,1.0237,0.1461
2.3020,-0.1906,1.0372,0.1359
2.3170,-0.1906,1.0372,0.1359
2.3180,-0.1906,1.0372,0.1359
2.3200,-0.1906,1.0372,0.1359
2.3210,-0.1958,1.0411,0.1176
2.3220,-0.1958,1.0411,0.1176
2.3460,-0.1958,1.0411,0.1176
2.3470,-0.1958,1.0411,0.1176
2.3470,-0.1958,1.0411,0.1176
2.3480,-0.2075,1.0387,0.1391
2.3480,-0.2082,1.0301,0.1383
2.3740,-0.2082,1.0301,0.1383
2.3750,-0.2082,1.0301,0.1383
2.3800,-0.2082,1.0301,0.1383
2.3810,-0.2060,1.0308,0.1381
2.3970,-0.2060,1.0308,0.1381
2.3980,-0.2060,1.0308,0.1381
2.3980,-0.2060,1.0308,0.1381
2.3990,-0.2046,1.0355,0.1444
2.4000,-0.2046,1.0355,0.1444
2.4260,-0.2046,1.0355,0.1444
2.4270,-0.2046,1.0355,0.1444
2.4280,-0.2046,1.0355,0.1444
2.4290,-0.2004,1.0382,0.1307
2.4300,-0.1887,1.0352,0.1241
2.4580,-0.1887,1.0352,0.1241
2.4590,-0.1887,1.0352,0.1241
2.4600,-0.1887,1.0352,0.1241
2.4610,-0.1848,1.0374,0.1420
2.4760,-0.1848,1.0374,0.1420
2.4770,-0.1848,1.0374,0.1420
2.4770,-0.1848,1.0374,0.1420
2.4780,-0.1789,1.0328,0.1408
2.4790,-0.1789,1.0328,0.1408
2.4970,-0.1789,1.0328,0.1408
2.5090,-0.1789,1.0328,0.1408
2.5110,-0.1789,1.0328,0.1408
2.5120,-0.1789,1.0328,0.1408
2.5120,-0.1806,1.0247,0.1361
2.5130,-0.1938,1.0311,0.1298
2.5350,-0.1938,1.0311,0.1298
2.5370,-0.1938,1.0311,0.1298
2.5370,-0.1938,1.0311,0.1298
2.5380,-0.1955,1.0377,0.1276
2.5570,-0.1955,1.0377,0.1276
2.5580,-0.1955,1.0377,0.1276
2.5590,-0.1955,1.0377,0.1276
2.5600,-0.1904,1.0291,0.1351
2.5610,-0.1904,1.0291,0.1351
2.5850,-0.1904,1.0291,0.1351
2.5860,-0.1904,1.0291,0.1351
2.5860,-0.1904,1.0291,0.1351
2.5870,-0.1960,1.0274,0.1532
2.5880,-0.2033,1.0433,0.1364
2.6160,-0.2033,1.0433,0.1364
2.6170,-0.2033,1.0433,0.1364
2.6180,-0.2033,1.0433,0.1364
2.6180,-0.1982,1.0435,0.1300
2.6380,-0.1982,1.0435,0.1300
2.6400,-0.1982,1.0435,0.1300
2.6400,-0.1982,1.0435,0.1300
2.6410,-0.1972,1.0316,0.1356
2.6420,-0.1972,1.0316,0.1356
2.6660,-0.1972,1.0316,0.1356
2.6670,-0.1972,1.0316,0.1356
2.6670,-0.1972,1.0316,0.1356
2.6680,-0.1980,1.0255,0.1469
2.6680,-0.2041,1.0316,0.1422
2.6940,-0.2041,1.0316,0.1422
2.7150,-0.2041,1.0316,0.1422
2.7160,-0.2041,1.0316,0.1422
2.7170,-0.2041,1.0316,0.1422
2.7170,-0.2006,1.0394,0.1342
2.7180,-0.2006,1.0394,0.1342
2.7180,-0.2006,1.0394,0.1342
2.7190,-0.2006,1.0394,0.1342
2.7200,-0.1826,1.0352,0.1381
2.7200,-0.1826,1.0352,0.1381
2.7440,-0.1826,1.0352,0.1381
2.7450,-0.1826,1.0352,0.1381
2.7450,-0.1826,1.0352,0.1381
2.7460,-0.1777,1.0272,0.1322
2.7470,-0.1994,1.0325,0.1305
2.7750,-0.1994,1.0325,0.1305
2.7770,-0.1994,1.0325,0.1305
2.7780,-0.1994,1.0325,0.1305
2.7780,-0.2217,1.0350,0.1317
2.7970,-0.2217,1.0350,0.1317
2.7980,-0.2217,1.0350,0.1317
2.7980,-0.2217,1.0350,0.1317
2.7990,-0.2295,1.0242,0.1532
2.7990,-0.2295,1.0242,0.1532
2.8250,-0.2295,1.0242,0.1532
2.8270,-0.2295,1.0242,0.1532
2.8280,-0.2295,1.0242,0.1532
2.8300,-0.2131,1.0294,0.1552
2.8310,-0.1958,1.0465,0.1210
2.8610,-0.1958,1.0465,0.1210
2.8620,-0.1958,1.0465,0.1210
2.8630,-0.1958,1.0465,0.1210
2.8640,-0.1967,1.0438,0.1095
2.8770,-0.1967,1.0438,0.1095
2.8780,-0.1967,1.0438,0.1095
2.8790,-0.1967,1.0438,0.1095
2.8800,-0.2033,1.0184,0.1454
2.8810,-0.2033,1.0184,0.1454
2.8940,-0.2033,1.0184,0.1454
2.9060,-0.2033,1.0184,0.1454
2.9080,-0.2033,1.0184,0.1454
2.9090,-0.2033,1.0184,0.1454
2.9100,-0.1872,1.0181,0.1571
2.9110,-0.1784,1.0467,0.1161
2.9370,-0.1784,1.0467,0.1161
2.9380,-0.1784,1.0467,0.1161
2.9390,-0.1784,1.0467,0.1161
2.9400,-0.1933,1.0475,0.1083
2.9570,-0.1933,1.0475,0.1083
2.9570,-0.1933,1.0475,0.1083
2.9580,-0.1933,1.0475,0.1083
2.9590,-0.2058,1.0118,0.1559
2.9600,-0.2058,1.0118,0.1559
2.9860,-0.2058,1.0118,0.1559
2.9870,-0.2058,1.0118,0.1559
2.9880,-0.2058,1.0118,0.1559
2.9880,-0.2143,1.0152,0.1667
2.9890,-0.2168,1.0509,0.1212
3.0170,-0.2168,1.0509,0.1212
3.0180,-0.2168,1.0509,0.1212
3.0190,-0.2168,1.0509,0.1212
3.0200,-0.2136,1.0418,0.1136
3.0410,-0.2136,1.0418,0.1136
3.0430,-0.2136,1.0418,0.1136
3.0440,-0.2136,1.0418,0.1136
3.0440,-0.2090,1.0184,0.1525
3.0450,-0.2090,1.0184,0.1525
3.0670,-0.2090,1.0184,0.1525
3.0680,-0.2090,1.0184,0.1525
3.0690,-0.2090,1.0184,0.1525
3.0690,-0.1994,1.0172,0.1603
3.0700,-0.1933,1.0365,0.1386
3.1020,-0.1933,1.0365,0.1386
3.1030,-0.1933,1.0365,0.1386
3.1040,-0.1933,1.0365,0.1386
3.1040,-0.1933,1.0365,0.1386
3.1050,-0.1933,1.0365,0.1386
3.1050,-0.1992,1.0409,0.1229
3.1210,-0.1992,1.0409,0.1229
3.1220,-0.1992,1.0409,0.1229
3.1220,-0.1992,1.0409,0.1229
3.1230,-0.2028,1.0360,0.1422
3.1240,-0.2028,1.0360,0.1422
3.1470,-0.2028,1.0360,0.1422
3.1480,-0.2028,1.0360,0.1422
3.1490,-0.2028,1.0360,0.1422
3.1500,-0.2063,1.0296,0.1491
3.1510,-0.2031,1.0357,0.1430
3.1780,-0.2031,1.0357,0.1430
3.1800,-0.2031,1.0357,0.1430
3.1810,-0.2031,1.0357,0.1430
3.1820,-0.1965,1.0377,0.1366
3.1970,-0.1965,1.0377,0.1366
3.2020,-0.1965,1.0377,0.1366
3.2030,-0.1965,1.0377,0.1366
3.2040,-0.1943,1.0289,0.1254
3.2040,-0.1943,1.0289,0.1254
3.2250,-0.1943,1.0289,0.1254
3.2260,-0.1943,1.0289,0.1254
3.2270,-0.1943,1.0289,0.1254
3.2270,-0.2080,1.0235,0.1457
3.2450,-0.2163,1.0323,0.1457
3.2570,-0.2163,1.0323,0.1457
3.2580,-0.2163,1.0323,0.1457
3.2590,-0.2163,1.0323,0.1457
3.2590,-0.2102,1.0399,0.1303
3.2760,-0.2102,1.0399,0.1303
3.2760,-0.2102,1.0399,0.1303
3.2780,-0.2102,1.0399,0.1303
3.2780,-0.2014,1.0323,0.1300
3.2790,-0.2014,1.0323,0.1300
3.2920,-0.2014,1.0323,0.1300
3.3050,-0.2014,1.0323,0.1300
3.3050,-0.2014,1.0323,0.1300
3.3060,-0.2014,1.0323,0.1300
3.3070,-0.1958,1.0203,0.1327
3.3080,-0.1940,1.0259,0.1501
3.3360,-0.1940,1.0259,0.1501
3.3370,-0.1940,1.0259,0.1501
3.3380,-0.1940,1.0259,0.1501
3.3390,-0.1889,1.0369,0.1322
3.3590,-0.1889,1.0369,0.1322
3.3600,-0.1889,1.0369,0.1322
3.3610,-0.1889,1.0369,0.1322
3.3620,-0.1914,1.0391,0.1266
3.3630,-0.1914,1.0391,0.1266
3.3860,-0.1914,1.0391,0.1266
3.3870,-0.1914,1.0391,0.1266
3.3870,-0.1914,1.0391,0.1266
3.3910,-0.2028,1.0362,0.1430
3.3920,-0.2016,1.0306,0.1432
3.4180,-0.2016,1.0306,0.1432
3.4200,-0.2016,1.0306,0.1432
3.4210,-0.2016,1.0306,0.1432
3.4220,-0.1958,1.0267,0.1376
3.4380,-0.1958,1.0267,0.1376
3.4410,-0.1958,1.0267,0.1376
3.4420,-0.1958,1.0267,0.1376
3.4430,-0.1977,1.0325,0.1273
3.4440,-0.1977,1.0325,0.1273
3.4660,-0.1977,1.0325,0.1273
3.4670,-0.1977,1.0325,0.1273
3.4680,-0.1977,1.0325,0.1273
3.4690,-0.2006,1.0286,0.1361
3.4700,-0.1982,1.0289,0.1520
3.4980,-0.1982,1.0289,0.1520
3.4990,-0.1982,1.0289,0.1520
3.5000,-0.1982,1.0289,0.1520
3.5010,-0.1982,1.0289,0.1520
3.5010,-0.1958,1.0409,0.1256
3.5280,-0.1958,1.0409,0.1256
3.5280,-0.1958,1.0409,0.1256
3.5290,-0.1958,1.0409,0.1256
3.5290,-0.1950,1.0416,0.1332
3.5300,-0.1950,1.0416,0.1332
3.5450,-0.1950,1.0416,0.1332
3.5450,-0.1950,1.0416,0.1332
3.5460,-0.1950,1.0416,0.1332
3.5460,-0.1918,1.0262,0.1435
3.5460,-0.1982,1.0259,0.1513
3.5770,-0.1982,1.0259,0.1513
3.5780,-0.1982,1.0259,0.1513
3.5790,-0.1982,1.0259,0.1513
3.5800,-0.2055,1.0294,0.1461
3.6000,-0.2055,1.0294,0.1461
3.6010,-0.2055,1.0294,0.1461
3.6010,-0.2055,1.0294,0.1461
3.6020,-0.1994,1.0338,0.1317
3.6020,-0.1994,1.0338,0.1317
3.6260,-0.1994,1.0338,0.1317
3.6270,-0.1994,1.0338,0.1317
3.6280,-0.1994,1.0338,0.1317
3.6280,-0.1874,1.0367,0.1244
3.6290,-0.1906,1.0335,0.1364
3.6600,-0.1906,1.0335,0.1364
3.6610,-0.1906,1.0335,0.1364
3.6620,-0.1906,1.0335,0.1364
3.6630,-0.2038,1.0308,0.1537
3.6770,-0.2038,1.0308,0.1537
3.6800,-0.2038,1.0308,0.1537
3.6810,-0.2038,1.0308,0.1537
3.6810,-0.2038,1.0374,0.1479
3.6810,-0.2038,1.0374,0.1479
3.6930,-0.2038,1.0374,0.1479
3.7090,-0.2038,1.0374,0.1479
3.7100,-0.2038,1.0374,0.1479
3.7100,-0.2038,1.0374,0.1479
3.7110,-0.1962,1.0345,0.1325
3.7110,-0.1970,1.0301,0.1329
3.7370,-0.1970,1.0301,0.1329
3.7420,-0.1970,1.0301,0.1329
3.7430,-0.1970,1.0301,0.1329
3.7440,-0.2002,1.0343,0.1229
3.7610,-0.2002,1.0343,0.1229
3.7620,-0.2002,1.0343,0.1229
3.7630,-0.2002,1.0343,0.1229
3.7640,-0.2046,1.0308,0.1310
3.7640,-0.2046,1.0308,0.1310
3.7860,-0.2046,1.0308,0.1310
3.7870,-0.2046,1.0308,0.1310
3.7880,-0.2046,1.0308,0.1310
3.8040,-0.1997,1.0286,0.1444
3.8050,-0.1872,1.0382,0.1337
3.8150,-0.1872,1.0382,0.1337
3.8150,-0.1872,1.0382,0.1337
3.8160,-0.1872,1.0382,0.1337
3.8160,-0.1889,1.0350,0.1232
3.8360,-0.1889,1.0350,0.1232
3.8360,-0.1889,1.0350,0.1232
3.8370,-0.1889,1.0350,0.1232
3.8370,-0.2009,1.0262,0.1342
3.8370,-0.2009,1.0262,0.1342
3.8660,-0.2009,1.0262,0.1342
3.8670,-0.2009,1.0262,0.1342
3.8680,-0.2009,1.0262,0.1342
3.8690,-0.2019,1.0252,0.1386
3.8700,-0.1987,1.0411,0.1327
3.8950,-0.1987,1.0411,0.1327
3.8990,-0.1987,1.0411,0.1327
3.8990,-0.1987,1.0411,0.1327
3.9000,-0.1987,1.0411,0.1327
3.9000,-0.1965,1.0401,0.1303
3.9210,-0.1965,1.0401,0.1303
3.9210,-0.1965,1.0401,0.1303
3.9220,-0.1965,1.0401,0.1303
3.9240,-0.1943,1.0294,0.1449
3.9250,-0.1943,1.0294,0.1449
3.9470,-0.1943,1.0294,0.1449
3.9480,-0.1943,1.0294,0.1449
3.9490,-0.1943,1.0294,0.1449
3.9490,-0.1982,1.0230,0.1422
3.9500,-0.1989,1.0333,0.1405
3.9770,-0.1989,1.0333,0.1405
3.9780,-0.1989,1.0333,0.1405
3.9780,-0.1989,1.0333,0.1405
3.9780,-0.2016,1.0416,0.1234
3.9980,-0.2016,1.0416,0.1234
4.0000,-0.2016,1.0416,0.1234
4.0010,-0.2016,1.0416,0.1234
4.0010,-0.2009,1.0409,0.1276
4.0020,-0.2009,1.0409,0.1276
4.0270,-0.2009,1.0409,0.1276
4.0280,-0.2009,1.0409,0.1276
4.0280,-0.2009,1.0409,0.1276
4.0290,-0.1972,1.0294,0.1408
4.0300,-0.1921,1.0262,0.1466
4.0570,-0.1921,1.0262,0.1466
4.0580,-0.1921,1.0262,0.1466
4.0590,-0.1921,1.0262,0.1466
4.0620,-0.1877,1.0345,0.1273
4.0790,-0.1877,1.0345,0.1273
4.0790,-0.1877,1.0345,0.1273
4.0800,-0.1877,1.0345,0.1273
4.0810,-0.1938,1.0301,0.1210
4.0810,-0.1938,1.0301,0.1210
4.0920,-0.1938,1.0301,0.1210
4.1050,-0.1938,1.0301,0.1210
4.1060,-0.1938,1.0301,0.1210
4.1060,-0.1938,1.0301,0.1210
4.1060,-0.1967,1.0281,0.1408
4.1070,-0.1958,1.0272,0.1315
4.1360,-0.1958,1.0272,0.1315
4.1370,-0.1958,1.0272,0.1315
4.1370,-0.1958,1.0272,0.1315
4.1380,-0.2016,1.0325,0.1241
4.1570,-0.2016,1.0325,0.1241
4.1580,-0.2016,1.0325,0.1241
4.1580,-0.2016,1.0325,0.1241
4.1580,-0.2060,1.0313,0.1329
4.1590,-0.2060,1.0313,0.1329
4.1880,-0.2060,1.0313,0.1329
4.1890,-0.2060,1.0313,0.1329
4.1890,-0.2060,1.0313,0.1329
4.1890,-0.2116,1.0250,0.1403
4.1900,-0.2070,1.0286,0.1493
4.2210,-0.2070,1.0286,0.1493
4.2210,-0.2070,1.0286,0.1493
4.2210,-0.2070,1.0286,0.1493
4.2210,-0.2004,1.0399,0.1220
4.2410,-0.2004,1.0399,0.1220
4.2410,-0.2004,1.0399,0.1220
4.2420,-0.2004,1.0399,0.1220
4.2420,-0.1994,1.0391,0.1180
4.2420,-0.1994,1.0391,0.1180
4.2690,-0.1994,1.0391,0.1180
4.2690,-0.1994,1.0391,0.1180
4.2700,-0.1994,1.0391,0.1180
4.2700,-0.1982,1.0184,0.1381
4.2700,-0.1992,1.0235,0.1479
4.2950,-0.1992,1.0235,0.1479
4.3010,-0.1992,1.0235,0.1479
4.3010,-0.1992,1.0235,0.1479
4.3010,-0.1992,1.0235,0.1479
4.3010,-0.1906,1.0462,0.1285
4.3200,-0.1906,1.0462,0.1285
4.3200,-0.1906,1.0462,0.1285
4.3200,-0.1906,1.0462,0.1285
4.3200,-0.1884,1.0438,0.1193
4.3200,-0.1884,1.0438,0.1193
4.3490,-0.1884,1.0438,0.1193
4.3490,-0.1884,1.0438,0.1193
4.3670,-0.1884,1.0438,0.1193
4.3670,-0.1989,1.0250,0.1430
4.3680,-0.2070,1.0294,0.1452
4.3760,-0.2070,1.0294,0.1452
4.3770,-0.2070,1.0294,0.1452
4.3770,-0.2070,1.0294,0.1452
4.3770,-0.2116,1.0401,0.1256
4.3990,-0.2116,1.0401,0.1256
4.3990,-0.2116,1.0401,0.1256
4.3990,-0.2116,1.0401,0.1256
4.4010,-0.2016,1.0367,0.1229
4.4010,-0.2016,1.0367,0.1229
4.4290,-0.2016,1.0367,0.1229
4.4300,-0.2016,1.0367,0.1229
4.4300,-0.2016,1.0367,0.1229
4.4300,-0.1984,1.0321,0.1334
4.4310,-0.2124,1.0303,0.1505
4.4580,-0.2124,1.0303,0.1505
4.4580,-0.2124,1.0303,0.1505
4.4580,-0.2124,1.0303,0.1505
4.4590,-0.2241,1.0262,0.1444
4.4760,-0.2241,1.0262,0.1444
4.4770,-0.2241,1.0262,0.1444
4.4770,-0.2241,1.0262,0.1444
4.4770,-0.2121,1.0313,0.1224
4.4780,-0.2121,1.0313,0.1224
4.4920,-0.2121,1.0313,0.1224
4.5080,-0.2121,1.0313,0.1224
4.5080,-0.2121,1.0313,0.1224
4.5090,-0.2121,1.0313,0.1224
4.5090,-0.1811,1.0391,0.1039
4.5090,-0.1647,1.0338,0.1205
4.5370,-0.1647,1.0338,0.1205
4.5370,-0.1647,1.0338,0.1205
4.5370,-0.1647,1.0338,0.1205
4.5380,-0.1747,1.0169,0.1481
4.5600,-0.1747,1.0169,0.1481
4.5600,-0.1747,1.0169,0.1481
4.5610,-0.1747,1.0169,0.1481
4.5610,-0.1989,1.0167,0.1329
4.5610,-0.1989,1.0167,0.1329
4.5880,-0.1989,1.0167,0.1329
4.5880,-0.1989,1.0167,0.1329
4.5880,-0.1989,1.0167,0.1329
4.5880,-0.2173,1.0445,0.1117
4.5880,-0.2068,1.0533,0.1110
4.6180,-0.2068,1.0533,0.1110
4.6180,-0.2068,1.0533,0.1110
4.6190,-0.2068,1.0533,0.1110
4.6190,-0.1879,1.0377,0.1371
4.6410,-0.1879,1.0377,0.1371
4.6410,-0.1879,1.0377,0.1371
4.6410,-0.1879,1.0377,0.1371
4.6410,-0.1852,1.0291,0.1437
4.6430,-0.1852,1.0291,0.1437
4.6670,-0.1852,1.0291,0.1437
4.6670,-0.1852,1.0291,0.1437
4.6680,-0.1852,1.0291,0.1437
4.6680,-0.1909,1.0301,0.1276
4.6690,-0.1960,1.0311,0.1217
4.6930,-0.1960,1.0311,0.1217
4.6980,-0.1960,1.0311,0.1217
4.6980,-0.1960,1.0311,0.1217
4.6980,-0.1960,1.0311,0.1217
4.6990,-0.1962,1.0369,0.1351
4.7190,-0.1962,1.0369,0.1351
4.7190,-0.1962,1.0369,0.1351
4.7190,-0.1962,1.0369,0.1351
4.7200,-0.1945,1.0377,0.1290
4.7200,-0.1945,1.0377,0.1290
4.7470,-0.1945,1.0377,0.1290
4.7470,-0.1945,1.0377,0.1290
4.7480,-0.1945,1.0377,0.1290
4.7480,-0.1916,1.0316,0.1249
4.7480,-0.2026,1.0325,0.1305
4.7770,-0.2026,1.0325,0.1305
4.7780,-0.2026,1.0325,0.1305
4.7780,-0.2026,1.0325,0.1305
4.7790,-0.2087,1.0365,0.1293
4.7980,-0.2087,1.0365,0.1293
4.7980,-0.2087,1.0365,0.1293
4.7990,-0.2087,1.0365,0.1293
4.7990,-0.2090,1.0289,0.1508
4.8000,-0.2090,1.0289,0.1508
4.8280,-0.2090,1.0289,0.1508
4.8280,-0.2090,1.0289,0.1508
4.8290,-0.2090,1.0289,0.1508
4.8290,-0.2082,1.0262,0.1545
4.8300,-0.1938,1.0416,0.1132
4.8560,-0.1938,1.0416,0.1132
4.8570,-0.1938,1.0416,0.1132
4.8570,-0.1938,1.0416,0.1132
4.8580,-0.1725,1.0433,0.0890
4.8790,-0.1725,1.0433,0.0890
4.8790,-0.1725,1.0433,0.0890
4.8800,-0.1725,1.0433,0.0890
4.8800,-0.1635,1.0321,0.1141
4.8810,-0.1635,1.0321,0.1141
4.8950,-0.1635,1.0321,0.1141
4.9080,-0.1635,1.0321,0.1141
4.9160,-0.1635,1.0321,0.1141
4.9170,-0.1635,1.0321,0.1141
4.9170,-0.1699,1.0318,0.1266
4.9180,-0.1914,1.0418,0.1095
4.9370,-0.1914,1.0418,0.1095
4.9370,-0.1914,1.0418,0.1095
4.9370,-0.1914,1.0418,0.1095
4.9380,-0.1989,1.0399,0.1078
4.9580,-0.1989,1.0399,0.1078
4.9590,-0.1989,1.0399,0.1078
4.9590,-0.1989,1.0399,0.1078
4.9600,-0.2033,1.0277,0.1285
4.9600,-0.2033,1.0277,0.1285
4.9870,-0.2033,1.0277,0.1285
4.9870,-0.2033,1.0277,0.1285
4.9880,-0.2033,1.0277,0.1285
4.9880,-0.2048,1.0250,0.1369
4.9880,-0.2043,1.0387,0.1234
5.0170,-0.2043,1.0387,0.1234
5.0180,-0.2043,1.0387,0.1234
5.0180,-0.2043,1.0387,0.1234
5.0180,-0.1899,1.0438,0.1058
5.0380,-0.1899,1.0438,0.1058
5.0390,-0.1899,1.0438,0.1058
5.0390,-0.1899,1.0438,0.1058
5.0400,-0.1789,1.0333,0.1132
5.0400,-0.1789,1.0333,0.1132
5.0670,-0.1789,1.0333,0.1132
5.0670,-0.1789,1.0333,0.1132
5.0680,-0.1789,1.0333,0.1132
5.0680,-0.1835,1.0220,0.1271
5.0690,-0.1977,1.0284,0.1422
5.0950,-0.1977,1.0284,0.1422
5.0970,-0.1977,1.0284,0.1422
5.0980,-0.1977,1.0284,0.1422
5.0980,-0.1977,1.0284,0.1422
5.0980,-0.2026,1.0391,0.1408
5.1170,-0.2026,1.0391,0.1408
5.1180,-0.2026,1.0391,0.1408
5.1190,-0.2026,1.0391,0.1408
5.1190,-0.1938,1.0372,0.1178
5.1190,-0.1938,1.0372,0.1178
5.1470,-0.1938,1.0372,0.1178
5.1470,-0.1938,1.0372,0.1178
5.1470,-0.1938,1.0372,0.1178
5.1470,-0.1923,1.0296,0.1305
5.1480,-0.1953,1.0284,0.1417
5.1770,-0.1953,1.0284,0.1417
5.1770,-0.1953,1.0284,0.1417
5.1770,-0.1953,1.0284,0.1417
5.1780,-0.2004,1.0333,0.1212
5.1980,-0.2004,1.0333,0.1212
5.1980,-0.2004,1.0333,0.1212
5.1990,-0.2004,1.0333,0.1212
5.1990,-0.2002,1.0384,0.1237
5.1990,-0.2002,1.0384,0.1237
5.2270,-0.2002,1.0384,0.1237
5.2270,-0.2002,1.0384,0.1237
5.2280,-0.2002,1.0384,0.1237
5.2280,-0.1943,1.0308,0.1391
5.2280,-0.1970,1.0313,0.1452
5.2570,-0.1970,1.0313,0.1452
5.2570,-0.1970,1.0313,0.1452
5.2580,-0.1970,1.0313,0.1452
5.2580,-0.2006,1.0357,0.1249
5.2780,-0.2006,1.0357,0.1249
5.2780,-0.2006,1.0357,0.1249
5.2780,-0.2006,1.0357,0.1249
5.2790,-0.2016,1.0374,0.1146
5.2790,-0.2016,1.0374,0.1146
5.2940,-0.2016,1.0374,0.1146
5.3070,-0.2016,1.0374,0.1146
5.3070,-0.2016,1.0374,0.1146
5.3080,-0.2016,1.0374,0.1146
5.3080,-0.1970,1.0255,0.1202
5.3080,-0.1936,1.0272,0.1378
5.3370,-0.1936,1.0272,0.1378
5.3370,-0.1936,1.0272,0.1378
5.3370,-0.1936,1.0272,0.1378
5.3380,-0.1970,1.0338,0.1283
5.3570,-0.1970,1.0338,0.1283
5.3580,-0.1970,1.0338,0.1283
5.3590,-0.1970,1.0338,0.1283
5.3590,-0.2019,1.0262,0.1237
5.3590,-0.2019,1.0262,0.1237
5.3870,-0.2019,1.0262,0.1237
5.3870,-0.2019,1.0262,0.1237
5.3880,-0.2019,1.0262,0.1237
5.3880,-0.1962,1.0345,0.1244
5.3880,-0.1948,1.0413,0.1266
5.4170,-0.1948,1.0413,0.1266
5.4170,-0.1948,1.0413,0.1266
5.4170,-0.1948,1.0413,0.1266
5.4180,-0.2114,1.0284,0.1400
5.4370,-0.2114,1.0284,0.1400
5.4380,-0.2114,1.0284,0.1400
5.4380,-0.2114,1.0284,0.1400
5.4390,-0.2080,1.0252,0.1369
5.4390,-0.2080,1.0252,0.1369
5.4670,-0.2080,1.0252,0.1369
5.4730,-0.2080,1.0252,0.1369
5.4740,-0.2080,1.0252,0.1369
5.4740,-0.1892,1.0367,0.1149
5.4740,-0.1833,1.0435,0.1249
5.4940,-0.1833,1.0435,0.1249
5.4980,-0.1833,1.0435,0.1249
5.4980,-0.1833,1.0435,0.1249
5.4980,-0.1833,1.0435,0.1249
5.4990,-0.1940,1.0284,0.1430
5.5180,-0.1940,1.0284,0.1430
5.5190,-0.1940,1.0284,0.1430
5.5190,-0.1940,1.0284,0.1430
5.5190,-0.2043,1.0186,0.1373
5.5200,-0.2043,1.0186,0.1373
5.5470,-0.2043,1.0186,0.1373
5.5480,-0.2043,1.0186,0.1373
5.5480,-0.2043,1.0186,0.1373
5.5480,-0.2046,1.0352,0.1373
5.5490,-0.2028,1.0521,0.1239
5.5770,-0.2028,1.0521,0.1239
5.5770,-0.2028,1.0521,0.1239
5.5780,-0.2028,1.0521,0.1239
5.5780,-0.2021,1.0325,0.1315
5.5980,-0.2021,1.0325,0.1315
5.5990,-0.2021,1.0325,0.1315
5.5990,-0.2021,1.0325,0.1315
5.5990,-0.1972,1.0162,0.1552
5.5990,-0.1972,1.0162,0.1552
5.6280,-0.1972,1.0162,0.1552
5.6280,-0.1972,1.0162,0.1552
5.6280,-0.1972,1.0162,0.1552
5.6290,-0.1975,1.0264,0.1432
5.6290,-0.2055,1.0511,0.1220
5.6570,-0.2055,1.0511,0.1220
5.6580,-0.2055,1.0511,0.1220
5.6590,-0.2055,1.0511,0.1220
5.6590,-0.2004,1.0445,0.1119
5.6780,-0.2004,1.0445,0.1119
5.6790,-0.2004,1.0445,0.1119
5.6790,-0.2004,1.0445,0.1119
5.6790,-0.1962,1.0186,0.1391
5.6800,-0.1962,1.0186,0.1391
5.6920,-0.1962,1.0186,0.1391
5.7080,-0.1962,1.0186,0.1391
5.7090,-0.1962,1.0186,0.1391
5.7090,-0.1962,1.0186,0.1391
5.7090,-0.2011,1.0208,0.1615
5.7090,-0.2058,1.0457,0.1229
5.7380,-0.2058,1.0457,0.1229
5.7380,-0.2058,1.0457,0.1229
5.7390,-0.2058,1.0457,0.1229
5.7390,-0.1994,1.0384,0.1075
5.7600,-0.1994,1.0384,0.1075
5.7610,-0.1994,1.0384,0.1075
5.7610,-0.1994,1.0384,0.1075
5.7620,-0.1936,1.0172,0.1488
5.7620,-0.1936,1.0172,0.1488
5.7890,-0.1936,1.0172,0.1488
5.7900,-0.1936,1.0172,0.1488
5.7910,-0.1936,1.0172,0.1488
5.7910,-0.1877,1.0262,0.1569
5.7920,-0.1960,1.0431,0.1207
5.8220,-0.1960,1.0431,0.1207
5.8230,-0.1960,1.0431,0.1207
5.8240,-0.1960,1.0431,0.1207
5.8250,-0.2006,1.0357,0.1107
5.8430,-0.2006,1.0357,0.1107
5.8440,-0.2006,1.0357,0.1107
5.8450,-0.2006,1.0357,0.1107
5.8450,-0.1980,1.0274,0.1378
5.8460,-0.1980,1.0274,0.1378
5.8700,-0.1980,1.0274,0.1378
5.8710,-0.1980,1.0274,0.1378
5.8720,-0.1980,1.0274,0.1378
5.8730,-0.1975,1.0303,0.1486
5.8740,-0.2006,1.0279,0.1281
5.9030,-0.2006,1.0279,0.1281
5.9040,-0.2006,1.0279,0.1281
5.9050,-0.2006,1.0279,0.1281
5.9050,-0.2006,1.0279,0.1281
5.9060,-0.2077,1.0257,0.1241
5.9210,-0.2077,1.0257,0.1241
5.9210,-0.2077,1.0257,0.1241
5.9220,-0.2077,1.0257,0.1241
5.9230,-0.2136,1.0335,0.1444
5.9230,-0.2136,1.0335,0.1444
5.9510,-0.2136,1.0335,0.1444
5.9520,-0.2136,1.0335,0.1444
5.9530,-0.2136,1.0335,0.1444
5.9540,-0.2004,1.0382,0.1444
5.9590,-0.1918,1.0296,0.1317
5.9800,-0.1918,1.0296,0.1317
5.9810,-0.1918,1.0296,0.1317
5.9820,-0.1918,1.0296,0.1317
5.9870,-0.1923,1.0303,0.1325
6.0010,-0.1923,1.0303,0.1325
6.0020,-0.1923,1.0303,0.1325
6.0030,-0.1923,1.0303,0.1325
6.0040,-0.1936,1.0438,0.1339
6.0050,-0.1936,1.0438,0.1339
6.0290,-0.1936,1.0438,0.1339
6.0290,-0.1936,1.0438,0.1339
6.0300,-0.1936,1.0438,0.1339
6.0300,-0.1901,1.0338,0.1320
6.0300,-0.1921,1.0277,0.1393
6.0580,-0.1921,1.0277,0.1393
6.0590,-0.1921,1.0277,0.1393
6.0590,-0.1921,1.0277,0.1393
6.0590,-0.1975,1.0347,0.1351
6.0800,-0.1975,1.0347,0.1351
6.0810,-0.1975,1.0347,0.1351
6.0820,-0.1975,1.0347,0.1351
6.0830,-0.2038,1.0360,0.1205
6.0830,-0.2038,1.0360,0.1205
6.0940,-0.2038,1.0360,0.1205
6.1090,-0.2038,1.0360,0.1205
6.1100,-0.2038,1.0360,0.1205
6.1100,-0.2038,1.0360,0.1205
6.1110,-0.2063,1.0306,0.1278
6.1110,-0.1989,1.0318,0.1342
6.1400,-0.1989,1.0318,0.1342
6.1410,-0.1989,1.0318,0.1342
6.1410,-0.1989,1.0318,0.1342
6.1430,-0.1962,1.0323,0.1342
6.1620,-0.1962,1.0323,0.1342
6.1630,-0.1962,1.0323,0.1342
6.1640,-0.1962,1.0323,0.1342
6.1650,-0.1984,1.0313,0.1351
6.1650,-0.1984,1.0313,0.1351
6.1910,-0.1984,1.0313,0.1351
6.1920,-0.1984,1.0313,0.1351
6.1920,-0.1984,1.0313,0.1351
6.1930,-0.1977,1.0279,0.1224
6.1930,-0.1992,1.0372,0.1276
6.2200,-0.1992,1.0372,0.1276
6.2210,-0.1992,1.0372,0.1276
6.2210,-0.1992,1.0372,0.1276
6.2220,-0.1970,1.0418,0.1342
6.2400,-0.1970,1.0418,0.1342
6.2410,-0.1970,1.0418,0.1342
6.2420,-0.1970,1.0418,0.1342
6.2430,-0.1960,1.0289,0.1364
6.2430,-0.1960,1.0289,0.1364
6.2690,-0.1960,1.0289,0.1364
6.2700,-0.1960,1.0289,0.1364
6.2700,-0.1960,1.0289,0.1364
6.2710,-0.1936,1.0233,0.1317
6.2710,-0.2011,1.0369,0.1293
6.2930,-0.2011,1.0369,0.1293
6.2990,-0.2011,1.0369,0.1293
6.3000,-0.2011,1.0369,0.1293
6.3000,-0.2011,1.0369,0.1293
6.3010,-0.2033,1.0406,0.1332
6.3200,-0.2033,1.0406,0.1332
6.3210,-0.2033,1.0406,0.1332
6.3220,-0.2033,1.0406,0.1332
6.3220,-0.1948,1.0352,0.1327
6.3230,-0.1948,1.0352,0.1327
6.3500,-0.1948,1.0352,0.1327
6.3510,-0.1948,1.0352,0.1327
6.3520,-0.1948,1.0352,0.1327
6.3520,-0.1928,1.0289,0.1271
6.3530,-0.2038,1.0242,0.1444
6.3800,-0.2038,1.0242,0.1444
6.3810,-0.2038,1.0242,0.1444
6.3820,-0.2038,1.0242,0.1444
6.3830,-0.2048,1.0289,0.1354
6.4020,-0.2048,1.0289,0.1354
6.4020,-0.2048,1.0289,0.1354
6.4030,-0.2048,1.0289,0.1354
6.4040,-0.1980,1.0401,0.1205
6.4050,-0.1980,1.0401,0.1205
6.4310,-0.1980,1.0401,0.1205
6.4320,-0.1980,1.0401,0.1205
6.4340,-0.1980,1.0401,0.1205
6.4360,-0.2026,1.0369,0.1202
6.4370,-0.2124,1.0245,0.1388
6.4600,-0.2124,1.0245,0.1388
6.4610,-0.2124,1.0245,0.1388
6.4620,-0.2124,1.0245,0.1388
6.4630,-0.2033,1.0259,0.1388
6.4810,-0.2033,1.0259,0.1388
6.4820,-0.2033,1.0259,0.1388
6.4830,-0.2033,1.0259,0.1388
6.4840,-0.1904,1.0365,0.1224
6.4850,-0.1904,1.0365,0.1224
6.4940,-0.1904,1.0365,0.1224
6.5140,-0.1904,1.0365,0.1224
6.5150,-0.1904,1.0365,0.1224
6.5150,-0.1904,1.0365,0.1224
6.5170,-0.1967,1.0362,0.1202
6.5180,-0.2002,1.0289,0.1373
6.5400,-0.2002,1.0289,0.1373
6.5410,-0.2002,1.0289,0.1373
6.5420,-0.2002,1.0289,0.1373
6.5430,-0.2021,1.0286,0.1386
6.5620,-0.2021,1.0286,0.1386
6.5640,-0.2021,1.0286,0.1386
6.5650,-0.2021,1.0286,0.1386
6.5660,-0.1975,1.0391,0.1410
6.5990,-0.1975,1.0391,0.1410
6.5990,-0.1975,1.0391,0.1410
6.5990,-0.1975,1.0391,0.1410
6.5990,-0.1975,1.0391,0.1410
6.6000,-0.1923,1.0438,0.1171
6.6000,-0.1987,1.0269,0.1339
6.6190,-0.1987,1.0269,0.1339
6.6200,-0.1987,1.0269,0.1339
6.6200,-0.1987,1.0269,0.1339
6.6210,-0.2065,1.0228,0.1461
6.6390,-0.2065,1.0228,0.1461
6.6400,-0.2065,1.0228,0.1461
6.6400,-0.2065,1.0228,0.1461
6.6400,-0.2072,1.0445,0.1300
6.6400,-0.2072,1.0445,0.1300
6.6700,-0.2072,1.0445,0.1300
6.6700,-0.2072,1.0445,0.1300
6.6710,-0.2072,1.0445,0.1300
6.6720,-0.1970,1.0455,0.1178
6.6730,-0.1904,1.0294,0.1381
6.6960,-0.1904,1.0294,0.1381
6.7010,-0.1904,1.0294,0.1381
6.7010,-0.1904,1.0294,0.1381
6.7020,-0.1904,1.0294,0.1381
6.7020,-0.1906,1.0208,0.1386
6.7230,-0.1906,1.0208,0.1386
6.7230,-0.1906,1.0208,0.1386
6.7240,-0.1906,1.0208,0.1386
6.7250,-0.2053,1.0279,0.1420
6.7260,-0.2053,1.0279,0.1420
6.7500,-0.2053,1.0279,0.1420
6.7500,-0.2053,1.0279,0.1420
6.7510,-0.2053,1.0279,0.1420
6.7510,-0.2058,1.0406,0.1325
6.7520,-0.1984,1.0426,0.1185
6.7810,-0.1984,1.0426,0.1185
6.7820,-0.1984,1.0426,0.1185
6.7820,-0.1984,1.0426,0.1185
6.7830,-0.1967,1.0225,0.1354
6.8010,-0.1967,1.0225,0.1354
6.8020,-0.1967,1.0225,0.1354
6.8030,-0.1967,1.0225,0.1354
6.8040,-0.2070,1.0223,0.1493
6.8050,-0.2070,1.0223,0.1493
6.8310,-0.2070,1.0223,0.1493
6.8320,-0.2070,1.0223,0.1493
6.8330,-0.2070,1.0223,0.1493
6.8330,-0.2085,1.0272,0.1207
6.8340,-0.2004,1.0350,0.1293
6.8610,-0.2004,1.0350,0.1293
6.8620,-0.2004,1.0350,0.1293
6.8630,-0.2004,1.0350,0.1293
6.8640,-0.1967,1.0387,0.1366
6.8850,-0.1967,1.0387,0.1366
6.8860,-0.1967,1.0387,0.1366
6.8880,-0.1967,1.0387,0.1366
6.8890,-0.2004,1.0301,0.1334
6.8900,-0.2004,1.0301,0.1334
6.8950,-0.2004,1.0301,0.1334
6.9110,-0.2004,1.0301,0.1334
6.9110,-0.2004,1.0301,0.1334
6.9120,-0.2004,1.0301,0.1334
6.9120,-0.2011,1.0323,0.1307
6.9120,-0.1962,1.0384,0.1263
6.9450,-0.1962,1.0384,0.1263
6.9460,-0.1962,1.0384,0.1263
6.9460,-0.1962,1.0384,0.1263
6.9470,-0.1862,1.0350,0.1417
6.9610,-0.1862,1.0350,0.1417
6.9630,-0.1862,1.0350,0.1417
6.9640,-0.1862,1.0350,0.1417
6.9650,-0.1894,1.0259,0.1452
6.9660,-0.1894,1.0259,0.1452
6.9920,-0.1894,1.0259,0.1452
6.9930,-0.1894,1.0259,0.1452
7.0000,-0.1894,1.0259,0.1452
7.0010,-0.1967,1.0387,0.1259
7.0020,-0.2002,1.0509,0.1051
7.0210,-0.2002,1.0509,0.1051
7.0220,-0.2002,1.0509,0.1051
7.0230,-0.2002,1.0509,0.1051
7.0240,-0.1958,1.0343,0.1403
7.0450,-0.1958,1.0343,0.1403
7.0460,-0.1958,1.0343,0.1403
7.0470,-0.1958,1.0343,0.1403
7.0480,-0.1882,1.0208,0.1505
7.0490,-0.1882,1.0208,0.1505
7.0720,-0.1882,1.0208,0.1505
7.0730,-0.1882,1.0208,0.1505
7.0740,-0.1882,1.0208,0.1505
7.0750,-0.1953,1.0259,0.1154
7.0750,-0.2085,1.0418,0.1283
7.0930,-0.2085,1.0418,0.1283
7.1020,-0.2085,1.0418,0.1283
7.1040,-0.2085,1.0418,0.1283
7.1050,-0.2085,1.0418,0.1283
7.1060,-0.2077,1.0330,0.1293
7.1250,-0.2077,1.0330,0.1293
7.1260,-0.2077,1.0330,0.1293
7.1270,-0.2077,1.0330,0.1293
7.1480,-0.1997,1.0208,0.1322
7.1490,-0.1997,1.0208,0.1322
7.1520,-0.1997,1.0208,0.1322
7.1520,-0.1997,1.0208,0.1322
7.1520,-0.1997,1.0208,0.1322
7.1530,-0.1999,1.0262,0.1329
7.1530,-0.2004,1.0360,0.1281
7.1800,-0.2004,1.0360,0.1281
7.1800,-0.2004,1.0360,0.1281
7.1800,-0.2004,1.0360,0.1281
7.1810,-0.1918,1.0418,0.1256
7.2030,-0.1918,1.0418,0.1256
7.2040,-0.1918,1.0418,0.1256
7.2040,-0.1918,1.0418,0.1256
7.2050,-0.1865,1.0301,0.1303
7.2050,-0.1865,1.0301,0.1303
7.2310,-0.1865,1.0301,0.1303
7.2310,-0.1865,1.0301,0.1303
7.2320,-0.1865,1.0301,0.1303
7.2330,-0.1889,1.0237,0.1518
7.2340,-0.1955,1.0406,0.1283
7.2620,-0.1955,1.0406,0.1283
7.2640,-0.1955,1.0406,0.1283
7.2640,-0.1955,1.0406,0.1283
7.2650,-0.2021,1.0492,0.1058
7.2820,-0.2021,1.0492,0.1058
7.2840,-0.2021,1.0492,0.1058
7.2840,-0.2021,1.0492,0.1058
7.2850,-0.2043,1.0316,0.1393
7.2860,-0.2043,1.0316,0.1393
7.2980,-0.2043,1.0316,0.1393
7.3140,-0.2043,1.0316,0.1393
7.3150,-0.2043,1.0316,0.1393
7.3170,-0.2043,1.0316,0.1393
7.3190,-0.1906,1.0228,0.1510
7.3210,-0.1982,1.0306,0.1310
7.3440,-0.1982,1.0306,0.1310
7.3450,-0.1982,1.0306,0.1310
7.3450,-0.1982,1.0306,0.1310
7.3460,-0.2087,1.0394,0.1207
7.3610,-0.2087,1.0394,0.1207
7.3620,-0.2087,1.0394,0.1207
7.3630,-0.2087,1.0394,0.1207
7.3640,-0.2026,1.0291,0.1220
7.3650,-0.2026,1.0291,0.1220
7.3930,-0.2026,1.0291,0.1220
7.3960,-0.2026,1.0291,0.1220
7.3970,-0.2026,1.0291,0.1220
7.3980,-0.1936,1.0267,0.1432
7.4000,-0.1960,1.0316,0.1420
7.4220,-0.1960,1.0316,0.1420
7.4240,-0.1960,1.0316,0.1420
7.4250,-0.1960,1.0316,0.1420
7.4270,-0.1994,1.0382,0.1246
7.4430,-0.1994,1.0382,0.1246
7.4440,-0.1994,1.0382,0.1246
7.4450,-0.1994,1.0382,0.1246
7.4460,-0.1926,1.0406,0.1129
7.4470,-0.1926,1.0406,0.1129
7.4720,-0.1926,1.0406,0.1129
7.4740,-0.1926,1.0406,0.1129
7.4760,-0.1926,1.0406,0.1129
7.4790,-0.1872,1.0277,0.1224
7.4800,-0.1887,1.0201,0.1417
7.4940,-0.1887,1.0201,0.1417
7.5020,-0.1887,1.0201,0.1417
7.5030,-0.1887,1.0201,0.1417
7.5040,-0.1887,1.0201,0.1417
7.5050,-0.1860,1.0325,0.1366
7.5230,-0.1860,1.0325,0.1366
7.5240,-0.1860,1.0325,0.1366
7.5260,-0.1860,1.0325,0.1366
7.5270,-0.1857,1.0399,0.1156
7.5280,-0.1857,1.0399,0.1156
7.5520,-0.1857,1.0399,0.1156
7.5530,-0.1857,1.0399,0.1156
7.5540,-0.1857,1.0399,0.1156
7.5550,-0.1911,1.0357,0.1271
7.5560,-0.1936,1.0333,0.1290
7.5810,-0.1936,1.0333,0.1290
7.5820,-0.1936,1.0333,0.1290
7.5840,-0.1936,1.0333,0.1290
7.5850,-0.1914,1.0367,0.1114
7.6020,-0.1914,1.0367,0.1114
7.6030,-0.1914,1.0367,0.1114
7.6050,-0.1914,1.0367,0.1114
7.6060,-0.2019,1.0352,0.1200
7.6070,-0.2019,1.0352,0.1200
7.6310,-0.2019,1.0352,0.1200
7.6330,-0.2019,1.0352,0.1200
7.6340,-0.2019,1.0352,0.1200
7.6350,-0.2033,1.0311,0.1415
7.6350,-0.1967,1.0228,0.1444
7.6610,-0.1967,1.0228,0.1444
7.6620,-0.1967,1.0228,0.1444
7.6630,-0.1967,1.0228,0.1444
7.6640,-0.1909,1.0325,0.1251
7.6820,-0.1909,1.0325,0.1251
7.6840,-0.1909,1.0325,0.1251
7.6850,-0.1909,1.0325,0.1251
7.7050,-0.1904,1.0450,0.1122
7.7060,-0.1904,1.0450,0.1122
7.7060,-0.1904,1.0450,0.1122
7.7100,-0.1904,1.0450,0.1122
7.7100,-0.1904,1.0450,0.1122
7.7110,-0.1904,1.0450,0.1122
7.7110,-0.1948,1.0316,0.1261
7.7120,-0.1850,1.0294,0.1405
7.7400,-0.1850,1.0294,0.1405
7.7400,-0.1850,1.0294,0.1405
7.7410,-0.1850,1.0294,0.1405
7.7410,-0.1755,1.0413,0.1312
7.7600,-0.1755,1.0413,0.1312
7.7600,-0.1755,1.0413,0.1312
7.7610,-0.1755,1.0413,0.1312
7.7610,-0.1828,1.0418,0.1166
7.7610,-0.1828,1.0418,0.1166
7.7900,-0.1828,1.0418,0.1166
7.7900,-0.1828,1.0418,0.1166
7.7900,-0.1828,1.0418,0.1166
7.7920,-0.1987,1.0291,0.1268
7.7920,-0.1970,1.0284,0.1307
7.8230,-0.1970,1.0284,0.1307
7.8240,-0.1970,1.0284,0.1307
7.8250,-0.1970,1.0284,0.1307
7.8250,-0.1896,1.0387,0.1180
7.8430,-0.1896,1.0387,0.1180
7.8440,-0.1896,1.0387,0.1180
7.8450,-0.1896,1.0387,0.1180
7.8470,-0.2009,1.0372,0.1224
7.8480,-0.2009,1.0372,0.1224
7.8720,-0.2009,1.0372,0.1224
7.8770,-0.2009,1.0372,0.1224
7.8780,-0.2009,1.0372,0.1224
7.8790,-0.1975,1.0347,0.1232
7.8800,-0.1967,1.0269,0.1198
7.9020,-0.1967,1.0269,0.1198
7.9030,-0.1967,1.0269,0.1198
7.9040,-0.1967,1.0269,0.1198
7.9050,-0.1967,1.0269,0.1198
7.9060,-0.2006,1.0274,0.1317
7.9240,-0.2006,1.0274,0.1317
7.9250,-0.2006,1.0274,0.1317
7.9260,-0.2006,1.0274,0.1317
7.9260,-0.2065,1.0406,0.1339
7.9270,-0.2065,1.0406,0.1339
7.9530,-0.2065,1.0406,0.1339
7.9540,-0.2065,1.0406,0.1339
7.9570,-0.2065,1.0406,0.1339
7.9580,-0.1972,1.0433,0.1222
7.9590,-0.1874,1.0335,0.1320
7.9820,-0.1874,1.0335,0.1320
7.9830,-0.1874,1.0335,0.1320
7.9840,-0.1874,1.0335,0.1320
7.9840,-0.1867,1.0306,0.1354
8.0050,-0.1867,1.0306,0.1354
8.0060,-0.1867,1.0306,0.1354
8.0080,-0.1867,1.0306,0.1354
8.0090,-0.1931,1.0379,0.1339
8.0110,-0.1931,1.0379,0.1339
8.0340,-0.1931,1.0379,0.1339
8.0370,-0.1931,1.0379,0.1339
8.0380,-0.1931,1.0379,0.1339
8.0410,-0.1879,1.0445,0.1278
8.0420,-0.1923,1.0374,0.1198
8.0630,-0.1923,1.0374,0.1198
8.0640,-0.1923,1.0374,0.1198
8.0650,-0.1923,1.0374,0.1198
8.0660,-0.1994,1.0308,0.1202
8.0840,-0.1994,1.0308,0.1202
8.0850,-0.1994,1.0308,0.1202
8.0860,-0.1994,1.0308,0.1202
8.0870,-0.2016,1.0357,0.1283
8.0870,-0.2016,1.0357,0.1283
8.0930,-0.2016,1.0357,0.1283
8.1120,-0.2016,1.0357,0.1283
8.1130,-0.2016,1.0357,0.1283
8.1140,-0.2016,1.0357,0.1283
8.1150,-0.1906,1.0453,0.1215
8.1150,-0.1804,1.0316,0.1224
8.1420,-0.1804,1.0316,0.1224
8.1430,-0.1804,1.0316,0.1224
8.1440,-0.1804,1.0316,0.1224
8.1450,-0.1879,1.0223,0.1339
8.1620,-0.1879,1.0223,0.1339
8.1630,-0.1879,1.0223,0.1339
8.1640,-0.1879,1.0223,0.1339
8.1650,-0.2038,1.0242,0.1195
8.1660,-0.2038,1.0242,0.1195
8.1970,-0.2038,1.0242,0.1195
8.1980,-0.2038,1.0242,0.1195
8.1990,-0.2038,1.0242,0.1195
8.2000,-0.2153,1.0409,0.1185
8.2020,-0.2112,1.0433,0.1202
8.2250,-0.2112,1.0433,0.1202
8.2270,-0.2112,1.0433,0.1202
8.2270,-0.2112,1.0433,0.1202
8.2280,-0.1916,1.0316,0.1312
8.2440,-0.1916,1.0316,0.1312
8.2450,-0.1916,1.0316,0.1312
8.2650,-0.1916,1.0316,0.1312
8.2660,-0.1823,1.0289,0.1410
8.2670,-0.1823,1.0289,0.1410
8.2710,-0.1823,1.0289,0.1410
8.2710,-0.1823,1.0289,0.1410
8.2720,-0.1823,1.0289,0.1410
8.2730,-0.1860,1.0330,0.1249
8.2730,-0.1970,1.0279,0.1217
8.2950,-0.1970,1.0279,0.1217
8.3020,-0.1970,1.0279,0.1217
8.3020,-0.1970,1.0279,0.1217
8.3030,-0.1970,1.0279,0.1217
8.3030,-0.2006,1.0335,0.1415
8.3230,-0.2006,1.0335,0.1415
8.3240,-0.2006,1.0335,0.1415
8.3250,-0.2006,1.0335,0.1415
8.3270,-0.1955,1.0357,0.1256
8.3280,-0.1955,1.0357,0.1256
8.3530,-0.1955,1.0357,0.1256
8.3540,-0.1955,1.0357,0.1256
8.3550,-0.1955,1.0357,0.1256
8.3560,-0.1901,1.0379,0.1254
8.3570,-0.1936,1.0345,0.1310
8.3830,-0.1936,1.0345,0.1310
8.3840,-0.1936,1.0345,0.1310
8.3850,-0.1936,1.0345,0.1310
8.3860,-0.1967,1.0350,0.1285
8.4050,-0.1967,1.0350,0.1285
8.4070,-0.1967,1.0350,0.1285
8.4080,-0.1967,1.0350,0.1285
8.4090,-0.2009,1.0299,0.1327
8.4100,-0.2009,1.0299,0.1327
8.4340,-0.2009,1.0299,0.1327
8.4350,-0.2009,1.0299,0.1327
8.4350,-0.2009,1.0299,0.1327
8.4370,-0.2097,1.0313,0.1263
8.4370,-0.2053,1.0369,0.1254
8.4630,-0.2053,1.0369,0.1254
8.4640,-0.2053,1.0369,0.1254
8.4650,-0.2053,1.0369,0.1254
8.4660,-0.1992,1.0347,0.1229
8.4850,-0.1992,1.0347,0.1229
8.4860,-0.1992,1.0347,0.1229
8.4870,-0.1992,1.0347,0.1229
8.4880,-0.1999,1.0252,0.1285
8.4890,-0.1999,1.0252,0.1285
8.4930,-0.1999,1.0252,0.1285
8.4970,-0.1999,1.0252,0.1285
8.5120,-0.1999,1.0252,0.1285
8.5130,-0.1999,1.0252,0.1285
8.5140,-0.1999,1.0252,0.1285
8.5150,-0.2031,1.0323,0.1420
8.5190,-0.2024,1.0409,0.1173
8.5430,-0.2024,1.0409,0.1173
8.5440,-0.2024,1.0409,0.1173
8.5450,-0.2024,1.0409,0.1173
8.5470,-0.1962,1.0391,0.1263
8.5640,-0.1962,1.0391,0.1263
8.5650,-0.1962,1.0391,0.1263
8.5660,-0.1962,1.0391,0.1263
8.5670,-0.1945,1.0343,0.1366
8.5680,-0.1945,1.0343,0.1366
8.5940,-0.1945,1.0343,0.1366
8.5950,-0.1945,1.0343,0.1366
8.5960,-0.1945,1.0343,0.1366
8.5970,-0.1926,1.0247,0.1317
8.5980,-0.2031,1.0208,0.1439
8.6230,-0.2031,1.0208,0.1439
8.6240,-0.2031,1.0208,0.1439
8.6250,-0.2031,1.0208,0.1439
8.6260,-0.2156,1.0328,0.1542
8.6450,-0.2156,1.0328,0.1542
8.6460,-0.2156,1.0328,0.1542
8.6460,-0.2156,1.0328,0.1542
8.6470,-0.2163,1.0325,0.1288
8.6480,-0.2163,1.0325,0.1288
8.6740,-0.2163,1.0325,0.1288
8.6750,-0.2163,1.0325,0.1288
8.6770,-0.2163,1.0325,0.1288
8.6780,-0.2046,1.0362,0.1180
8.6790,-0.2014,1.0404,0.1342
8.6940,-0.2014,1.0404,0.1342
8.7030,-0.2014,1.0404,0.1342
8.7040,-0.2014,1.0404,0.1342
8.7060,-0.2014,1.0404,0.1342
8.7070,-0.2011,1.0479,0.1386
8.7250,-0.2011,1.0479,0.1386
8.7260,-0.2011,1.0479,0.1386
8.7270,-0.2011,1.0479,0.1386
8.7280,-0.1926,1.0225,0.1364
8.7300,-0.1926,1.0225,0.1364
8.7540,-0.1926,1.0225,0.1364
8.7550,-0.1926,1.0225,0.1364
8.7570,-0.1926,1.0225,0.1364
8.7580,-0.1862,1.0120,0.1520
8.7580,-0.1936,1.0242,0.1454
8.7830,-0.1936,1.0242,0.1454
8.7840,-0.1936,1.0242,0.1454
8.7850,-0.1936,1.0242,0.1454
8.7860,-0.2036,1.0413,0.1256
8.8090,-0.2036,1.0413,0.1256
8.8100,-0.2036,1.0413,0.1256
8.8110,-0.2036,1.0413,0.1256
8.8120,-0.2031,1.0516,0.1090
8.8120,-0.2031,1.0516,0.1090
8.8330,-0.2031,1.0516,0.1090
8.8330,-0.2031,1.0516,0.1090
8.8340,-0.2031,1.0516,0.1090
8.8340,-0.1960,1.0394,0.1193
8.8340,-0.1987,1.0132,0.1449
8.8620,-0.1987,1.0132,0.1449
8.8620,-0.1987,1.0132,0.1449
8.8620,-0.1987,1.0132,0.1449
8.8630,-0.2055,1.0203,0.1540
8.8830,-0.2055,1.0203,0.1540
8.8840,-0.2055,1.0203,0.1540
8.8840,-0.2055,1.0203,0.1540
8.8840,-0.2134,1.0325,0.1317
8.8850,-0.2134,1.0325,0.1317
8.8950,-0.2134,1.0325,0.1317
8.8950,-0.2134,1.0325,0.1317
8.9120,-0.2134,1.0325,0.1317
8.9120,-0.2134,1.0325,0.1317
8.9130,-0.2134,1.0325,0.1317
8.9140,-0.2024,1.0335,0.1317
8.9140,-0.2043,1.0301,0.1415
8.9430,-0.2043,1.0301,0.1415
8.9430,-0.2043,1.0301,0.1415
8.9440,-0.2043,1.0301,0.1415
8.9440,-0.2112,1.0284,0.1361
8.9650,-0.2112,1.0284,0.1361
8.9670,-0.2112,1.0284,0.1361
8.9680,-0.2112,1.0284,0.1361
8.9690,-0.2050,1.0394,0.1322
8.9700,-0.2050,1.0394,0.1322
8.9930,-0.2050,1.0394,0.1322
8.9960,-0.2050,1.0394,0.1322
8.9970,-0.2050,1.0394,0.1322
8.9970,-0.1896,1.0360,0.1351
8.9980,-0.1909,1.0247,0.1579
9.0240,-0.1909,1.0247,0.1579
9.0250,-0.1909,1.0247,0.1579
9.0260,-0.1909,1.0247,0.1579
9.0270,-0.2019,1.0301,0.1395
9.0460,-0.2019,1.0301,0.1395
9.0470,-0.2019,1.0301,0.1395
9.0480,-0.2019,1.0301,0.1395
9.0480,-0.2077,1.0462,0.1110
9.0490,-0.2077,1.0462,0.1110
9.0750,-0.2077,1.0462,0.1110
9.0760,-0.2077,1.0462,0.1110
9.0790,-0.2077,1.0462,0.1110
9.0800,-0.1989,1.0443,0.1298
9.0810,-0.1982,1.0201,0.1596
9.0940,-0.1982,1.0201,0.1596
9.0950,-0.1982,1.0201,0.1596
9.1040,-0.1982,1.0201,0.1596
9.1050,-0.1982,1.0201,0.1596
9.1060,-0.1982,1.0201,0.1596
9.1070,-0.2004,1.0184,0.1442
9.1260,-0.2004,1.0184,0.1442
9.1270,-0.2004,1.0184,0.1442
9.1280,-0.2004,1.0184,0.1442
9.1280,-0.2053,1.0374,0.1202
9.1290,-0.2053,1.0374,0.1202
9.1550,-0.2053,1.0374,0.1202
9.1600,-0.2053,1.0374,0.1202
9.1610,-0.2053,1.0374,0.1202
9.1610,-0.1989,1.0489,0.1232
9.1620,-0.1914,1.0274,0.1452
9.1830,-0.1914,1.0274,0.1452
9.1840,-0.1914,1.0274,0.1452
9.1850,-0.1914,1.0274,0.1452
9.1860,-0.2038,1.0189,0.1493
9.2080,-0.2038,1.0189,0.1493
9.2100,-0.2038,1.0189,0.1493
9.2110,-0.2038,1.0189,0.1493
9.2120,-0.2119,1.0357,0.1241
9.2130,-0.2119,1.0357,0.1241
9.2360,-0.2119,1.0357,0.1241
9.2370,-0.2119,1.0357,0.1241
9.2380,-0.2119,1.0357,0.1241
9.2390,-0.2072,1.0387,0.1210
9.2400,-0.1945,1.0237,0.1574
9.2640,-0.1945,1.0237,0.1574
9.2650,-0.1945,1.0237,0.1574
9.2660,-0.1945,1.0237,0.1574
9.2670,-0.1967,1.0257,0.1469
9.2850,-0.1967,1.0257,0.1469
9.2870,-0.1967,1.0257,0.1469
9.2880,-0.1967,1.0257,0.1469
9.2900,-0.2016,1.0477,0.1188
9.2910,-0.2016,1.0477,0.1188
9.2910,-0.2016,1.0477,0.1188
9.2960,-0.2016,1.0477,0.1188
9.3140,-0.2016,1.0477,0.1188
9.3150,-0.2016,1.0477,0.1188
9.3160,-0.2016,1.0477,0.1188
9.3170,-0.1997,1.0455,0.1136
9.3180,-0.1906,1.0237,0.1474
9.3430,-0.1906,1.0237,0.1474
9.3440,-0.1906,1.0237,0.1474
9.3450,-0.1906,1.0237,0.1474
9.3450,-0.1928,1.0186,0.1645
9.3650,-0.1928,1.0186,0.1645
9.3660,-0.1928,1.0186,0.1645
9.3670,-0.1928,1.0186,0.1645
9.3680,-0.2046,1.0323,0.1263
9.3680,-0.2046,1.0323,0.1263
9.3930,-0.2046,1.0323,0.1263
9.3940,-0.2046,1.0323,0.1263
9.3950,-0.2046,1.0323,0.1263
9.3960,-0.2024,1.0423,0.1066
9.3970,-0.1828,1.0387,0.1349
9.4240,-0.1828,1.0387,0.1349
9.4240,-0.1828,1.0387,0.1349
9.4250,-0.1828,1.0387,0.1349
9.4260,-0.1806,1.0308,0.1520
9.4480,-0.1806,1.0308,0.1520
9.4490,-0.1806,1.0308,0.1520
9.4500,-0.1806,1.0308,0.1520
9.4500,-0.1918,1.0325,0.1349
9.4510,-0.1918,1.0325,0.1349
9.4740,-0.1918,1.0325,0.1349
9.4750,-0.1918,1.0325,0.1349
9.4770,-0.1918,1.0325,0.1349
9.4780,-0.2011,1.0399,0.1232
9.4790,-0.2016,1.0418,0.1383
9.4930,-0.2016,1.0418,0.1383
9.4940,-0.2016,1.0418,0.1383
9.5040,-0.2016,1.0418,0.1383
9.5050,-0.2016,1.0418,0.1383
9.5050,-0.2016,1.0418,0.1383
9.5060,-0.1992,1.0286,0.1498
9.5250,-0.1992,1.0286,0.1498
9.5260,-0.1992,1.0286,0.1498
9.5270,-0.1992,1.0286,0.1498
9.5270,-0.1972,1.0301,0.1417
9.5280,-0.1972,1.0301,0.1417
9.5550,-0.1972,1.0301,0.1417
9.5560,-0.1972,1.0301,0.1417
9.5580,-0.1972,1.0301,0.1417
9.5590,-0.1933,1.0404,0.1246
9.5600,-0.1938,1.0355,0.1312
9.5840,-0.1938,1.0355,0.1312
9.5850,-0.1938,1.0355,0.1312
9.5850,-0.1938,1.0355,0.1312
9.5860,-0.1914,1.0272,0.1513
9.6050,-0.1914,1.0272,0.1513
9.6060,-0.1914,1.0272,0.1513
9.6070,-0.1914,1.0272,0.1513
9.6070,-0.1943,1.0289,0.1349
9.6080,-0.1943,1.0289,0.1349
9.6360,-0.1943,1.0289,0.1349
9.6370,-0.1943,1.0289,0.1349
9.6370,-0.1943,1.0289,0.1349
9.6380,-0.2014,1.0365,0.1193
9.6390,-0.2006,1.0294,0.1241
9.6640,-0.2006,1.0294,0.1241
9.6650,-0.2006,1.0294,0.1241
9.6660,-0.2006,1.0294,0.1241
9.6670,-0.1904,1.0311,0.1435
9.6860,-0.1904,1.0311,0.1435
9.6870,-0.1904,1.0311,0.1435
9.6880,-0.1904,1.0311,0.1435
9.6880,-0.1848,1.0382,0.1442
9.6890,-0.1848,1.0382,0.1442
9.6970,-0.1848,1.0382,0.1442
9.7160,-0.1848,1.0382,0.1442
9.7170,-0.1848,1.0382,0.1442
9.7170,-0.1848,1.0382,0.1442
9.7180,-0.1901,1.0325,0.1261
9.7190,-0.1975,1.0294,0.1351
9.7460,-0.1975,1.0294,0.1351
9.7470,-0.1975,1.0294,0.1351
9.7470,-0.1975,1.0294,0.1351
9.7480,-0.2043,1.0365,0.1391
9.7660,-0.2043,1.0365,0.1391
9.7680,-0.2043,1.0365,0.1391
9.7690,-0.2043,1.0365,0.1391
9.7690,-0.2019,1.0389,0.1388
9.7700,-0.2019,1.0389,0.1388
9.7960,-0.2019,1.0389,0.1388
9.7970,-0.2019,1.0389,0.1388
9.7970,-0.2019,1.0389,0.1388
9.7980,-0.1931,1.0269,0.1369
9.7990,-0.1975,1.0247,0.1356
9.8240,-0.1975,1.0247,0.1356
9.8260,-0.1975,1.0247,0.1356
9.8270,-0.1975,1.0247,0.1356
9.8280,-0.2041,1.0272,0.1373
9.8460,-0.2041,1.0272,0.1373
9.8470,-0.2041,1.0272,0.1373
9.8480,-0.2041,1.0272,0.1373
9.8490,-0.1953,1.0428,0.1334
9.8500,-0.1953,1.0428,0.1334
9.8740,-0.1953,1.0428,0.1334
9.8750,-0.1953,1.0428,0.1334
9.8760,-0.1953,1.0428,0.1334
9.8770,-0.1806,1.0426,0.1188
9.8970,-0.1813,1.0323,0.1315
9.8980,-0.1813,1.0323,0.1315
9.8980,-0.1813,1.0323,0.1315
9.9030,-0.1813,1.0323,0.1315
9.9040,-0.1813,1.0323,0.1315
9.9070,-0.1813,1.0323,0.1315
9.9080,-0.1965,1.0237,0.1364
9.9240,-0.1965,1.0237,0.1364
9.9250,-0.1965,1.0237,0.1364
9.9250,-0.1965,1.0237,0.1364
9.9250,-0.2041,1.0291,0.1388
9.9260,-0.2041,1.0291,0.1388
9.9550,-0.2041,1.0291,0.1388
9.9560,-0.2041,1.0291,0.1388
9.9570,-0.2041,1.0291,0.1388
9.9570,-0.1960,1.0443,0.1239
9.9580,-0.1870,1.0355,0.1114
9.9840,-0.1870,1.0355,0.1114
9.9850,-0.1870,1.0355,0.1114
9.9850,-0.1870,1.0355,0.1114
9.9860,-0.1909,1.0245,0.1486
10.0050,-0.1909,1.0245,0.1486
10.0060,-0.1909,1.0245,0.1486
10.0070,-0.1909,1.0245,0.1486
10.0080,-0.2036,1.0338,0.1449
10.0090,-0.2036,1.0338,0.1449
10.0350,-0.2036,1.0338,0.1449
10.0360,-0.2036,1.0338,0.1449
10.0370,-0.2036,1.0338,0.1449
10.0370,-0.1962,1.0475,0.1195
10.0380,-0.1872,1.0391,0.1300
10.0650,-0.1872,1.0391,0.1300
10.0680,-0.1872,1.0391,0.1300
10.0690,-0.1872,1.0391,0.1300
10.0700,-0.1926,1.0259,0.1415
10.0870,-0.1926,1.0259,0.1415
10.0880,-0.1926,1.0259,0.1415
10.0890,-0.1926,1.0259,0.1415
10.0900,-0.1999,1.0301,0.1395
10.0910,-0.1999,1.0301,0.1395
10.0970,-0.1999,1.0301,0.1395
10.1020,-0.1999,1.0301,0.1395
10.1160,-0.1999,1.0301,0.1395
10.1170,-0.1999,1.0301,0.1395
10.1170,-0.1999,1.0301,0.1395
10.1180,-0.1962,1.0406,0.1176
10.1180,-0.1870,1.0394,0.1254
10.1480,-0.1870,1.0394,0.1254
10.1490,-0.1870,1.0394,0.1254
10.1500,-0.1870,1.0394,0.1254
10.1510,-0.1882,1.0325,0.1442
10.1680,-0.1882,1.0325,0.1442
10.1700,-0.1882,1.0325,0.1442
10.1710,-0.1882,1.0325,0.1442
10.1720,-0.1945,1.0284,0.1420
10.1730,-0.1945,1.0284,0.1420
10.1740,-0.1945,1.0284,0.1420
10.2010,-0.1945,1.0284,0.1420
10.2020,-0.1945,1.0284,0.1420
10.2020,-0.1945,1.0284,0.1420
10.2040,-0.2046,1.0316,0.1232
10.2050,-0.2119,1.0399,0.1151
10.2250,-0.2119,1.0399,0.1151
10.2270,-0.2119,1.0399,0.1151
10.2280,-0.2119,1.0399,0.1151
10.2280,-0.1989,1.0423,0.1391
10.2460,-0.1989,1.0423,0.1391
10.2460,-0.1989,1.0423,0.1391
10.2470,-0.1989,1.0423,0.1391
10.2480,-0.1914,1.0294,0.1435
10.2480,-0.1914,1.0294,0.1435
10.2750,-0.1914,1.0294,0.1435
10.2770,-0.1914,1.0294,0.1435
10.2780,-0.1914,1.0294,0.1435
10.2800,-0.1887,1.0198,0.1523
10.2810,-0.2019,1.0286,0.1310
10.2930,-0.2019,1.0286,0.1310
10.2980,-0.2019,1.0286,0.1310
10.3060,-0.2019,1.0286,0.1310
10.3070,-0.2019,1.0286,0.1310
10.3070,-0.2019,1.0286,0.1310
10.3080,-0.1865,1.0482,0.1149
10.3270,-0.1865,1.0482,0.1149
10.3280,-0.1865,1.0482,0.1149
10.3280,-0.1865,1.0482,0.1149
10.3290,-0.1901,1.0389,0.1251
10.3290,-0.1901,1.0389,0.1251
10.3580,-0.1901,1.0389,0.1251
10.3590,-0.1901,1.0389,0.1251
10.3600,-0.1901,1.0389,0.1251
10.3610,-0.2036,1.0252,0.1413
10.3620,-0.1923,1.0284,0.1144
10.3870,-0.1923,1.0284,0.1144
10.3880,-0.1923,1.0284,0.1144
10.3890,-0.1923,1.0284,0.1144
10.3890,-0.1955,1.0372,0.1271
10.4060,-0.1955,1.0372,0.1271
10.4070,-0.1955,1.0372,0.1271
10.4080,-0.1955,1.0372,0.1271
10.4090,-0.2009,1.0367,0.1447
10.4320,-0.2009,1.0367,0.1447
10.4360,-0.2009,1.0367,0.1447
10.4370,-0.2009,1.0367,0.1447
10.4370,-0.2009,1.0367,0.1447
10.4380,-0.1972,1.0233,0.1307
10.4390,-0.1965,1.0338,0.1246
10.4650,-0.1965,1.0338,0.1246
10.4650,-0.1965,1.0338,0.1246
10.4660,-0.1965,1.0338,0.1246
10.4670,-0.1950,1.0482,0.1246
10.4850,-0.1950,1.0482,0.1246
10.4870,-0.1950,1.0482,0.1246
10.4870,-0.1950,1.0482,0.1246
10.4880,-0.1896,1.0316,0.1339
10.4890,-0.1896,1.0316,0.1339
10.4960,-0.1896,1.0316,0.1339
10.5000,-0.1896,1.0316,0.1339
10.5150,-0.1896,1.0316,0.1339
10.5170,-0.1896,1.0316,0.1339
10.5180,-0.1896,1.0316,0.1339
10.5190,-0.1911,1.0162,0.1398
10.5200,-0.1855,1.0242,0.1403
10.5460,-0.1855,1.0242,0.1403
10.5470,-0.1855,1.0242,0.1403
10.5480,-0.1855,1.0242,0.1403
10.5500,-0.1923,1.0382,0.1361
10.5670,-0.1923,1.0382,0.1361
10.5680,-0.1923,1.0382,0.1361
10.5690,-0.1923,1.0382,0.1361
10.5700,-0.2043,1.0347,0.1376
10.5710,-0.2043,1.0347,0.1376
10.5970,-0.2043,1.0347,0.1376
10.5980,-0.2043,1.0347,0.1376
10.6020,-0.2043,1.0347,0.1376
10.6040,-0.2168,1.0279,0.1300
10.6050,-0.2180,1.0277,0.1295
10.6260,-0.2180,1.0277,0.1295
10.6270,-0.2180,1.0277,0.1295
10.6280,-0.2180,1.0277,0.1295
10.6280,-0.2065,1.0428,0.1261
10.6500,-0.2065,1.0428,0.1261
10.6510,-0.2065,1.0428,0.1261
10.6520,-0.2065,1.0428,0.1261
10.6530,-0.1997,1.0523,0.1154
10.6540,-0.1997,1.0523,0.1154
10.6780,-0.1997,1.0523,0.1154
10.6790,-0.1997,1.0523,0.1154
10.6800,-0.1997,1.0523,0.1154
10.6820,-0.1980,1.0286,0.1295
10.6830,-0.2024,1.0240,0.1523
10.6940,-0.2024,1.0240,0.1523
10.7050,-0.2024,1.0240,0.1523
10.7060,-0.2024,1.0240,0.1523
10.7070,-0.2024,1.0240,0.1523
10.7080,-0.1972,1.0418,0.1241
10.7260,-0.1972,1.0418,0.1241
10.7270,-0.1972,1.0418,0.1241
10.7280,-0.1972,1.0418,0.1241
10.7290,-0.1870,1.0438,0.1190
10.7300,-0.1870,1.0438,0.1190
10.7600,-0.1870,1.0438,0.1190
10.7610,-0.1870,1.0438,0.1190
10.7620,-0.1870,1.0438,0.1190
10.7630,-0.1909,1.0245,0.1371
10.7630,-0.2068,1.0201,0.1498
10.7870,-0.2068,1.0201,0.1498
10.7880,-0.2068,1.0201,0.1498
10.7890,-0.2068,1.0201,0.1498
10.7890,-0.2109,1.0391,0.1229
10.8100,-0.2109,1.0391,0.1229
10.8100,-0.2109,1.0391,0.1229
10.8110,-0.2109,1.0391,0.1229
10.8110,-0.2072,1.0440,0.1134
10.8120,-0.2072,1.0440,0.1134
10.8350,-0.2072,1.0440,0.1134
10.8350,-0.2072,1.0440,0.1134
10.8350,-0.2072,1.0440,0.1134
10.8360,-0.2136,1.0176,0.1479
10.8360,-0.2112,1.0062,0.1547
10.8650,-0.2112,1.0062,0.1547
10.8650,-0.2112,1.0062,0.1547
10.8650,-0.2112,1.0062,0.1547
10.8660,-0.2060,1.0303,0.1185
10.8840,-0.2060,1.0303,0.1185
10.8850,-0.2060,1.0303,0.1185
10.8850,-0.2060,1.0303,0.1185
10.8850,-0.2048,1.0572,0.0821
10.8860,-0.2048,1.0572,0.0821
10.8910,-0.2048,1.0572,0.0821
10.9150,-0.2048,1.0572,0.0821
10.9150,-0.2048,1.0572,0.0821
10.9150,-0.2048,1.0572,0.0821
10.9160,-0.1943,1.0497,0.0936
10.9160,-0.1877,1.0259,0.1545
10.9450,-0.1877,1.0259,0.1545
10.9460,-0.1877,1.0259,0.1545
10.9460,-0.1877,1.0259,0.1545
10.9460,-0.1940,1.0250,0.1283
