
time,AccelerometerX,AccelerometerY,AccelerometerZ
0.0210,-0.2336,1.0387,0.1894
0.0220,-0.2336,1.0387,0.1894
0.0220,-0.2336,1.0387,0.1894
0.0220,-0.2014,1.0396,0.1386
0.0230,-0.1889,0.9859,0.2769
0.0530,-0.1889,0.9859,0.2769
0.0540,-0.1889,0.9859,0.2769
0.0540,-0.1889,0.9859,0.2769
0.0540,-0.1889,0.9859,0.2769
0.0550,-0.1889,0.9859,0.2769
0.0550,-0.1977,1.0008,0.2688
0.0560,-0.1977,1.0008,0.2688
0.0680,-0.1977,1.0008,0.2688
0.0690,-0.1977,1.0008,0.2688
0.0690,-0.1977,1.0008,0.2688
0.0700,-0.2014,1.0272,0.2134
0.0950,-0.2014,1.0272,0.2134
0.0960,-0.2014,1.0272,0.2134
0.0960,-0.2014,1.0272,0.2134
0.0960,-0.2097,1.0040,0.2432
0.0970,-0.1987,0.9925,0.2652
0.1150,-0.1987,0.9925,0.2652
0.1160,-0.1987,0.9925,0.2652
0.1160,-0.1987,0.9925,0.2652
0.1170,-0.1904,1.0193,0.2324
0.1170,-0.1904,1.0193,0.2324
0.1450,-0.1904,1.0193,0.2324
0.1460,-0.1904,1.0193,0.2324
0.1460,-0.1904,1.0193,0.2324
0.1460,-0.1955,1.0389,0.2156
0.1760,-0.1955,1.0389,0.2156
0.1760,-0.1955,1.0389,0.2156
0.1760,-0.1955,1.0389,0.2156
0.1770,-0.2085,1.0172,0.2368
0.1770,-0.2143,0.9932,0.2649
0.1950,-0.2143,0.9932,0.2649
0.1960,-0.2143,0.9932,0.2649
0.1970,-0.2143,0.9932,0.2649
0.1970,-0.2200,0.9961,0.2483
0.1970,-0.2200,0.9961,0.2483
0.2260,-0.2200,0.9961,0.2483
0.2260,-0.2200,0.9961,0.2483
0.2260,-0.2200,0.9961,0.2483
0.2270,-0.2190,1.0140,0.2265
0.2320,-0.2190,1.0140,0.2265
0.2320,-0.2190,1.0140,0.2265
0.2560,-0.2190,1.0140,0.2265
0.2560,-0.2190,1.0140,0.2265
0.2560,-0.2190,1.0140,0.2265
0.2570,-0.2033,1.0091,0.2361
0.2570,-0.2048,1.0044,0.2410
0.2760,-0.2048,1.0044,0.2410
0.2770,-0.2048,1.0044,0.2410
0.2780,-0.2048,1.0044,0.2410
0.2780,-0.2021,1.0145,0.2253
0.2790,-0.2021,1.0145,0.2253
0.3050,-0.2021,1.0145,0.2253
0.3050,-0.2021,1.0145,0.2253
0.3050,-0.2021,1.0145,0.2253
0.3060,-0.2016,1.0223,0.2339
0.3360,-0.2016,1.0223,0.2339
0.3360,-0.2016,1.0223,0.2339
0.3360,-0.2016,1.0223,0.2339
0.3370,-0.2060,1.0110,0.2400
0.3370,-0.2141,0.9974,0.2358
0.3560,-0.2141,0.9974,0.2358
0.3590,-0.2141,0.9974,0.2358
0.3590,-0.2141,0.9974,0.2358
0.3590,-0.2202,1.0020,0.2331
0.3590,-0.2202,1.0020,0.2331
0.3840,-0.2202,1.0020,0.2331
0.3850,-0.2202,1.0020,0.2331
0.3850,-0.2202,1.0020,0.2331
0.3850,-0.2217,1.0191,0.2224
0.4160,-0.2217,1.0191,0.2224
0.4160,-0.2217,1.0191,0.2224
0.4160,-0.2217,1.0191,0.2224
0.4170,-0.2143,1.0167,0.2429
0.4170,-0.2099,1.0018,0.2510
0.4290,-0.2099,1.0018,0.2510
0.4320,-0.2099,1.0018,0.2510
0.4360,-0.2099,1.0018,0.2510
0.4370,-0.2099,1.0018,0.2510
0.4370,-0.2099,1.0018,0.2510
0.4380,-0.2011,1.0098,0.2314
0.4380,-0.2011,1.0098,0.2314
0.4670,-0.2011,1.0098,0.2314
0.4670,-0.2011,1.0098,0.2314
0.4670,-0.2011,1.0098,0.2314
0.4680,-0.2024,1.0184,0.2280
0.4960,-0.2024,1.0184,0.2280
0.4970,-0.2024,1.0184,0.2280
0.4970,-0.2024,1.0184,0.2280
0.4980,-0.2116,1.0059,0.2385
0.4980,-0.2185,1.0062,0.2498
0.5160,-0.2185,1.0062,0.2498
0.5170,-0.2185,1.0062,0.2498
0.5170,-0.2185,1.0062,0.2498
0.5180,-0.2224,1.0113,0.2495
0.5180,-0.2224,1.0113,0.2495
0.5460,-0.2224,1.0113,0.2495
0.5470,-0.2224,1.0113,0.2495
0.5630,-0.2224,1.0113,0.2495
0.5630,-0.2185,1.0088,0.2466
0.5770,-0.2185,1.0088,0.2466
0.5770,-0.2185,1.0088,0.2466
0.5780,-0.2185,1.0088,0.2466
0.5780,-0.2124,1.0088,0.2356
0.5780,-0.2104,1.0123,0.2319
0.5970,-0.2104,1.0123,0.2319
0.5970,-0.2104,1.0123,0.2319
0.5980,-0.2104,1.0123,0.2319
0.5980,-0.2200,1.0123,0.2363
0.5990,-0.2200,1.0123,0.2363
0.6270,-0.2200,1.0123,0.2363
0.6270,-0.2200,1.0123,0.2363
0.6280,-0.2200,1.0123,0.2363
0.6280,-0.2197,1.0079,0.2415
0.6330,-0.2197,1.0079,0.2415
0.6330,-0.2197,1.0079,0.2415
0.6570,-0.2197,1.0079,0.2415
0.6570,-0.2197,1.0079,0.2415
0.6580,-0.2197,1.0079,0.2415
0.6580,-0.2160,1.0049,0.2471
0.6590,-0.2085,1.0044,0.2493
0.6770,-0.2085,1.0044,0.2493
0.6770,-0.2085,1.0044,0.2493
0.6780,-0.2085,1.0044,0.2493
0.6780,-0.2046,1.0052,0.2407
0.6790,-0.2046,1.0052,0.2407
0.7070,-0.2046,1.0052,0.2407
0.7070,-0.2046,1.0052,0.2407
0.7070,-0.2046,1.0052,0.2407
0.7080,-0.2134,1.0103,0.2312
0.7380,-0.2134,1.0103,0.2312
0.7380,-0.2134,1.0103,0.2312
0.7390,-0.2134,1.0103,0.2312
0.7390,-0.2192,1.0152,0.2378
0.7400,-0.1987,1.0154,0.2405
0.7570,-0.1987,1.0154,0.2405
0.7580,-0.1987,1.0154,0.2405
0.7580,-0.1987,1.0154,0.2405
0.7590,-0.1899,1.0091,0.2520
0.7590,-0.1899,1.0091,0.2520
0.7870,-0.1899,1.0091,0.2520
0.7870,-0.1899,1.0091,0.2520
0.7880,-0.1899,1.0091,0.2520
0.7880,-0.2006,1.0047,0.2537
0.8160,-0.2006,1.0047,0.2537
0.8160,-0.2006,1.0047,0.2537
0.8160,-0.2006,1.0047,0.2537
0.8170,-0.2185,1.0088,0.2361
0.8170,-0.2173,1.0201,0.2459
0.8290,-0.2173,1.0201,0.2459
0.8320,-0.2173,1.0201,0.2459
0.8370,-0.2173,1.0201,0.2459
0.8380,-0.2173,1.0201,0.2459
0.8380,-0.2173,1.0201,0.2459
0.8380,-0.2009,1.0150,0.2483
0.8390,-0.2009,1.0150,0.2483
0.8670,-0.2009,1.0150,0.2483
0.8670,-0.2009,1.0150,0.2483
0.8670,-0.2009,1.0150,0.2483
0.8680,-0.2038,1.0113,0.2410
0.8960,-0.2038,1.0113,0.2410
0.8960,-0.2038,1.0113,0.2410
0.8960,-0.2038,1.0113,0.2410
0.8960,-0.2207,1.0059,0.2371
0.8970,-0.2309,1.0091,0.2356
0.9170,-0.2309,1.0091,0.2356
0.9180,-0.2309,1.0091,0.2356
0.9180,-0.2309,1.0091,0.2356
0.9180,-0.2314,1.0118,0.2322
0.9190,-0.2314,1.0118,0.2322
0.9470,-0.2314,1.0118,0.2322
0.9470,-0.2314,1.0118,0.2322
0.9470,-0.2314,1.0118,0.2322
0.9480,-0.2124,1.0088,0.2378
0.9770,-0.2124,1.0088,0.2378
0.9770,-0.2124,1.0088,0.2378
0.9770,-0.2124,1.0088,0.2378
0.9780,-0.2021,1.0035,0.2385
0.9780,-0.2114,1.0079,0.2395
0.9970,-0.2114,1.0079,0.2395
0.9980,-0.2114,1.0079,0.2395
0.9980,-0.2114,1.0079,0.2395
0.9990,-0.2102,1.0110,0.2549
0.9990,-0.2102,1.0110,0.2549
1.0260,-0.2102,1.0110,0.2549
1.0260,-0.2102,1.0110,0.2549
1.0270,-0.2102,1.0110,0.2549
1.0270,-0.2004,1.0201,0.2493
1.0320,-0.2004,1.0201,0.2493
1.0340,-0.2004,1.0201,0.2493
1.0570,-0.2004,1.0201,0.2493
1.0570,-0.2004,1.0201,0.2493
1.0580,-0.2004,1.0201,0.2493
1.0580,-0.1987,1.0130,0.2327
1.0580,-0.2094,1.0086,0.2444
1.0770,-0.2094,1.0086,0.2444
1.0780,-0.2094,1.0086,0.2444
1.0780,-0.2094,1.0086,0.2444
1.0840,-0.2170,1.0128,0.2393
1.0850,-0.2170,1.0128,0.2393
1.1060,-0.2170,1.0128,0.2393
1.1070,-0.2170,1.0128,0.2393
1.1070,-0.2170,1.0128,0.2393
1.1070,-0.2173,1.0108,0.2407
1.1360,-0.2173,1.0108,0.2407
1.1370,-0.2173,1.0108,0.2407
1.1370,-0.2173,1.0108,0.2407
1.1370,-0.2265,1.0062,0.2500
1.1380,-0.2319,1.0084,0.2478
1.1570,-0.2319,1.0084,0.2478
1.1580,-0.2319,1.0084,0.2478
1.1580,-0.2319,1.0084,0.2478
1.1580,-0.2253,1.0057,0.2444
1.1590,-0.2253,1.0057,0.2444
1.1860,-0.2253,1.0057,0.2444
1.1870,-0.2253,1.0057,0.2444
1.1870,-0.2253,1.0057,0.2444
1.1870,-0.2197,1.0088,0.2427
1.2160,-0.2197,1.0088,0.2427
1.2170,-0.2197,1.0088,0.2427
1.2170,-0.2197,1.0088,0.2427
1.2170,-0.2165,1.0054,0.2476
1.2170,-0.2146,1.0076,0.2512
1.2290,-0.2146,1.0076,0.2512
1.2320,-0.2146,1.0076,0.2512
1.2370,-0.2146,1.0076,0.2512
1.2380,-0.2146,1.0076,0.2512
1.2390,-0.2146,1.0076,0.2512
1.2390,-0.2151,1.0159,0.2368
1.2390,-0.2151,1.0159,0.2368
1.2670,-0.2151,1.0159,0.2368
1.2670,-0.2151,1.0159,0.2368
1.2680,-0.2151,1.0159,0.2368
1.2680,-0.2033,1.0164,0.2322
1.2960,-0.2033,1.0164,0.2322
1.2970,-0.2033,1.0164,0.2322
1.2970,-0.2033,1.0164,0.2322
1.2970,-0.1997,1.0108,0.2485
1.2980,-0.2104,1.0081,0.2397
1.3180,-0.2104,1.0081,0.2397
1.3180,-0.2104,1.0081,0.2397
1.3190,-0.2104,1.0081,0.2397
1.3190,-0.2251,1.0018,0.2385
1.3190,-0.2251,1.0018,0.2385
1.3470,-0.2251,1.0018,0.2385
1.3470,-0.2251,1.0018,0.2385
1.3470,-0.2251,1.0018,0.2385
1.3480,-0.2324,1.0091,0.2402
1.3770,-0.2324,1.0091,0.2402
1.3770,-0.2324,1.0091,0.2402
1.3780,-0.2324,1.0091,0.2402
1.3780,-0.2107,1.0140,0.2368
1.3790,-0.2019,1.0074,0.2500
1.4000,-0.2019,1.0074,0.2500
1.4010,-0.2019,1.0074,0.2500
1.4020,-0.2019,1.0074,0.2500
1.4030,-0.2195,1.0084,0.2405
1.4040,-0.2195,1.0084,0.2405
1.4310,-0.2195,1.0084,0.2405
1.4320,-0.2195,1.0084,0.2405
1.4330,-0.2195,1.0084,0.2405
1.4340,-0.2219,1.0145,0.2256
1.4350,-0.2219,1.0145,0.2256
1.4360,-0.2219,1.0145,0.2256
1.4580,-0.2219,1.0145,0.2256
1.4590,-0.2219,1.0145,0.2256
1.4600,-0.2219,1.0145,0.2256
1.4610,-0.2119,1.0084,0.2429
1.4620,-0.2077,1.0076,0.2564
1.4800,-0.2077,1.0076,0.2564
1.4820,-0.2077,1.0076,0.2564
1.4820,-0.2077,1.0076,0.2564
1.4830,-0.2046,1.0106,0.2456
1.4830,-0.2046,1.0106,0.2456
1.5070,-0.2046,1.0106,0.2456
1.5090,-0.2046,1.0106,0.2456
1.5100,-0.2046,1.0106,0.2456
1.5120,-0.2036,1.0081,0.2473
1.5390,-0.2036,1.0081,0.2473
1.5400,-0.2036,1.0081,0.2473
1.5410,-0.2036,1.0081,0.2473
1.5420,-0.2033,1.0108,0.2454
1.5420,-0.2202,1.0172,0.2346
1.5580,-0.2202,1.0172,0.2346
1.5630,-0.2202,1.0172,0.2346
1.5650,-0.2202,1.0172,0.2346
1.5660,-0.2263,1.0152,0.2356
1.5670,-0.2263,1.0152,0.2356
1.5880,-0.2263,1.0152,0.2356
1.5890,-0.2263,1.0152,0.2356
1.5900,-0.2263,1.0152,0.2356
1.5910,-0.2146,1.0069,0.2410
1.6180,-0.2146,1.0069,0.2410
1.6190,-0.2146,1.0069,0.2410
1.6200,-0.2146,1.0069,0.2410
1.6210,-0.2053,1.0030,0.2439
1.6220,-0.2028,1.0052,0.2510
1.6300,-0.2028,1.0052,0.2510
1.6570,-0.2028,1.0052,0.2510
1.6600,-0.2028,1.0052,0.2510
1.6610,-0.2028,1.0052,0.2510
1.6610,-0.2028,1.0052,0.2510
1.6620,-0.2048,1.0164,0.2488
1.6620,-0.2048,1.0164,0.2488
1.6670,-0.2048,1.0164,0.2488
1.6670,-0.2048,1.0164,0.2488
1.6680,-0.2048,1.0164,0.2488
1.6680,-0.2026,1.0147,0.2441
1.6980,-0.2026,1.0147,0.2441
1.6980,-0.2026,1.0147,0.2441
1.6980,-0.2026,1.0147,0.2441
1.6990,-0.2048,1.0103,0.2388
1.6990,-0.2082,1.0176,0.2383
1.7190,-0.2082,1.0176,0.2383
1.7190,-0.2082,1.0176,0.2383
1.7190,-0.2082,1.0176,0.2383
1.7220,-0.2075,1.0135,0.2434
1.7240,-0.2075,1.0135,0.2434
1.7490,-0.2075,1.0135,0.2434
1.7500,-0.2075,1.0135,0.2434
1.7500,-0.2075,1.0135,0.2434
1.7510,-0.2026,1.0069,0.2415
1.7790,-0.2026,1.0069,0.2415
1.7800,-0.2026,1.0069,0.2415
1.7800,-0.2026,1.0069,0.2415
1.7810,-0.2109,0.9969,0.2385
1.7820,-0.2156,0.9966,0.2488
1.8050,-0.2156,0.9966,0.2488
1.8060,-0.2156,0.9966,0.2488
1.8070,-0.2156,0.9966,0.2488
1.8080,-0.2236,1.0186,0.2424
1.8090,-0.2236,1.0186,0.2424
1.8310,-0.2236,1.0186,0.2424
1.8320,-0.2236,1.0186,0.2424
1.8330,-0.2236,1.0186,0.2424
1.8340,-0.2200,1.0203,0.2268
1.8350,-0.2200,1.0203,0.2268
1.8360,-0.2200,1.0203,0.2268
1.8580,-0.2200,1.0203,0.2268
1.8590,-0.2200,1.0203,0.2268
1.8600,-0.2200,1.0203,0.2268
1.8610,-0.2131,0.9949,0.2441
1.8620,-0.2129,0.9944,0.2532
1.8800,-0.2129,0.9944,0.2532
1.8830,-0.2129,0.9944,0.2532
1.8840,-0.2129,0.9944,0.2532
1.8850,-0.2200,1.0267,0.2336
1.8860,-0.2200,1.0267,0.2336
1.9090,-0.2200,1.0267,0.2336
1.9100,-0.2200,1.0267,0.2336
1.9110,-0.2200,1.0267,0.2336
1.9120,-0.2094,1.0306,0.2331
1.9400,-0.2094,1.0306,0.2331
1.9410,-0.2094,1.0306,0.2331
1.9420,-0.2094,1.0306,0.2331
1.9420,-0.1928,1.0071,0.2583
1.9430,-0.1945,0.9939,0.2559
1.9630,-0.1945,0.9939,0.2559
1.9640,-0.1945,0.9939,0.2559
1.9650,-0.1945,0.9939,0.2559
1.9650,-0.2156,1.0049,0.2302
1.9660,-0.2156,1.0049,0.2302
1.9900,-0.2156,1.0049,0.2302
1.9900,-0.2156,1.0049,0.2302
1.9910,-0.2156,1.0049,0.2302
1.9920,-0.2302,1.0245,0.2195
2.0210,-0.2302,1.0245,0.2195
2.0220,-0.2302,1.0245,0.2195
2.0230,-0.2302,1.0245,0.2195
2.0240,-0.2141,1.0196,0.2353
2.0250,-0.1938,1.0081,0.2691
2.0300,-0.1938,1.0081,0.2691
2.0420,-0.1938,1.0081,0.2691
2.0430,-0.1938,1.0081,0.2691
2.0430,-0.1938,1.0081,0.2691
2.0440,-0.1899,1.0008,0.2583
2.0440,-0.1899,1.0008,0.2583
2.0700,-0.1899,1.0008,0.2583
2.0710,-0.1899,1.0008,0.2583
2.0710,-0.1899,1.0008,0.2583
2.0720,-0.2126,1.0044,0.2268
2.0990,-0.2126,1.0044,0.2268
2.1000,-0.2126,1.0044,0.2268
2.1010,-0.2126,1.0044,0.2268
2.1020,-0.2270,1.0220,0.2270
2.1020,-0.2153,1.0159,0.2349
2.1200,-0.2153,1.0159,0.2349
2.1210,-0.2153,1.0159,0.2349
2.1210,-0.2153,1.0159,0.2349
2.1220,-0.1967,1.0040,0.2551
2.1230,-0.1967,1.0040,0.2551
2.1510,-0.1967,1.0040,0.2551
2.1530,-0.1967,1.0040,0.2551
2.1540,-0.1967,1.0040,0.2551
2.1550,-0.2014,1.0101,0.2539
2.1830,-0.2014,1.0101,0.2539
2.1830,-0.2014,1.0101,0.2539
2.1840,-0.2014,1.0101,0.2539
2.2030,-0.2204,1.0164,0.2368
2.2040,-0.2236,1.0130,0.2334
2.2060,-0.2236,1.0130,0.2334
2.2070,-0.2236,1.0130,0.2334
2.2070,-0.2236,1.0130,0.2334
2.2080,-0.2080,1.0047,0.2412
2.2080,-0.2080,1.0047,0.2412
2.2320,-0.2080,1.0047,0.2412
2.2320,-0.2080,1.0047,0.2412
2.2320,-0.2080,1.0047,0.2412
2.2330,-0.2038,1.0101,0.2503
2.2330,-0.2038,1.0101,0.2503
2.2600,-0.2038,1.0101,0.2503
2.2610,-0.2038,1.0101,0.2503
2.2620,-0.2038,1.0101,0.2503
2.2630,-0.1992,1.0184,0.2415
2.2630,-0.1975,1.0091,0.2507
2.2830,-0.1975,1.0091,0.2507
2.2830,-0.1975,1.0091,0.2507
2.2840,-0.1975,1.0091,0.2507
2.2870,-0.1980,1.0064,0.2537
2.2880,-0.1980,1.0064,0.2537
2.3100,-0.1980,1.0064,0.2537
2.3110,-0.1980,1.0064,0.2537
2.3120,-0.1980,1.0064,0.2537
2.3120,-0.2094,1.0137,0.2488
2.3400,-0.2094,1.0137,0.2488
2.3410,-0.2094,1.0137,0.2488
2.3420,-0.2094,1.0137,0.2488
2.3430,-0.2192,1.0147,0.2322
2.3440,-0.2148,1.0157,0.2336
2.3590,-0.2148,1.0157,0.2336
2.3600,-0.2148,1.0157,0.2336
2.3610,-0.2148,1.0157,0.2336
2.3610,-0.1950,1.0037,0.2380
2.3620,-0.1950,1.0037,0.2380
2.3900,-0.1950,1.0037,0.2380
2.3910,-0.1950,1.0037,0.2380
2.3910,-0.1950,1.0037,0.2380
2.3920,-0.1970,0.9988,0.2661
2.4230,-0.1970,0.9988,0.2661
2.4240,-0.1970,0.9988,0.2661
2.4250,-0.1970,0.9988,0.2661
2.4270,-0.2151,1.0196,0.2529
2.4280,-0.2138,1.0252,0.2224
2.4300,-0.2138,1.0252,0.2224
2.4430,-0.2138,1.0252,0.2224
2.4440,-0.2138,1.0252,0.2224
2.4450,-0.2138,1.0252,0.2224
2.4460,-0.1992,1.0096,0.2388
2.4470,-0.1992,1.0096,0.2388
2.4710,-0.1992,1.0096,0.2388
2.4730,-0.1992,1.0096,0.2388
2.4740,-0.1992,1.0096,0.2388
2.4740,-0.1911,1.0018,0.2542
2.5000,-0.1911,1.0018,0.2542
2.5040,-0.1911,1.0018,0.2542
2.5050,-0.1911,1.0018,0.2542
2.5050,-0.2092,1.0142,0.2344
2.5060,-0.2226,1.0233,0.2261
2.5200,-0.2226,1.0233,0.2261
2.5200,-0.2226,1.0233,0.2261
2.5210,-0.2226,1.0233,0.2261
2.5220,-0.2082,1.0081,0.2478
2.5230,-0.2082,1.0081,0.2478
2.5530,-0.2082,1.0081,0.2478
2.5540,-0.2082,1.0081,0.2478
2.5550,-0.2082,1.0081,0.2478
2.5560,-0.1936,0.9969,0.2593
2.5840,-0.1936,0.9969,0.2593
2.5850,-0.1936,0.9969,0.2593
2.5870,-0.1936,0.9969,0.2593
2.5870,-0.2021,1.0101,0.2388
2.5880,-0.2143,1.0167,0.2317
2.6020,-0.2143,1.0167,0.2317
2.6030,-0.2143,1.0167,0.2317
2.6040,-0.2143,1.0167,0.2317
2.6050,-0.2028,1.0176,0.2466
2.6050,-0.2028,1.0176,0.2466
2.6310,-0.2028,1.0176,0.2466
2.6320,-0.2028,1.0176,0.2466
2.6330,-0.2028,1.0176,0.2466
2.6340,-0.1904,1.0091,0.2520
2.6360,-0.1904,1.0091,0.2520
2.6600,-0.1904,1.0091,0.2520
2.6610,-0.1904,1.0091,0.2520
2.6610,-0.1904,1.0091,0.2520
2.6620,-0.2011,1.0120,0.2346
2.6620,-0.2170,1.0106,0.2322
2.6800,-0.2170,1.0106,0.2322
2.6810,-0.2170,1.0106,0.2322
2.6810,-0.2170,1.0106,0.2322
2.6810,-0.2156,1.0054,0.2419
2.6820,-0.2156,1.0054,0.2419
2.7080,-0.2156,1.0054,0.2419
2.7090,-0.2156,1.0054,0.2419
2.7090,-0.2156,1.0054,0.2419
2.7110,-0.1970,1.0086,0.2424
2.7380,-0.1970,1.0086,0.2424
2.7380,-0.1970,1.0086,0.2424
2.7460,-0.1970,1.0086,0.2424
2.7470,-0.1933,1.0128,0.2466
2.7470,-0.2075,1.0159,0.2329
2.7590,-0.2075,1.0159,0.2329
2.7600,-0.2075,1.0159,0.2329
2.7600,-0.2075,1.0159,0.2329
2.7610,-0.2131,1.0159,0.2412
2.7610,-0.2131,1.0159,0.2412
2.7880,-0.2131,1.0159,0.2412
2.7880,-0.2131,1.0159,0.2412
2.7880,-0.2131,1.0159,0.2412
2.7890,-0.1945,1.0208,0.2432
2.8180,-0.1945,1.0208,0.2432
2.8180,-0.1945,1.0208,0.2432
2.8180,-0.1945,1.0208,0.2432
2.8200,-0.1899,1.0079,0.2463
2.8200,-0.1992,1.0000,0.2459
2.8280,-0.1992,1.0000,0.2459
2.8380,-0.1992,1.0000,0.2459
2.8390,-0.1992,1.0000,0.2459
2.8390,-0.1992,1.0000,0.2459
2.8400,-0.2163,1.0106,0.2314
2.8400,-0.2163,1.0106,0.2314
2.8680,-0.2163,1.0106,0.2314
2.8680,-0.2163,1.0106,0.2314
2.8680,-0.2163,1.0106,0.2314
2.8690,-0.2190,1.0172,0.2356
2.8990,-0.2190,1.0172,0.2356
2.8990,-0.2190,1.0172,0.2356
2.9000,-0.2190,1.0172,0.2356
2.9000,-0.2121,1.0084,0.2366
2.9000,-0.2126,1.0008,0.2417
2.9180,-0.2126,1.0008,0.2417
2.9190,-0.2126,1.0008,0.2417
2.9190,-0.2126,1.0008,0.2417
2.9200,-0.2226,1.0101,0.2471
2.9200,-0.2226,1.0101,0.2471
2.9480,-0.2226,1.0101,0.2471
2.9480,-0.2226,1.0101,0.2471
2.9490,-0.2226,1.0101,0.2471
2.9490,-0.2212,1.0184,0.2312
2.9780,-0.2212,1.0184,0.2312
2.9780,-0.2212,1.0184,0.2312
2.9780,-0.2212,1.0184,0.2312
2.9790,-0.2187,1.0113,0.2432
2.9790,-0.2090,1.0042,0.2463
2.9990,-0.2090,1.0042,0.2463
3.0000,-0.2090,1.0042,0.2463
3.0000,-0.2090,1.0042,0.2463
3.0000,-0.2112,1.0084,0.2405
3.0000,-0.2112,1.0084,0.2405
3.0270,-0.2112,1.0084,0.2405
3.0320,-0.2112,1.0084,0.2405
3.0320,-0.2112,1.0084,0.2405
3.0320,-0.2112,1.0084,0.2405
3.0330,-0.2265,1.0115,0.2322
3.0600,-0.2265,1.0115,0.2322
3.0600,-0.2265,1.0115,0.2322
3.0610,-0.2265,1.0115,0.2322
3.0610,-0.2322,1.0069,0.2395
3.0610,-0.2258,0.9961,0.2412
3.0790,-0.2258,0.9961,0.2412
3.0800,-0.2258,0.9961,0.2412
3.0800,-0.2258,0.9961,0.2412
3.0800,-0.2180,0.9974,0.2478
3.0800,-0.2180,0.9974,0.2478
3.1090,-0.2180,0.9974,0.2478
3.1090,-0.2180,0.9974,0.2478
3.1100,-0.2180,0.9974,0.2478
3.1110,-0.2146,1.0044,0.2451
3.1390,-0.2146,1.0044,0.2451
3.1390,-0.2146,1.0044,0.2451
3.1390,-0.2146,1.0044,0.2451
3.1400,-0.2085,1.0088,0.2564
3.1400,-0.1982,1.0128,0.2576
3.1580,-0.1982,1.0128,0.2576
3.1590,-0.1982,1.0128,0.2576
3.1600,-0.1982,1.0128,0.2576
3.1600,-0.1999,1.0140,0.2341
3.1600,-0.1999,1.0140,0.2341
3.1880,-0.1999,1.0140,0.2341
3.1890,-0.1999,1.0140,0.2341
3.1890,-0.1999,1.0140,0.2341
3.1890,-0.2050,1.0140,0.2253
3.2180,-0.2050,1.0140,0.2253
3.2180,-0.2050,1.0140,0.2253
3.2190,-0.2050,1.0140,0.2253
3.2190,-0.2134,1.0096,0.2432
3.2190,-0.2158,1.0025,0.2571
3.2270,-0.2158,1.0025,0.2571
3.2320,-0.2158,1.0025,0.2571
3.2390,-0.2158,1.0025,0.2571
3.2400,-0.2158,1.0025,0.2571
3.2400,-0.2158,1.0025,0.2571
3.2400,-0.2192,1.0040,0.2439
3.2400,-0.2192,1.0040,0.2439
3.2680,-0.2192,1.0040,0.2439
3.2690,-0.2192,1.0040,0.2439
3.2690,-0.2192,1.0040,0.2439
3.2700,-0.2273,1.0123,0.2461
3.2990,-0.2273,1.0123,0.2461
3.2990,-0.2273,1.0123,0.2461
3.2990,-0.2273,1.0123,0.2461
3.3000,-0.2265,1.0220,0.2456
3.3000,-0.2168,1.0123,0.2373
3.3190,-0.2168,1.0123,0.2373
3.3210,-0.2168,1.0123,0.2373
3.3210,-0.2168,1.0123,0.2373
3.3210,-0.2080,0.9998,0.2439
3.3220,-0.2080,0.9998,0.2439
3.3480,-0.2080,0.9998,0.2439
3.3480,-0.2080,0.9998,0.2439
3.3490,-0.2080,0.9998,0.2439
3.3490,-0.2112,1.0079,0.2427
3.3780,-0.2112,1.0079,0.2427
3.3790,-0.2112,1.0079,0.2427
3.3790,-0.2112,1.0079,0.2427
3.3800,-0.2143,1.0162,0.2402
3.3800,-0.2094,1.0079,0.2385
3.3990,-0.2094,1.0079,0.2385
3.4000,-0.2094,1.0079,0.2385
3.4000,-0.2094,1.0079,0.2385
3.4010,-0.1977,1.0027,0.2397
3.4010,-0.1977,1.0027,0.2397
3.4320,-0.1977,1.0027,0.2397
3.4330,-0.1977,1.0027,0.2397
3.4330,-0.1977,1.0027,0.2397
3.4330,-0.1977,1.0027,0.2397
3.4340,-0.1984,1.0081,0.2451
3.4340,-0.1984,1.0081,0.2451
3.4590,-0.1984,1.0081,0.2451
3.4590,-0.1984,1.0081,0.2451
3.4590,-0.1984,1.0081,0.2451
3.4590,-0.2080,1.0115,0.2441
3.4600,-0.2170,1.0110,0.2400
3.4800,-0.2170,1.0110,0.2400
3.4810,-0.2170,1.0110,0.2400
3.4820,-0.2170,1.0110,0.2400
3.4820,-0.2168,1.0142,0.2424
3.4820,-0.2168,1.0142,0.2424
3.5090,-0.2168,1.0142,0.2424
3.5090,-0.2168,1.0142,0.2424
3.5100,-0.2168,1.0142,0.2424
3.5100,-0.2119,1.0088,0.2417
3.5380,-0.2119,1.0088,0.2417
3.5390,-0.2119,1.0088,0.2417
3.5390,-0.2119,1.0088,0.2417
3.5390,-0.2138,0.9983,0.2481
3.5400,-0.2207,1.0088,0.2461
3.5590,-0.2207,1.0088,0.2461
3.5600,-0.2207,1.0088,0.2461
3.5600,-0.2207,1.0088,0.2461
3.5600,-0.2258,1.0152,0.2356
3.5600,-0.2258,1.0152,0.2356
3.5890,-0.2258,1.0152,0.2356
3.5900,-0.2258,1.0152,0.2356
3.5900,-0.2258,1.0152,0.2356
3.5910,-0.2258,1.0064,0.2395
3.6190,-0.2258,1.0064,0.2395
3.6190,-0.2258,1.0064,0.2395
3.6200,-0.2258,1.0064,0.2395
3.6210,-0.2265,1.0057,0.2461
3.6210,-0.2243,1.0091,0.2419
3.6280,-0.2243,1.0091,0.2419
3.6310,-0.2243,1.0091,0.2419
3.6390,-0.2243,1.0091,0.2419
3.6400,-0.2243,1.0091,0.2419
3.6400,-0.2243,1.0091,0.2419
3.6400,-0.2099,1.0081,0.2461
3.6410,-0.2099,1.0081,0.2461
3.6700,-0.2099,1.0081,0.2461
3.6700,-0.2099,1.0081,0.2461
3.6710,-0.2099,1.0081,0.2461
3.6710,-0.2009,1.0066,0.2534
3.6990,-0.2009,1.0066,0.2534
3.6990,-0.2009,1.0066,0.2534
3.6990,-0.2009,1.0066,0.2534
3.7000,-0.2094,1.0062,0.2547
3.7000,-0.2131,1.0115,0.2490
3.7190,-0.2131,1.0115,0.2490
3.7200,-0.2131,1.0115,0.2490
3.7200,-0.2131,1.0115,0.2490
3.7210,-0.2165,1.0147,0.2341
3.7210,-0.2165,1.0147,0.2341
3.7490,-0.2165,1.0147,0.2341
3.7490,-0.2165,1.0147,0.2341
3.7490,-0.2165,1.0147,0.2341
3.7500,-0.2063,1.0106,0.2393
3.7790,-0.2063,1.0106,0.2393
3.7800,-0.2063,1.0106,0.2393
3.7810,-0.2063,1.0106,0.2393
3.7810,-0.2163,1.0110,0.2493
3.7810,-0.2204,1.0145,0.2468
3.7990,-0.2204,1.0145,0.2468
3.8010,-0.2204,1.0145,0.2468
3.8010,-0.2204,1.0145,0.2468
3.8010,-0.2121,1.0113,0.2466
3.8020,-0.2121,1.0113,0.2466
3.8280,-0.2121,1.0113,0.2466
3.8320,-0.2121,1.0113,0.2466
3.8420,-0.2121,1.0113,0.2466
3.8420,-0.2121,1.0113,0.2466
3.8430,-0.2138,1.0008,0.2485
3.8430,-0.2138,1.0008,0.2485
3.8590,-0.2138,1.0008,0.2485
3.8600,-0.2138,1.0008,0.2485
3.8600,-0.2138,1.0008,0.2485
3.8600,-0.2246,0.9996,0.2415
3.8600,-0.2297,1.0079,0.2283
3.8800,-0.2297,1.0079,0.2283
3.8810,-0.2297,1.0079,0.2283
3.8820,-0.2297,1.0079,0.2283
3.8820,-0.2268,1.0066,0.2327
3.8830,-0.2268,1.0066,0.2327
3.9090,-0.2268,1.0066,0.2327
3.9090,-0.2268,1.0066,0.2327
3.9100,-0.2268,1.0066,0.2327
3.9100,-0.2173,1.0076,0.2437
3.9390,-0.2173,1.0076,0.2437
3.9390,-0.2173,1.0076,0.2437
3.9400,-0.2173,1.0076,0.2437
3.9400,-0.2094,1.0154,0.2463
3.9400,-0.2038,1.0005,0.2483
3.9590,-0.2038,1.0005,0.2483
3.9610,-0.2038,1.0005,0.2483
3.9610,-0.2038,1.0005,0.2483
3.9610,-0.2148,0.9922,0.2529
3.9630,-0.2148,0.9922,0.2529
3.9900,-0.2148,0.9922,0.2529
3.9900,-0.2148,0.9922,0.2529
3.9900,-0.2148,0.9922,0.2529
3.9910,-0.2317,1.0172,0.2439
4.0200,-0.2317,1.0172,0.2439
4.0200,-0.2317,1.0172,0.2439
4.0200,-0.2317,1.0172,0.2439
4.0210,-0.2212,1.0352,0.2324
4.0210,-0.2024,1.0147,0.2466
4.0280,-0.2024,1.0147,0.2466
4.0310,-0.2024,1.0147,0.2466
4.0400,-0.2024,1.0147,0.2466
4.0410,-0.2024,1.0147,0.2466
4.0410,-0.2024,1.0147,0.2466
4.0410,-0.2129,0.9898,0.2571
4.0410,-0.2129,0.9898,0.2571
4.0700,-0.2129,0.9898,0.2571
4.0700,-0.2129,0.9898,0.2571
4.0710,-0.2129,0.9898,0.2571
4.0710,-0.2256,0.9959,0.2503
4.0990,-0.2256,0.9959,0.2503
4.0990,-0.2256,0.9959,0.2503
4.0990,-0.2256,0.9959,0.2503
4.1000,-0.2312,1.0174,0.2356
4.1000,-0.2138,1.0106,0.2510
4.1190,-0.2138,1.0106,0.2510
4.1210,-0.2138,1.0106,0.2510
4.1210,-0.2138,1.0106,0.2510
4.1210,-0.1982,0.9915,0.2688
4.1220,-0.1982,0.9915,0.2688
4.1510,-0.1982,0.9915,0.2688
4.1510,-0.1982,0.9915,0.2688
4.1510,-0.1982,0.9915,0.2688
4.1510,-0.1989,1.0064,0.2537
4.1800,-0.1989,1.0064,0.2537
4.1800,-0.1989,1.0064,0.2537
4.1810,-0.1989,1.0064,0.2537
4.1810,-0.2180,1.0250,0.2204
4.1810,-0.2278,1.0120,0.2424
4.2000,-0.2278,1.0120,0.2424
4.2000,-0.2278,1.0120,0.2424
4.2010,-0.2278,1.0120,0.2424
4.2010,-0.2126,0.9949,0.2754
4.2010,-0.2126,0.9949,0.2754
4.2320,-0.2126,0.9949,0.2754
4.2320,-0.2126,0.9949,0.2754
4.2320,-0.2126,0.9949,0.2754
4.2330,-0.2126,0.9949,0.2754
4.2330,-0.1984,1.0008,0.2500
4.2330,-0.1984,1.0008,0.2500
4.2600,-0.1984,1.0008,0.2500
4.2610,-0.1984,1.0008,0.2500
4.2610,-0.1984,1.0008,0.2500
4.2610,-0.2190,1.0086,0.2283
4.2620,-0.2344,1.0172,0.2351
4.2810,-0.2344,1.0172,0.2351
4.2810,-0.2344,1.0172,0.2351
4.2810,-0.2344,1.0172,0.2351
4.2820,-0.2219,1.0096,0.2510
4.2820,-0.2219,1.0096,0.2510
4.3100,-0.2219,1.0096,0.2510
4.3100,-0.2219,1.0096,0.2510
4.3100,-0.2219,1.0096,0.2510
4.3110,-0.2080,0.9974,0.2610
4.3400,-0.2080,0.9974,0.2610
4.3400,-0.2080,0.9974,0.2610
4.3400,-0.2080,0.9974,0.2610
4.3440,-0.2182,0.9996,0.2410
4.3440,-0.2263,1.0150,0.2226
4.3600,-0.2263,1.0150,0.2226
4.3610,-0.2263,1.0150,0.2226
4.3610,-0.2263,1.0150,0.2226
4.3680,-0.2099,1.0181,0.2366
4.3690,-0.2099,1.0181,0.2366
4.3920,-0.2099,1.0181,0.2366
4.3920,-0.2099,1.0181,0.2366
4.3920,-0.2099,1.0181,0.2366
4.3920,-0.1960,1.0081,0.2561
4.4210,-0.1960,1.0081,0.2561
4.4220,-0.1960,1.0081,0.2561
4.4220,-0.1960,1.0081,0.2561
4.4220,-0.2082,1.0018,0.2517
4.4220,-0.2239,1.0047,0.2334
4.4280,-0.2239,1.0047,0.2334
4.4320,-0.2239,1.0047,0.2334
4.4410,-0.2239,1.0047,0.2334
4.4420,-0.2239,1.0047,0.2334
4.4420,-0.2239,1.0047,0.2334
4.4420,-0.2278,1.0137,0.2353
4.4420,-0.2278,1.0137,0.2353
4.4710,-0.2278,1.0137,0.2353
4.4710,-0.2278,1.0137,0.2353
4.4720,-0.2278,1.0137,0.2353
4.4720,-0.2068,1.0147,0.2537
4.5000,-0.2068,1.0147,0.2537
4.5010,-0.2068,1.0147,0.2537
4.5010,-0.2068,1.0147,0.2537
4.5010,-0.1928,1.0049,0.2725
4.5020,-0.2038,1.0008,0.2569
4.5210,-0.2038,1.0008,0.2569
4.5210,-0.2038,1.0008,0.2569
4.5220,-0.2038,1.0008,0.2569
4.5220,-0.2192,1.0118,0.2349
4.5220,-0.2192,1.0118,0.2349
4.5500,-0.2192,1.0118,0.2349
4.5520,-0.2192,1.0118,0.2349
4.5520,-0.2192,1.0118,0.2349
4.5520,-0.2226,1.0164,0.2358
4.5800,-0.2226,1.0164,0.2358
4.5810,-0.2226,1.0164,0.2358
4.5810,-0.2226,1.0164,0.2358
4.5810,-0.2102,1.0049,0.2507
4.5810,-0.2048,0.9978,0.2627
4.6000,-0.2048,0.9978,0.2627
4.6010,-0.2048,0.9978,0.2627
4.6010,-0.2048,0.9978,0.2627
4.6020,-0.2141,1.0096,0.2444
4.6020,-0.2141,1.0096,0.2444
4.6280,-0.2141,1.0096,0.2444
4.6320,-0.2141,1.0096,0.2444
4.6320,-0.2141,1.0096,0.2444
4.6320,-0.2141,1.0096,0.2444
4.6330,-0.2263,1.0193,0.2327
4.6330,-0.2263,1.0193,0.2327
4.6600,-0.2263,1.0193,0.2327
4.6610,-0.2263,1.0193,0.2327
4.6610,-0.2263,1.0193,0.2327
4.6610,-0.2187,1.0088,0.2493
4.6620,-0.2102,0.9974,0.2613
4.6800,-0.2102,0.9974,0.2613
4.6810,-0.2102,0.9974,0.2613
4.6820,-0.2102,0.9974,0.2613
4.6820,-0.2087,1.0057,0.2393
4.6820,-0.2087,1.0057,0.2393
4.7100,-0.2087,1.0057,0.2393
4.7100,-0.2087,1.0057,0.2393
4.7110,-0.2087,1.0057,0.2393
4.7110,-0.2075,1.0137,0.2373
4.7400,-0.2075,1.0137,0.2373
4.7400,-0.2075,1.0137,0.2373
4.7410,-0.2075,1.0137,0.2373
4.7410,-0.2050,1.0096,0.2566
4.7410,-0.1970,1.0201,0.2498
4.7600,-0.1970,1.0201,0.2498
4.7620,-0.1970,1.0201,0.2498
4.7620,-0.1970,1.0201,0.2498
4.7620,-0.1940,1.0181,0.2385
4.7620,-0.1940,1.0181,0.2385
4.7910,-0.1940,1.0181,0.2385
4.7910,-0.1940,1.0181,0.2385
4.7910,-0.1940,1.0181,0.2385
4.7910,-0.2004,1.0076,0.2454
4.8210,-0.2004,1.0076,0.2454
4.8210,-0.2004,1.0076,0.2454
4.8220,-0.2004,1.0076,0.2454
4.8220,-0.2151,1.0076,0.2529
4.8220,-0.2192,1.0172,0.2393
4.8280,-0.2192,1.0172,0.2393
4.8410,-0.2192,1.0172,0.2393
4.8420,-0.2192,1.0172,0.2393
4.8420,-0.2192,1.0172,0.2393
4.8420,-0.2075,1.0128,0.2397
4.8430,-0.2075,1.0128,0.2397
4.8710,-0.2075,1.0128,0.2397
4.8710,-0.2075,1.0128,0.2397
4.8720,-0.2075,1.0128,0.2397
4.8720,-0.2006,1.0035,0.2593
4.9010,-0.2006,1.0035,0.2593
4.9020,-0.2006,1.0035,0.2593
4.9020,-0.2006,1.0035,0.2593
4.9030,-0.2087,1.0062,0.2559
4.9030,-0.2204,1.0093,0.2380
4.9210,-0.2204,1.0093,0.2380
4.9220,-0.2204,1.0093,0.2380
4.9220,-0.2204,1.0093,0.2380
4.9220,-0.2202,1.0118,0.2324
4.9220,-0.2202,1.0118,0.2324
4.9510,-0.2202,1.0118,0.2324
4.9520,-0.2202,1.0118,0.2324
4.9520,-0.2202,1.0118,0.2324
4.9520,-0.2060,1.0088,0.2429
4.9800,-0.2060,1.0088,0.2429
4.9810,-0.2060,1.0088,0.2429
4.9810,-0.2060,1.0088,0.2429
4.9810,-0.1982,1.0062,0.2593
4.9820,-0.2090,1.0093,0.2415
5.0010,-0.2090,1.0093,0.2415
5.0020,-0.2090,1.0093,0.2415
5.0020,-0.2090,1.0093,0.2415
5.0030,-0.2239,1.0128,0.2378
5.0030,-0.2239,1.0128,0.2378
5.0290,-0.2239,1.0128,0.2378
5.0320,-0.2239,1.0128,0.2378
5.0320,-0.2239,1.0128,0.2378
5.0320,-0.2239,1.0128,0.2378
5.0330,-0.2209,1.0130,0.2441
5.0600,-0.2209,1.0130,0.2441
5.0610,-0.2209,1.0130,0.2441
5.0610,-0.2209,1.0130,0.2441
5.0610,-0.1997,1.0115,0.2503
5.0620,-0.2011,1.0015,0.2483
5.0820,-0.2011,1.0015,0.2483
5.0830,-0.2011,1.0015,0.2483
5.0830,-0.2011,1.0015,0.2483
5.0830,-0.2107,1.0091,0.2424
5.0840,-0.2107,1.0091,0.2424
5.1120,-0.2107,1.0091,0.2424
5.1120,-0.2107,1.0091,0.2424
5.1120,-0.2107,1.0091,0.2424
5.1130,-0.2109,1.0225,0.2336
5.1410,-0.2109,1.0225,0.2336
5.1420,-0.2109,1.0225,0.2336
5.1420,-0.2109,1.0225,0.2336
5.1430,-0.2126,1.0069,0.2478
5.1430,-0.2168,1.0020,0.2527
5.1610,-0.2168,1.0020,0.2527
5.1620,-0.2168,1.0020,0.2527
5.1620,-0.2168,1.0020,0.2527
5.1620,-0.2195,1.0140,0.2363
5.1630,-0.2195,1.0140,0.2363
5.1920,-0.2195,1.0140,0.2363
5.1920,-0.2195,1.0140,0.2363
5.1920,-0.2195,1.0140,0.2363
5.1930,-0.2168,1.0069,0.2407
5.2220,-0.2168,1.0069,0.2407
5.2220,-0.2168,1.0069,0.2407
5.2220,-0.2168,1.0069,0.2407
5.2230,-0.2063,0.9993,0.2517
5.2230,-0.2036,1.0128,0.2422
5.2300,-0.2036,1.0128,0.2422
5.2420,-0.2036,1.0128,0.2422
5.2430,-0.2036,1.0128,0.2422
5.2440,-0.2036,1.0128,0.2422
5.2440,-0.2024,1.0255,0.2419
5.2440,-0.2024,1.0255,0.2419
5.2740,-0.2024,1.0255,0.2419
5.2740,-0.2024,1.0255,0.2419
5.2740,-0.2024,1.0255,0.2419
5.2750,-0.1955,1.0113,0.2493
5.3020,-0.1955,1.0113,0.2493
5.3030,-0.1955,1.0113,0.2493
5.3030,-0.1955,1.0113,0.2493
5.3030,-0.1982,0.9991,0.2454
5.3040,-0.2146,1.0096,0.2405
5.3240,-0.2146,1.0096,0.2405
5.3240,-0.2146,1.0096,0.2405
5.3240,-0.2146,1.0096,0.2405
5.3250,-0.2222,1.0152,0.2351
5.3250,-0.2222,1.0152,0.2351
5.3520,-0.2222,1.0152,0.2351
5.3530,-0.2222,1.0152,0.2351
5.3530,-0.2222,1.0152,0.2351
5.3530,-0.2153,1.0179,0.2471
5.3820,-0.2153,1.0179,0.2471
5.3830,-0.2153,1.0179,0.2471
5.3830,-0.2153,1.0179,0.2471
5.3840,-0.2065,1.0110,0.2434
5.3840,-0.2102,1.0062,0.2444
5.4020,-0.2102,1.0062,0.2444
5.4030,-0.2102,1.0062,0.2444
5.4030,-0.2102,1.0062,0.2444
5.4040,-0.2239,1.0047,0.2498
5.4040,-0.2239,1.0047,0.2498
5.4290,-0.2239,1.0047,0.2498
5.4330,-0.2239,1.0047,0.2498
5.4330,-0.2239,1.0047,0.2498
5.4330,-0.2239,1.0047,0.2498
5.4340,-0.2268,1.0108,0.2434
5.4610,-0.2268,1.0108,0.2434
5.4610,-0.2268,1.0108,0.2434
5.4620,-0.2268,1.0108,0.2434
5.4620,-0.2195,1.0108,0.2405
5.4670,-0.2048,1.0042,0.2542
5.4820,-0.2048,1.0042,0.2542
5.4830,-0.2048,1.0042,0.2542
5.4830,-0.2048,1.0042,0.2542
5.4830,-0.2087,0.9947,0.2429
5.4830,-0.2087,0.9947,0.2429
5.5110,-0.2087,0.9947,0.2429
5.5110,-0.2087,0.9947,0.2429
5.5120,-0.2087,0.9947,0.2429
5.5120,-0.2217,1.0071,0.2427
5.5410,-0.2217,1.0071,0.2427
5.5410,-0.2217,1.0071,0.2427
5.5420,-0.2217,1.0071,0.2427
5.5420,-0.2202,1.0198,0.2459
5.5420,-0.2085,1.0106,0.2375
5.5620,-0.2085,1.0106,0.2375
5.5630,-0.2085,1.0106,0.2375
5.5630,-0.2085,1.0106,0.2375
5.5630,-0.1999,0.9937,0.2520
5.5630,-0.1999,0.9937,0.2520
5.5910,-0.1999,0.9937,0.2520
5.5920,-0.1999,0.9937,0.2520
5.5920,-0.1999,0.9937,0.2520
5.5920,-0.2136,1.0096,0.2473
5.6210,-0.2136,1.0096,0.2473
5.6220,-0.2136,1.0096,0.2473
5.6220,-0.2136,1.0096,0.2473
5.6230,-0.2285,1.0286,0.2353
5.6230,-0.2268,1.0042,0.2534
5.6280,-0.2268,1.0042,0.2534
5.6420,-0.2268,1.0042,0.2534
5.6430,-0.2268,1.0042,0.2534
5.6430,-0.2268,1.0042,0.2534
5.6430,-0.2185,0.9934,0.2532
5.6430,-0.2185,0.9934,0.2532
5.6730,-0.2185,0.9934,0.2532
5.6730,-0.2185,0.9934,0.2532
5.6730,-0.2185,0.9934,0.2532
5.6730,-0.2165,1.0088,0.2327
5.7030,-0.2165,1.0088,0.2327
5.7030,-0.2165,1.0088,0.2327
5.7040,-0.2165,1.0088,0.2327
5.7040,-0.2173,1.0152,0.2358
5.7040,-0.2138,1.0079,0.2591
5.7230,-0.2138,1.0079,0.2591
5.7230,-0.2138,1.0079,0.2591
5.7230,-0.2138,1.0079,0.2591
5.7230,-0.2085,1.0040,0.2583
5.7230,-0.2085,1.0040,0.2583
5.7510,-0.2085,1.0040,0.2583
5.7520,-0.2085,1.0040,0.2583
5.7520,-0.2085,1.0040,0.2583
5.7520,-0.2041,1.0115,0.2417
5.7830,-0.2041,1.0115,0.2417
5.7840,-0.2041,1.0115,0.2417
5.7840,-0.2041,1.0115,0.2417
5.7840,-0.2031,1.0137,0.2265
5.7850,-0.2112,1.0025,0.2395
5.8030,-0.2112,1.0025,0.2395
5.8030,-0.2112,1.0025,0.2395
5.8030,-0.2112,1.0025,0.2395
5.8040,-0.2229,0.9942,0.2608
5.8040,-0.2229,0.9942,0.2608
5.8290,-0.2229,0.9942,0.2608
5.8350,-0.2229,0.9942,0.2608
5.8350,-0.2229,0.9942,0.2608
5.8350,-0.2229,0.9942,0.2608
5.8360,-0.2241,1.0110,0.2539
5.8620,-0.2241,1.0110,0.2539
5.8620,-0.2241,1.0110,0.2539
5.8630,-0.2241,1.0110,0.2539
5.8630,-0.2212,1.0230,0.2366
5.8630,-0.2153,1.0037,0.2380
5.8830,-0.2153,1.0037,0.2380
5.8840,-0.2153,1.0037,0.2380
5.8840,-0.2153,1.0037,0.2380
5.8840,-0.2082,0.9876,0.2686
5.8840,-0.2082,0.9876,0.2686
5.9140,-0.2082,0.9876,0.2686
5.9150,-0.2082,0.9876,0.2686
5.9160,-0.2082,0.9876,0.2686
5.9170,-0.2114,1.0049,0.2498
5.9440,-0.2114,1.0049,0.2498
5.9450,-0.2114,1.0049,0.2498
5.9460,-0.2114,1.0049,0.2498
5.9460,-0.2153,1.0255,0.2336
5.9470,-0.2075,1.0218,0.2429
5.9650,-0.2075,1.0218,0.2429
5.9660,-0.2075,1.0218,0.2429
5.9660,-0.2075,1.0218,0.2429
5.9670,-0.2077,1.0049,0.2586
5.9680,-0.2077,1.0049,0.2586
5.9960,-0.2077,1.0049,0.2586
5.9980,-0.2077,1.0049,0.2586
6.0000,-0.2077,1.0049,0.2586
6.0000,-0.2126,1.0030,0.2520
6.0240,-0.2126,1.0030,0.2520
6.0250,-0.2126,1.0030,0.2520
6.0250,-0.2126,1.0030,0.2520
6.0260,-0.2099,1.0103,0.2405
6.0660,-0.2097,1.0040,0.2415
6.0670,-0.2097,1.0040,0.2415
6.0670,-0.2097,1.0040,0.2415
6.0670,-0.2097,1.0040,0.2415
6.0680,-0.2097,1.0040,0.2415
6.0680,-0.2153,1.0003,0.2478
6.0690,-0.2153,1.0003,0.2478
6.0730,-0.2153,1.0003,0.2478
6.0730,-0.2153,1.0003,0.2478
6.0740,-0.2153,1.0003,0.2478
6.0740,-0.2138,1.0101,0.2471
6.1020,-0.2138,1.0101,0.2471
6.1020,-0.2138,1.0101,0.2471
6.1020,-0.2138,1.0101,0.2471
6.1030,-0.2112,1.0150,0.2446
6.1030,-0.2070,1.0096,0.2449
6.1220,-0.2070,1.0096,0.2449
6.1230,-0.2070,1.0096,0.2449
6.1240,-0.2070,1.0096,0.2449
6.1240,-0.2036,1.0120,0.2517
6.1240,-0.2036,1.0120,0.2517
6.1520,-0.2036,1.0120,0.2517
6.1530,-0.2036,1.0120,0.2517
6.1530,-0.2036,1.0120,0.2517
6.1540,-0.2077,1.0044,0.2520
6.1820,-0.2077,1.0044,0.2520
6.1830,-0.2077,1.0044,0.2520
6.1830,-0.2077,1.0044,0.2520
6.1830,-0.2097,1.0098,0.2483
6.1840,-0.2156,1.0154,0.2429
6.2030,-0.2156,1.0154,0.2429
6.2030,-0.2156,1.0154,0.2429
6.2040,-0.2156,1.0154,0.2429
6.2040,-0.2165,1.0052,0.2444
6.2040,-0.2165,1.0052,0.2444
6.2290,-0.2165,1.0052,0.2444
6.2320,-0.2165,1.0052,0.2444
6.2350,-0.2165,1.0052,0.2444
6.2360,-0.2165,1.0052,0.2444
6.2360,-0.2165,1.0052,0.2444
6.2360,-0.2126,1.0015,0.2544
6.2640,-0.2126,1.0015,0.2544
6.2640,-0.2126,1.0015,0.2544
6.2650,-0.2126,1.0015,0.2544
6.2650,-0.2031,1.0184,0.2473
6.2650,-0.2004,1.0172,0.2461
6.2840,-0.2004,1.0172,0.2461
6.2840,-0.2004,1.0172,0.2461
6.2840,-0.2004,1.0172,0.2461
6.2850,-0.2065,1.0047,0.2525
6.2850,-0.2065,1.0047,0.2525
6.3130,-0.2065,1.0047,0.2525
6.3130,-0.2065,1.0047,0.2525
6.3130,-0.2065,1.0047,0.2525
6.3130,-0.2197,1.0098,0.2510
6.3420,-0.2197,1.0098,0.2510
6.3430,-0.2197,1.0098,0.2510
6.3430,-0.2197,1.0098,0.2510
6.3440,-0.2173,1.0150,0.2400
6.3450,-0.2048,1.0108,0.2419
6.3630,-0.2048,1.0108,0.2419
6.3690,-0.2048,1.0108,0.2419
6.3690,-0.2048,1.0108,0.2419
6.3690,-0.1999,1.0015,0.2527
6.3700,-0.1999,1.0015,0.2527
6.3920,-0.1999,1.0015,0.2527
6.3920,-0.1999,1.0015,0.2527
6.3920,-0.1999,1.0015,0.2527
6.3930,-0.2021,1.0049,0.2485
6.4220,-0.2021,1.0049,0.2485
6.4220,-0.2021,1.0049,0.2485
6.4230,-0.2021,1.0049,0.2485
6.4230,-0.2209,1.0113,0.2434
6.4230,-0.2229,1.0049,0.2515
6.4270,-0.2229,1.0049,0.2515
6.4430,-0.2229,1.0049,0.2515
6.4440,-0.2229,1.0049,0.2515
6.4440,-0.2229,1.0049,0.2515
6.4440,-0.2053,1.0079,0.2441
6.4440,-0.2053,1.0079,0.2441
6.4720,-0.2053,1.0079,0.2441
6.4720,-0.2053,1.0079,0.2441
6.4730,-0.2053,1.0079,0.2441
6.4730,-0.2036,1.0140,0.2339
6.5030,-0.2036,1.0140,0.2339
6.5030,-0.2036,1.0140,0.2339
6.5030,-0.2036,1.0140,0.2339
6.5040,-0.2163,1.0069,0.2463
6.5040,-0.2226,1.0003,0.2542
6.5230,-0.2226,1.0003,0.2542
6.5240,-0.2226,1.0003,0.2542
6.5240,-0.2226,1.0003,0.2542
6.5240,-0.2195,1.0110,0.2473
6.5250,-0.2195,1.0110,0.2473
6.5520,-0.2195,1.0110,0.2473
6.5520,-0.2195,1.0110,0.2473
6.5520,-0.2195,1.0110,0.2473
6.5530,-0.2146,1.0084,0.2397
6.5820,-0.2146,1.0084,0.2397
6.5820,-0.2146,1.0084,0.2397
6.5890,-0.2146,1.0084,0.2397
6.5890,-0.2134,1.0074,0.2495
6.5890,-0.2119,1.0091,0.2473
6.6030,-0.2119,1.0091,0.2473
6.6040,-0.2119,1.0091,0.2473
6.6040,-0.2119,1.0091,0.2473
6.6040,-0.2041,1.0162,0.2417
6.6040,-0.2041,1.0162,0.2417
6.6310,-0.2041,1.0162,0.2417
6.6340,-0.2041,1.0162,0.2417
6.6340,-0.2041,1.0162,0.2417
6.6340,-0.2041,1.0162,0.2417
6.6340,-0.2033,1.0098,0.2473
6.6620,-0.2033,1.0098,0.2473
6.6630,-0.2033,1.0098,0.2473
6.6630,-0.2033,1.0098,0.2473
6.6630,-0.2148,0.9971,0.2468
6.6630,-0.2217,1.0032,0.2456
6.6840,-0.2217,1.0032,0.2456
6.6850,-0.2217,1.0032,0.2456
6.6860,-0.2217,1.0032,0.2456
6.6860,-0.2131,1.0186,0.2476
6.6870,-0.2131,1.0186,0.2476
6.7120,-0.2131,1.0186,0.2476
6.7120,-0.2131,1.0186,0.2476
6.7130,-0.2131,1.0186,0.2476
6.7140,-0.2004,1.0125,0.2427
6.7430,-0.2004,1.0125,0.2427
6.7440,-0.2004,1.0125,0.2427
6.7440,-0.2004,1.0125,0.2427
6.7440,-0.2068,1.0052,0.2517
6.7440,-0.2175,1.0066,0.2544
6.7640,-0.2175,1.0066,0.2544
6.7640,-0.2175,1.0066,0.2544
6.7650,-0.2175,1.0066,0.2544
6.7650,-0.2185,1.0047,0.2424
6.7650,-0.2185,1.0047,0.2424
6.7930,-0.2185,1.0047,0.2424
6.7940,-0.2185,1.0047,0.2424
6.7940,-0.2185,1.0047,0.2424
6.7940,-0.2187,1.0054,0.2459
6.8240,-0.2187,1.0054,0.2459
6.8250,-0.2187,1.0054,0.2459
6.8250,-0.2187,1.0054,0.2459
6.8260,-0.2160,1.0098,0.2454
6.8270,-0.2148,1.0071,0.2380
6.8290,-0.2148,1.0071,0.2380
6.8450,-0.2148,1.0071,0.2380
6.8460,-0.2148,1.0071,0.2380
6.8460,-0.2148,1.0071,0.2380
6.8470,-0.2087,1.0018,0.2507
6.8470,-0.2087,1.0018,0.2507
6.8740,-0.2087,1.0018,0.2507
6.8750,-0.2087,1.0018,0.2507
6.8760,-0.2087,1.0018,0.2507
6.8770,-0.2109,1.0103,0.2559
6.9060,-0.2109,1.0103,0.2559
6.9060,-0.2109,1.0103,0.2559
6.9070,-0.2109,1.0103,0.2559
6.9070,-0.2109,1.0164,0.2478
6.9080,-0.2085,1.0115,0.2363
6.9250,-0.2085,1.0115,0.2363
6.9260,-0.2085,1.0115,0.2363
6.9270,-0.2085,1.0115,0.2363
6.9280,-0.2053,1.0054,0.2375
6.9290,-0.2053,1.0054,0.2375
6.9540,-0.2053,1.0054,0.2375
6.9560,-0.2053,1.0054,0.2375
6.9570,-0.2053,1.0054,0.2375
6.9580,-0.2087,0.9998,0.2544
6.9850,-0.2087,0.9998,0.2544
6.9860,-0.2087,0.9998,0.2544
6.9870,-0.2087,0.9998,0.2544
6.9880,-0.2153,1.0193,0.2485
6.9890,-0.2165,1.0172,0.2331
7.0060,-0.2165,1.0172,0.2331
7.0070,-0.2165,1.0172,0.2331
7.0070,-0.2165,1.0172,0.2331
7.0090,-0.2107,1.0049,0.2571
7.0090,-0.2107,1.0049,0.2571
7.0290,-0.2107,1.0049,0.2571
7.0360,-0.2107,1.0049,0.2571
7.0390,-0.2107,1.0049,0.2571
7.0400,-0.2107,1.0049,0.2571
7.0420,-0.2107,1.0052,0.2588
7.0650,-0.2107,1.0052,0.2588
7.0660,-0.2107,1.0052,0.2588
7.0660,-0.2107,1.0052,0.2588
7.0670,-0.2185,1.0042,0.2361
7.0670,-0.2151,0.9996,0.2393
7.0860,-0.2151,0.9996,0.2393
7.0870,-0.2151,0.9996,0.2393
7.0880,-0.2151,0.9996,0.2393
7.0890,-0.2041,1.0086,0.2476
7.0900,-0.2041,1.0086,0.2476
7.1150,-0.2041,1.0086,0.2476
7.1160,-0.2041,1.0086,0.2476
7.1160,-0.2041,1.0086,0.2476
7.1170,-0.2006,1.0215,0.2559
7.1450,-0.2006,1.0215,0.2559
7.1680,-0.2006,1.0215,0.2559
7.1690,-0.2006,1.0215,0.2559
7.1730,-0.2082,1.0108,0.2488
7.1740,-0.2165,0.9937,0.2451
7.1740,-0.2165,0.9937,0.2451
7.1750,-0.2165,0.9937,0.2451
7.1760,-0.2165,0.9937,0.2451
7.1770,-0.2190,1.0000,0.2427
7.1780,-0.2190,1.0000,0.2427
7.1940,-0.2190,1.0000,0.2427
7.1940,-0.2190,1.0000,0.2427
7.1950,-0.2190,1.0000,0.2427
7.1950,-0.2187,1.0123,0.2459
7.2240,-0.2187,1.0123,0.2459
7.2240,-0.2187,1.0123,0.2459
7.2250,-0.2187,1.0123,0.2459
7.2250,-0.2102,1.0130,0.2498
7.2260,-0.2082,1.0054,0.2439
7.2290,-0.2082,1.0054,0.2439
7.2470,-0.2082,1.0054,0.2439
7.2470,-0.2082,1.0054,0.2439
7.2480,-0.2082,1.0054,0.2439
7.2480,-0.2163,1.0032,0.2397
7.2490,-0.2163,1.0032,0.2397
7.2750,-0.2163,1.0032,0.2397
7.2760,-0.2163,1.0032,0.2397
7.2780,-0.2163,1.0032,0.2397
7.2790,-0.2222,1.0101,0.2473
7.3050,-0.2222,1.0101,0.2473
7.3060,-0.2222,1.0101,0.2473
7.3070,-0.2222,1.0101,0.2473
7.3070,-0.2229,1.0115,0.2485
7.3080,-0.2104,1.0088,0.2490
7.3260,-0.2104,1.0088,0.2490
7.3260,-0.2104,1.0088,0.2490
7.3270,-0.2104,1.0088,0.2490
7.3280,-0.1977,1.0066,0.2532
7.3290,-0.1977,1.0066,0.2532
7.3550,-0.1977,1.0066,0.2532
7.3560,-0.1977,1.0066,0.2532
7.3590,-0.1977,1.0066,0.2532
7.3620,-0.2121,1.0047,0.2493
7.3880,-0.2121,1.0047,0.2493
7.3880,-0.2121,1.0047,0.2493
7.3900,-0.2121,1.0047,0.2493
7.3910,-0.2292,1.0113,0.2358
7.3920,-0.2195,1.0191,0.2312
7.4070,-0.2195,1.0191,0.2312
7.4080,-0.2195,1.0191,0.2312
7.4090,-0.2195,1.0191,0.2312
7.4100,-0.1972,1.0047,0.2507
7.4110,-0.1972,1.0047,0.2507
7.4350,-0.1972,1.0047,0.2507
7.4360,-0.1972,1.0047,0.2507
7.4370,-0.1972,1.0047,0.2507
7.4380,-0.1972,1.0047,0.2507
7.4430,-0.2043,0.9993,0.2752
7.4650,-0.2043,0.9993,0.2752
7.4660,-0.2043,0.9993,0.2752
7.4670,-0.2043,0.9993,0.2752
7.4680,-0.2231,1.0115,0.2410
7.4690,-0.2226,1.0132,0.2319
7.4880,-0.2226,1.0132,0.2319
7.4890,-0.2226,1.0132,0.2319
7.4890,-0.2226,1.0132,0.2319
7.4900,-0.2187,1.0042,0.2515
7.4900,-0.2187,1.0042,0.2515
7.5150,-0.2187,1.0042,0.2515
7.5170,-0.2187,1.0042,0.2515
7.5180,-0.2187,1.0042,0.2515
7.5220,-0.2129,0.9996,0.2412
7.5450,-0.2129,0.9996,0.2412
7.5460,-0.2129,0.9996,0.2412
7.5460,-0.2129,0.9996,0.2412
7.5470,-0.2129,1.0049,0.2400
7.5470,-0.2138,1.0110,0.2488
7.5670,-0.2138,1.0110,0.2488
7.5670,-0.2138,1.0110,0.2488
7.5680,-0.2138,1.0110,0.2488
7.5690,-0.2075,1.0145,0.2539
7.5690,-0.2075,1.0145,0.2539
7.5960,-0.2075,1.0145,0.2539
7.6010,-0.2075,1.0145,0.2539
7.6020,-0.2075,1.0145,0.2539
7.6030,-0.2143,1.0125,0.2525
7.6300,-0.2143,1.0125,0.2525
7.6300,-0.2143,1.0125,0.2525
7.6310,-0.2143,1.0125,0.2525
7.6320,-0.2251,0.9988,0.2493
7.6370,-0.2246,1.0064,0.2336
7.6370,-0.2246,1.0064,0.2336
7.6470,-0.2246,1.0064,0.2336
7.6480,-0.2246,1.0064,0.2336
7.6480,-0.2246,1.0064,0.2336
7.6500,-0.2107,1.0130,0.2366
7.6500,-0.2107,1.0130,0.2366
7.6760,-0.2107,1.0130,0.2366
7.6790,-0.2107,1.0130,0.2366
7.6810,-0.2107,1.0130,0.2366
7.6830,-0.2046,1.0115,0.2505
7.7050,-0.2046,1.0115,0.2505
7.7050,-0.2046,1.0115,0.2505
7.7050,-0.2046,1.0115,0.2505
7.7060,-0.2019,1.0044,0.2415
7.7060,-0.2148,1.0015,0.2500
7.7260,-0.2148,1.0015,0.2500
7.7260,-0.2148,1.0015,0.2500
7.7260,-0.2148,1.0015,0.2500
7.7270,-0.2175,1.0147,0.2395
7.7270,-0.2175,1.0147,0.2395
7.7560,-0.2175,1.0147,0.2395
7.7570,-0.2175,1.0147,0.2395
7.7570,-0.2175,1.0147,0.2395
7.7580,-0.2021,1.0128,0.2412
7.7850,-0.2021,1.0128,0.2412
7.7850,-0.2021,1.0128,0.2412
7.7860,-0.2021,1.0128,0.2412
7.7860,-0.1987,1.0032,0.2539
7.7870,-0.2148,1.0013,0.2529
7.8070,-0.2148,1.0013,0.2529
7.8070,-0.2148,1.0013,0.2529
7.8080,-0.2148,1.0013,0.2529
7.8090,-0.2229,1.0128,0.2393
7.8090,-0.2229,1.0128,0.2393
7.8290,-0.2229,1.0128,0.2393
7.8340,-0.2229,1.0128,0.2393
7.8350,-0.2229,1.0128,0.2393
7.8350,-0.2229,1.0128,0.2393
7.8350,-0.2109,1.0142,0.2432
7.8650,-0.2109,1.0142,0.2432
7.8660,-0.2109,1.0142,0.2432
7.8660,-0.2109,1.0142,0.2432
7.8660,-0.2072,1.0069,0.2583
7.8660,-0.1994,1.0074,0.2422
7.8860,-0.1994,1.0074,0.2422
7.8860,-0.1994,1.0074,0.2422
7.8870,-0.1994,1.0074,0.2422
7.8870,-0.2031,1.0130,0.2366
7.8870,-0.2031,1.0130,0.2366
7.9160,-0.2031,1.0130,0.2366
7.9160,-0.2031,1.0130,0.2366
7.9160,-0.2031,1.0130,0.2366
7.9170,-0.2126,1.0020,0.2317
7.9460,-0.2126,1.0020,0.2317
7.9470,-0.2126,1.0020,0.2317
7.9470,-0.2126,1.0020,0.2317
7.9490,-0.2246,1.0020,0.2691
7.9500,-0.2197,1.0193,0.2613
7.9670,-0.2197,1.0193,0.2613
7.9670,-0.2197,1.0193,0.2613
7.9680,-0.2197,1.0193,0.2613
7.9680,-0.2119,1.0120,0.2339
7.9680,-0.2119,1.0120,0.2339
7.9960,-0.2119,1.0120,0.2339
7.9970,-0.2119,1.0120,0.2339
7.9970,-0.2119,1.0120,0.2339
7.9980,-0.2033,1.0010,0.2402
8.0250,-0.2033,1.0010,0.2402
8.0260,-0.2033,1.0010,0.2402
8.0260,-0.2033,1.0010,0.2402
8.0270,-0.2046,1.0025,0.2449
8.0270,-0.2090,1.0132,0.2485
8.0290,-0.2090,1.0132,0.2485
8.0460,-0.2090,1.0132,0.2485
8.0460,-0.2090,1.0132,0.2485
8.0470,-0.2090,1.0132,0.2485
8.0470,-0.2104,1.0108,0.2534
8.0470,-0.2104,1.0108,0.2534
8.0760,-0.2104,1.0108,0.2534
8.0760,-0.2104,1.0108,0.2534
8.0760,-0.2104,1.0108,0.2534
8.0770,-0.2102,1.0135,0.2437
8.1060,-0.2102,1.0135,0.2437
8.1070,-0.2102,1.0135,0.2437
8.1070,-0.2102,1.0135,0.2437
8.1080,-0.2050,1.0062,0.2417
8.1090,-0.2143,1.0086,0.2525
8.1270,-0.2143,1.0086,0.2525
8.1280,-0.2143,1.0086,0.2525
8.1280,-0.2143,1.0086,0.2525
8.1290,-0.2204,1.0103,0.2476
8.1290,-0.2204,1.0103,0.2476
8.1570,-0.2204,1.0103,0.2476
8.1580,-0.2204,1.0103,0.2476
8.1580,-0.2204,1.0103,0.2476
8.1590,-0.2146,1.0030,0.2422
8.1860,-0.2146,1.0030,0.2422
8.1870,-0.2146,1.0030,0.2422
8.1880,-0.2146,1.0030,0.2422
8.1890,-0.2036,1.0030,0.2515
8.1900,-0.2134,1.0157,0.2490
8.2080,-0.2134,1.0157,0.2490
8.2090,-0.2134,1.0157,0.2490
8.2100,-0.2134,1.0157,0.2490
8.2100,-0.2153,1.0110,0.2375
8.2110,-0.2153,1.0110,0.2375
8.2310,-0.2153,1.0110,0.2375
8.2370,-0.2153,1.0110,0.2375
8.2390,-0.2153,1.0110,0.2375
8.2400,-0.2153,1.0110,0.2375
8.2630,-0.2028,1.0086,0.2581
8.2650,-0.2028,1.0086,0.2581
8.2690,-0.2028,1.0086,0.2581
8.2700,-0.2028,1.0086,0.2581
8.2700,-0.2033,1.0025,0.2466
8.2710,-0.2209,0.9986,0.2397
8.2870,-0.2209,0.9986,0.2397
8.2880,-0.2209,0.9986,0.2397
8.2880,-0.2209,0.9986,0.2397
8.2880,-0.2236,1.0140,0.2434
8.2890,-0.2236,1.0140,0.2434
8.3170,-0.2236,1.0140,0.2434
8.3180,-0.2236,1.0140,0.2434
8.3190,-0.2236,1.0140,0.2434
8.3200,-0.2046,1.0301,0.2358
8.3470,-0.2046,1.0301,0.2358
8.3470,-0.2046,1.0301,0.2358
8.3480,-0.2046,1.0301,0.2358
8.3490,-0.1923,1.0135,0.2439
8.3500,-0.2080,1.0005,0.2542
8.3670,-0.2080,1.0005,0.2542
8.3680,-0.2080,1.0005,0.2542
8.3690,-0.2080,1.0005,0.2542
8.3700,-0.2241,1.0086,0.2466
8.3710,-0.2241,1.0086,0.2466
8.3970,-0.2241,1.0086,0.2466
8.3980,-0.2241,1.0086,0.2466
8.3990,-0.2241,1.0086,0.2466
8.4000,-0.2178,1.0135,0.2373
8.4270,-0.2178,1.0135,0.2373
8.4270,-0.2178,1.0135,0.2373
8.4280,-0.2178,1.0135,0.2373
8.4290,-0.2077,1.0008,0.2432
8.4290,-0.2107,0.9998,0.2419
8.4310,-0.2107,0.9998,0.2419
8.4480,-0.2107,0.9998,0.2419
8.4490,-0.2107,0.9998,0.2419
8.4500,-0.2107,0.9998,0.2419
8.4510,-0.2138,1.0047,0.2476
8.4520,-0.2138,1.0047,0.2476
8.4780,-0.2138,1.0047,0.2476
8.4790,-0.2138,1.0047,0.2476
8.4790,-0.2138,1.0047,0.2476
8.4800,-0.2068,1.0137,0.2522
8.5060,-0.2068,1.0137,0.2522
8.5070,-0.2068,1.0137,0.2522
8.5070,-0.2068,1.0137,0.2522
8.5080,-0.2063,1.0135,0.2488
8.5090,-0.2075,1.0049,0.2561
8.5280,-0.2075,1.0049,0.2561
8.5290,-0.2075,1.0049,0.2561
8.5300,-0.2075,1.0049,0.2561
8.5310,-0.2041,1.0020,0.2561
8.5320,-0.2041,1.0020,0.2561
8.5580,-0.2041,1.0020,0.2561
8.5590,-0.2041,1.0020,0.2561
8.5600,-0.2041,1.0020,0.2561
8.5610,-0.2119,1.0154,0.2417
8.5860,-0.2119,1.0154,0.2417
8.5870,-0.2119,1.0154,0.2417
8.5880,-0.2119,1.0154,0.2417
8.5890,-0.2187,1.0193,0.2371
8.5900,-0.2129,1.0000,0.2446
8.6080,-0.2129,1.0000,0.2446
8.6090,-0.2129,1.0000,0.2446
8.6090,-0.2129,1.0000,0.2446
8.6100,-0.2082,0.9964,0.2556
8.6100,-0.2082,0.9964,0.2556
8.6300,-0.2082,0.9964,0.2556
8.6390,-0.2082,0.9964,0.2556
8.6390,-0.2082,0.9964,0.2556
8.6400,-0.2082,0.9964,0.2556
8.6400,-0.2156,1.0076,0.2515
8.6670,-0.2156,1.0076,0.2515
8.6670,-0.2156,1.0076,0.2515
8.6680,-0.2156,1.0076,0.2515
8.6690,-0.2160,1.0184,0.2500
8.6690,-0.1987,1.0093,0.2429
8.6880,-0.1987,1.0093,0.2429
8.6880,-0.1987,1.0093,0.2429
8.6890,-0.1987,1.0093,0.2429
8.6890,-0.2028,1.0049,0.2441
8.6900,-0.2028,1.0049,0.2441
8.7160,-0.2028,1.0049,0.2441
8.7170,-0.2028,1.0049,0.2441
8.7170,-0.2028,1.0049,0.2441
8.7170,-0.2136,1.0174,0.2380
8.7460,-0.2136,1.0174,0.2380
8.7460,-0.2136,1.0174,0.2380
8.7470,-0.2136,1.0174,0.2380
8.7470,-0.2136,1.0115,0.2427
8.7470,-0.2121,1.0027,0.2503
8.7670,-0.2121,1.0027,0.2503
8.7680,-0.2121,1.0027,0.2503
8.7690,-0.2121,1.0027,0.2503
8.7700,-0.2185,1.0103,0.2388
8.7710,-0.2185,1.0103,0.2388
8.7970,-0.2185,1.0103,0.2388
8.7980,-0.2185,1.0103,0.2388
8.7990,-0.2185,1.0103,0.2388
8.8160,-0.2263,1.0213,0.2371
8.8300,-0.2263,1.0213,0.2371
8.8300,-0.2263,1.0213,0.2371
8.8310,-0.2263,1.0213,0.2371
8.8310,-0.2182,1.0081,0.2493
8.8320,-0.2087,0.9939,0.2566
8.8320,-0.2087,0.9939,0.2566
8.8470,-0.2087,0.9939,0.2566
8.8480,-0.2087,0.9939,0.2566
8.8490,-0.2087,0.9939,0.2566
8.8490,-0.2109,1.0010,0.2525
8.8500,-0.2109,1.0010,0.2525
8.8790,-0.2109,1.0010,0.2525
8.8800,-0.2109,1.0010,0.2525
8.8810,-0.2109,1.0010,0.2525
8.8820,-0.2192,1.0145,0.2336
8.9090,-0.2192,1.0145,0.2336
8.9100,-0.2192,1.0145,0.2336
8.9100,-0.2192,1.0145,0.2336
8.9110,-0.2129,1.0159,0.2397
8.9120,-0.2070,1.0142,0.2500
8.9280,-0.2070,1.0142,0.2500
8.9300,-0.2070,1.0142,0.2500
8.9300,-0.2070,1.0142,0.2500
8.9310,-0.2004,1.0066,0.2522
8.9320,-0.2004,1.0066,0.2522
8.9570,-0.2004,1.0066,0.2522
8.9570,-0.2004,1.0066,0.2522
8.9590,-0.2004,1.0066,0.2522
8.9590,-0.1989,1.0062,0.2549
8.9870,-0.1989,1.0062,0.2549
8.9880,-0.1989,1.0062,0.2549
8.9890,-0.1989,1.0062,0.2549
8.9890,-0.2107,1.0098,0.2466
8.9890,-0.2195,1.0106,0.2468
9.0100,-0.2195,1.0106,0.2468
9.0100,-0.2195,1.0106,0.2468
9.0110,-0.2195,1.0106,0.2468
9.0120,-0.2146,1.0106,0.2390
9.0120,-0.2146,1.0106,0.2390
9.0310,-0.2146,1.0106,0.2390
9.0370,-0.2146,1.0106,0.2390
9.0380,-0.2146,1.0106,0.2390
9.0390,-0.2146,1.0106,0.2390
9.0390,-0.2163,1.0079,0.2522
9.0670,-0.2163,1.0079,0.2522
9.0680,-0.2163,1.0079,0.2522
9.0690,-0.2163,1.0079,0.2522
9.0690,-0.2178,1.0120,0.2564
9.0700,-0.2112,1.0074,0.2380
9.0890,-0.2112,1.0074,0.2380
9.0890,-0.2112,1.0074,0.2380
9.0900,-0.2112,1.0074,0.2380
9.0900,-0.2085,1.0062,0.2515
9.0910,-0.2085,1.0062,0.2515
9.1190,-0.2085,1.0062,0.2515
9.1200,-0.2085,1.0062,0.2515
9.1210,-0.2085,1.0062,0.2515
9.1220,-0.2141,1.0167,0.2368
9.1480,-0.2141,1.0167,0.2368
9.1490,-0.2141,1.0167,0.2368
9.1500,-0.2141,1.0167,0.2368
9.1510,-0.2075,1.0145,0.2417
9.1520,-0.1975,1.0040,0.2547
9.1680,-0.1975,1.0040,0.2547
9.1690,-0.1975,1.0040,0.2547
9.1700,-0.1975,1.0040,0.2547
9.1730,-0.2002,1.0098,0.2417
9.1740,-0.2002,1.0098,0.2417
9.1980,-0.2002,1.0098,0.2417
9.1990,-0.2002,1.0098,0.2417
9.1990,-0.2002,1.0098,0.2417
9.2050,-0.2087,1.0088,0.2412
9.2290,-0.2087,1.0088,0.2412
9.2300,-0.2087,1.0088,0.2412
9.2300,-0.2087,1.0088,0.2412
9.2310,-0.2068,1.0081,0.2493
9.2310,-0.2038,1.0066,0.2393
9.2310,-0.2038,1.0066,0.2393
9.2470,-0.2038,1.0066,0.2393
9.2470,-0.2038,1.0066,0.2393
9.2480,-0.2038,1.0066,0.2393
9.2490,-0.2080,1.0147,0.2417
9.2490,-0.2080,1.0147,0.2417
9.2770,-0.2080,1.0147,0.2417
9.2780,-0.2080,1.0147,0.2417
9.2790,-0.2080,1.0147,0.2417
9.2790,-0.2119,1.0132,0.2466
9.3070,-0.2119,1.0132,0.2466
9.3090,-0.2119,1.0132,0.2466
9.3100,-0.2119,1.0132,0.2466
9.3110,-0.2234,1.0098,0.2539
9.3120,-0.2217,1.0064,0.2461
9.3290,-0.2217,1.0064,0.2461
9.3290,-0.2217,1.0064,0.2461
9.3300,-0.2217,1.0064,0.2461
9.3300,-0.2094,1.0027,0.2375
9.3310,-0.2094,1.0027,0.2375
9.3580,-0.2094,1.0027,0.2375
9.3590,-0.2094,1.0027,0.2375
9.3820,-0.2094,1.0027,0.2375
9.3820,-0.2060,1.0064,0.2517
9.3870,-0.2060,1.0064,0.2517
9.3870,-0.2060,1.0064,0.2517
9.3880,-0.2060,1.0064,0.2517
9.3880,-0.2053,1.0137,0.2559
9.3880,-0.1958,1.0284,0.2468
9.4080,-0.1958,1.0284,0.2468
9.4080,-0.1958,1.0284,0.2468
9.4090,-0.1958,1.0284,0.2468
9.4090,-0.1874,1.0142,0.2441
9.4100,-0.1874,1.0142,0.2441
9.4290,-0.1874,1.0142,0.2441
9.4370,-0.1874,1.0142,0.2441
9.4370,-0.1874,1.0142,0.2441
9.4380,-0.1874,1.0142,0.2441
9.4380,-0.1994,0.9966,0.2522
9.4670,-0.1994,0.9966,0.2522
9.4670,-0.1994,0.9966,0.2522
9.4680,-0.1994,0.9966,0.2522
9.4680,-0.2175,1.0147,0.2368
9.4690,-0.2114,1.0225,0.2305
9.4890,-0.2114,1.0225,0.2305
9.4890,-0.2114,1.0225,0.2305
9.4890,-0.2114,1.0225,0.2305
9.4900,-0.1982,1.0008,0.2620
9.4900,-0.1982,1.0008,0.2620
9.5220,-0.1982,1.0008,0.2620
9.5230,-0.1982,1.0008,0.2620
9.5240,-0.1982,1.0008,0.2620
9.5250,-0.1997,1.0008,0.2659
9.5480,-0.1997,1.0008,0.2659
9.5490,-0.1997,1.0008,0.2659
9.5500,-0.1997,1.0008,0.2659
9.5510,-0.2185,1.0135,0.2422
9.5520,-0.2151,1.0242,0.2373
9.5700,-0.2151,1.0242,0.2373
9.5710,-0.2151,1.0242,0.2373
9.5720,-0.2151,1.0242,0.2373
9.5730,-0.1960,1.0130,0.2503
9.5740,-0.1960,1.0130,0.2503
9.6000,-0.1960,1.0130,0.2503
9.6010,-0.1960,1.0130,0.2503
9.6020,-0.1960,1.0130,0.2503
9.6030,-0.1904,1.0032,0.2615
9.6300,-0.1904,1.0032,0.2615
9.6310,-0.1904,1.0032,0.2615
9.6320,-0.1904,1.0032,0.2615
9.6320,-0.2050,1.0044,0.2444
9.6330,-0.2197,1.0132,0.2285
9.6330,-0.2197,1.0132,0.2285
9.6500,-0.2197,1.0132,0.2285
9.6500,-0.2197,1.0132,0.2285
9.6510,-0.2197,1.0132,0.2285
9.6520,-0.2082,1.0208,0.2515
9.6530,-0.2082,1.0208,0.2515
9.6800,-0.2082,1.0208,0.2515
9.6800,-0.2082,1.0208,0.2515
9.6820,-0.2082,1.0208,0.2515
9.6820,-0.1889,1.0103,0.2605
9.7080,-0.1889,1.0103,0.2605
9.7100,-0.1889,1.0103,0.2605
9.7110,-0.1889,1.0103,0.2605
9.7110,-0.1970,1.0027,0.2483
9.7120,-0.2107,1.0086,0.2341
9.7290,-0.2107,1.0086,0.2341
9.7300,-0.2107,1.0086,0.2341
9.7310,-0.2107,1.0086,0.2341
9.7320,-0.2168,1.0152,0.2459
9.7320,-0.2168,1.0152,0.2459
9.7590,-0.2168,1.0152,0.2459
9.7600,-0.2168,1.0152,0.2459
9.7610,-0.2168,1.0152,0.2459
9.7640,-0.2080,1.0167,0.2544
9.7890,-0.2080,1.0167,0.2544
9.7900,-0.2080,1.0167,0.2544
9.7900,-0.2080,1.0167,0.2544
9.7910,-0.2016,1.0064,0.2432
9.7920,-0.2065,1.0074,0.2371
9.8100,-0.2065,1.0074,0.2371
9.8100,-0.2065,1.0074,0.2371
9.8110,-0.2065,1.0074,0.2371
9.8120,-0.2131,1.0106,0.2317
9.8140,-0.2131,1.0106,0.2317
9.8290,-0.2131,1.0106,0.2317
9.8390,-0.2131,1.0106,0.2317
9.8400,-0.2131,1.0106,0.2317
9.8400,-0.2131,1.0106,0.2317
9.8410,-0.2060,1.0108,0.2437
9.8680,-0.2060,1.0108,0.2437
9.8690,-0.2060,1.0108,0.2437
9.8690,-0.2060,1.0108,0.2437
9.8700,-0.2053,1.0062,0.2600
9.8700,-0.2107,1.0005,0.2500
9.8890,-0.2107,1.0005,0.2500
9.8900,-0.2107,1.0005,0.2500
9.8910,-0.2107,1.0005,0.2500
9.8920,-0.2038,1.0118,0.2339
9.8930,-0.2038,1.0118,0.2339
9.9190,-0.2038,1.0118,0.2339
9.9370,-0.2038,1.0118,0.2339
9.9370,-0.2038,1.0118,0.2339
9.9380,-0.1894,1.0218,0.2473
9.9480,-0.1894,1.0218,0.2473
9.9490,-0.1894,1.0218,0.2473
9.9490,-0.1894,1.0218,0.2473
9.9500,-0.1848,1.0186,0.2603
9.9500,-0.1950,1.0128,0.2622
9.9690,-0.1950,1.0128,0.2622
9.9700,-0.1950,1.0128,0.2622
9.9710,-0.1950,1.0128,0.2622
9.9710,-0.2082,1.0106,0.2424
9.9720,-0.2082,1.0106,0.2424
9.9990,-0.2082,1.0106,0.2424
10.0000,-0.2082,1.0106,0.2424
10.0010,-0.2082,1.0106,0.2424
10.0020,-0.2107,1.0137,0.2353
10.0350,-0.2107,1.0137,0.2353
10.0360,-0.2107,1.0137,0.2353
10.0370,-0.2107,1.0137,0.2353
10.0380,-0.2011,1.0103,0.2529
10.0390,-0.1940,1.0032,0.2608
10.0400,-0.1940,1.0032,0.2608
10.0410,-0.1940,1.0032,0.2608
10.0500,-0.1940,1.0032,0.2608
10.0510,-0.1940,1.0032,0.2608
10.0520,-0.1940,1.0032,0.2608
10.0530,-0.2055,0.9986,0.2539
10.0540,-0.2055,0.9986,0.2539
10.0790,-0.2055,0.9986,0.2539
10.0800,-0.2055,0.9986,0.2539
10.0800,-0.2055,0.9986,0.2539
10.0810,-0.2173,1.0128,0.2351
10.1090,-0.2173,1.0128,0.2351
10.1100,-0.2173,1.0128,0.2351
10.1110,-0.2173,1.0128,0.2351
10.1120,-0.2119,1.0203,0.2341
10.1130,-0.2002,1.0074,0.2620
10.1300,-0.2002,1.0074,0.2620
10.1310,-0.2002,1.0074,0.2620
10.1320,-0.2002,1.0074,0.2620
10.1330,-0.1992,1.0013,0.2652
10.1340,-0.1992,1.0013,0.2652
10.1590,-0.1992,1.0013,0.2652
10.1600,-0.1992,1.0013,0.2652
10.1610,-0.1992,1.0013,0.2652
10.1620,-0.2087,1.0118,0.2407
10.1900,-0.2087,1.0118,0.2407
10.1910,-0.2087,1.0118,0.2407
10.1930,-0.2087,1.0118,0.2407
10.1940,-0.2112,1.0140,0.2388
10.1940,-0.1933,1.0047,0.2466
10.2100,-0.1933,1.0047,0.2466
10.2110,-0.1933,1.0047,0.2466
10.2110,-0.1933,1.0047,0.2466
10.2120,-0.1926,1.0037,0.2522
10.2120,-0.1926,1.0037,0.2522
10.2330,-0.1926,1.0037,0.2522
10.2340,-0.1926,1.0037,0.2522
10.2390,-0.1926,1.0037,0.2522
10.2400,-0.1926,1.0037,0.2522
10.2420,-0.1926,1.0037,0.2522
10.2430,-0.2028,1.0140,0.2459
10.2690,-0.2028,1.0140,0.2459
10.2700,-0.2028,1.0140,0.2459
10.2710,-0.2028,1.0140,0.2459
10.2740,-0.1999,1.0137,0.2415
10.2750,-0.2031,1.0074,0.2539
10.2890,-0.2031,1.0074,0.2539
10.2910,-0.2031,1.0074,0.2539
10.2920,-0.2031,1.0074,0.2539
10.2920,-0.2072,1.0022,0.2615
10.2930,-0.2072,1.0022,0.2615
10.3190,-0.2072,1.0022,0.2615
10.3200,-0.2072,1.0022,0.2615
10.3200,-0.2072,1.0022,0.2615
10.3210,-0.2173,1.0052,0.2483
10.3490,-0.2173,1.0052,0.2483
10.3500,-0.2173,1.0052,0.2483
10.3510,-0.2173,1.0052,0.2483
10.3520,-0.2180,1.0125,0.2422
10.3520,-0.2014,1.0066,0.2498
10.3750,-0.2014,1.0066,0.2498
10.3760,-0.2014,1.0066,0.2498
10.3760,-0.2014,1.0066,0.2498
10.3770,-0.1975,1.0035,0.2652
10.3790,-0.1975,1.0035,0.2652
10.3990,-0.1975,1.0035,0.2652
10.4000,-0.1975,1.0035,0.2652
10.4000,-0.1975,1.0035,0.2652
10.4010,-0.2011,1.0128,0.2578
10.4330,-0.2011,1.0128,0.2578
10.4340,-0.2011,1.0128,0.2578
10.4350,-0.2011,1.0128,0.2578
10.4350,-0.2038,1.0235,0.2429
10.4360,-0.1975,1.0176,0.2461
10.4370,-0.1975,1.0176,0.2461
10.4520,-0.1975,1.0176,0.2461
10.4530,-0.1975,1.0176,0.2461
10.4530,-0.1975,1.0176,0.2461
10.4680,-0.1931,1.0037,0.2644
10.4690,-0.1931,1.0037,0.2644
10.4800,-0.1931,1.0037,0.2644
10.4800,-0.1931,1.0037,0.2644
10.4810,-0.1931,1.0037,0.2644
10.4820,-0.2031,1.0030,0.2583
10.5080,-0.2031,1.0030,0.2583
10.5090,-0.2031,1.0030,0.2583
10.5090,-0.2031,1.0030,0.2583
10.5090,-0.2092,1.0118,0.2422
10.5090,-0.2119,1.0096,0.2485
10.5290,-0.2119,1.0096,0.2485
10.5290,-0.2119,1.0096,0.2485
10.5290,-0.2119,1.0096,0.2485
10.5290,-0.2109,1.0079,0.2498
10.5300,-0.2109,1.0079,0.2498
10.5590,-0.2109,1.0079,0.2498
10.5600,-0.2109,1.0079,0.2498
10.5610,-0.2109,1.0079,0.2498
10.5620,-0.2109,1.0103,0.2434
10.5900,-0.2109,1.0103,0.2434
10.5910,-0.2109,1.0103,0.2434
10.5910,-0.2109,1.0103,0.2434
10.5920,-0.2053,1.0135,0.2451
10.5920,-0.1999,1.0113,0.2446
10.6100,-0.1999,1.0113,0.2446
10.6110,-0.1999,1.0113,0.2446
10.6120,-0.1999,1.0113,0.2446
10.6120,-0.1994,1.0018,0.2520
10.6130,-0.1994,1.0018,0.2520
10.6330,-0.1994,1.0018,0.2520
10.6340,-0.1994,1.0018,0.2520
10.6420,-0.1994,1.0018,0.2520
10.6430,-0.1994,1.0018,0.2520
10.6440,-0.1994,1.0018,0.2520
10.6440,-0.2041,1.0059,0.2551
10.6700,-0.2041,1.0059,0.2551
10.6710,-0.2041,1.0059,0.2551
10.6710,-0.2041,1.0059,0.2551
10.6720,-0.2072,1.0172,0.2441
10.6730,-0.2075,1.0184,0.2461
10.6900,-0.2075,1.0184,0.2461
10.6910,-0.2075,1.0184,0.2461
10.6920,-0.2075,1.0184,0.2461
10.6930,-0.2016,1.0101,0.2490
10.6940,-0.2016,1.0101,0.2490
10.7200,-0.2016,1.0101,0.2490
10.7210,-0.2016,1.0101,0.2490
10.7220,-0.2016,1.0101,0.2490
10.7230,-0.2060,1.0086,0.2578
10.7490,-0.2060,1.0086,0.2578
10.7500,-0.2060,1.0086,0.2578
10.7500,-0.2060,1.0086,0.2578
10.7530,-0.2109,1.0062,0.2549
10.7530,-0.2116,1.0052,0.2400
10.7690,-0.2116,1.0052,0.2400
10.7690,-0.2116,1.0052,0.2400
10.7690,-0.2116,1.0052,0.2400
10.7700,-0.2070,1.0128,0.2424
10.7700,-0.2070,1.0128,0.2424
10.7990,-0.2070,1.0128,0.2424
10.7990,-0.2070,1.0128,0.2424
10.7990,-0.2070,1.0128,0.2424
10.8000,-0.1970,1.0159,0.2542
10.8340,-0.1970,1.0159,0.2542
10.8340,-0.1970,1.0159,0.2542
10.8350,-0.1970,1.0159,0.2542
10.8360,-0.1928,1.0037,0.2576
10.8370,-0.2031,0.9988,0.2573
10.8400,-0.2031,0.9988,0.2573
10.8500,-0.2031,0.9988,0.2573
10.8510,-0.2031,0.9988,0.2573
10.8520,-0.2031,0.9988,0.2573
10.8530,-0.2124,1.0071,0.2424
10.8540,-0.2124,1.0071,0.2424
10.8790,-0.2124,1.0071,0.2424
10.8790,-0.2124,1.0071,0.2424
10.8800,-0.2124,1.0071,0.2424
10.8800,-0.2090,1.0172,0.2417
10.9100,-0.2090,1.0172,0.2417
10.9100,-0.2090,1.0172,0.2417
10.9110,-0.2090,1.0172,0.2417
10.9110,-0.2050,1.0093,0.2525
10.9120,-0.2060,1.0015,0.2556
10.9290,-0.2060,1.0015,0.2556
10.9300,-0.2060,1.0015,0.2556
10.9300,-0.2060,1.0015,0.2556
10.9310,-0.2050,1.0125,0.2498
10.9310,-0.2050,1.0125,0.2498
10.9580,-0.2050,1.0125,0.2498
10.9590,-0.2050,1.0125,0.2498
10.9590,-0.2050,1.0125,0.2498
10.9600,-0.2114,1.0179,0.2459
10.9890,-0.2114,1.0179,0.2459
10.9890,-0.2114,1.0179,0.2459
10.9890,-0.2114,1.0179,0.2459
10.9900,-0.2038,1.0088,0.2525
10.9900,-0.1977,0.9976,0.2493
11.0100,-0.1977,0.9976,0.2493
11.0100,-0.1977,0.9976,0.2493
11.0170,-0.1977,0.9976,0.2493
11.0170,-0.2063,1.0086,0.2478
11.0170,-0.2063,1.0086,0.2478
11.0320,-0.2063,1.0086,0.2478
11.0320,-0.2063,1.0086,0.2478
11.0400,-0.2063,1.0086,0.2478
11.0410,-0.2063,1.0086,0.2478
11.0420,-0.2063,1.0086,0.2478
11.0430,-0.2107,1.0145,0.2437
11.0700,-0.2107,1.0145,0.2437
11.0710,-0.2107,1.0145,0.2437
11.0730,-0.2107,1.0145,0.2437
11.0740,-0.2055,1.0167,0.2471
11.0740,-0.2058,1.0101,0.2527
11.0920,-0.2058,1.0101,0.2527
11.0930,-0.2058,1.0101,0.2527
11.0940,-0.2058,1.0101,0.2527
11.0940,-0.2146,1.0000,0.2505
11.0950,-0.2146,1.0000,0.2505
11.1230,-0.2146,1.0000,0.2505
11.1240,-0.2146,1.0000,0.2505
11.1250,-0.2146,1.0000,0.2505
11.1260,-0.2212,0.9956,0.2388
11.1500,-0.2212,0.9956,0.2388
11.1510,-0.2212,0.9956,0.2388
11.1510,-0.2212,0.9956,0.2388
11.1520,-0.2055,1.0025,0.2395
11.1530,-0.1840,1.0152,0.2737
11.1720,-0.1840,1.0152,0.2737
11.1730,-0.1840,1.0152,0.2737
11.1730,-0.1840,1.0152,0.2737
11.1740,-0.1850,1.0237,0.2683
11.1750,-0.1850,1.0237,0.2683
11.2030,-0.1850,1.0237,0.2683
11.2030,-0.1850,1.0237,0.2683
11.2040,-0.1850,1.0237,0.2683
11.2050,-0.1948,1.0152,0.2515
11.2340,-0.1948,1.0152,0.2515
11.2350,-0.1948,1.0152,0.2515
11.2350,-0.1948,1.0152,0.2515
11.2360,-0.2094,1.0167,0.2554
11.2380,-0.2055,1.0213,0.2437
11.2380,-0.2055,1.0213,0.2437
11.2390,-0.2055,1.0213,0.2437
11.2510,-0.2055,1.0213,0.2437
11.2530,-0.2055,1.0213,0.2437
11.2530,-0.2055,1.0213,0.2437
11.2540,-0.2019,1.0125,0.2525
11.2560,-0.2019,1.0125,0.2525
11.2810,-0.2019,1.0125,0.2525
11.2820,-0.2019,1.0125,0.2525
11.2830,-0.2019,1.0125,0.2525
11.2830,-0.1992,0.9898,0.2620
11.3110,-0.1992,0.9898,0.2620
11.3120,-0.1992,0.9898,0.2620
11.3130,-0.1992,0.9898,0.2620
11.3130,-0.2102,1.0030,0.2559
11.3140,-0.2119,1.0262,0.2380
11.3310,-0.2119,1.0262,0.2380
11.3320,-0.2119,1.0262,0.2380
11.3330,-0.2119,1.0262,0.2380
11.3330,-0.1938,1.0147,0.2351
11.3370,-0.1938,1.0147,0.2351
11.3600,-0.1938,1.0147,0.2351
11.3610,-0.1938,1.0147,0.2351
11.3620,-0.1938,1.0147,0.2351
11.3620,-0.1777,1.0010,0.2485
11.3900,-0.1777,1.0010,0.2485
11.3910,-0.1777,1.0010,0.2485
11.3920,-0.1777,1.0010,0.2485
11.3920,-0.1923,1.0022,0.2517
11.3930,-0.2085,1.0130,0.2432
11.4110,-0.2085,1.0130,0.2432
11.4120,-0.2085,1.0130,0.2432
11.4130,-0.2085,1.0130,0.2432
11.4130,-0.2099,1.0242,0.2356
11.4140,-0.2099,1.0242,0.2356
11.4290,-0.2099,1.0242,0.2356
11.4330,-0.2099,1.0242,0.2356
11.4410,-0.2099,1.0242,0.2356
11.4420,-0.2099,1.0242,0.2356
11.4420,-0.2099,1.0242,0.2356
11.4430,-0.2016,1.0115,0.2393
11.4700,-0.2016,1.0115,0.2393
11.4710,-0.2016,1.0115,0.2393
11.4710,-0.2016,1.0115,0.2393
11.4710,-0.2024,0.9964,0.2564
11.4720,-0.2046,1.0025,0.2507
11.4900,-0.2046,1.0025,0.2507
11.4910,-0.2046,1.0025,0.2507
11.4910,-0.2046,1.0025,0.2507
11.4910,-0.2019,1.0128,0.2503
11.4920,-0.2019,1.0128,0.2503
11.5230,-0.2019,1.0128,0.2503
11.5240,-0.2019,1.0128,0.2503
11.5250,-0.2019,1.0128,0.2503
11.5260,-0.1933,1.0088,0.2686
11.5510,-0.1933,1.0088,0.2686
11.5520,-0.1933,1.0088,0.2686
11.5520,-0.1933,1.0088,0.2686
11.5840,-0.1838,1.0137,0.2730
11.5850,-0.1931,1.0184,0.2542
11.5850,-0.1931,1.0184,0.2542
11.5860,-0.1931,1.0184,0.2542
11.5860,-0.1931,1.0184,0.2542
11.5870,-0.1887,1.0176,0.2461
11.5870,-0.1887,1.0176,0.2461
11.6000,-0.1887,1.0176,0.2461
11.6000,-0.1887,1.0176,0.2461
11.6000,-0.1887,1.0176,0.2461
11.6010,-0.1950,1.0191,0.2437
11.6330,-0.1950,1.0191,0.2437
11.6350,-0.1950,1.0191,0.2437
11.6360,-0.1950,1.0191,0.2437
11.6370,-0.1950,1.0191,0.2437
11.6380,-0.2009,1.0135,0.2456
11.6390,-0.1977,1.0113,0.2595
11.6390,-0.1977,1.0113,0.2595
11.6520,-0.1977,1.0113,0.2595
11.6520,-0.1977,1.0113,0.2595
11.6530,-0.1977,1.0113,0.2595
11.6540,-0.1953,1.0057,0.2581
11.6550,-0.1953,1.0057,0.2581
11.6810,-0.1953,1.0057,0.2581
11.6820,-0.1953,1.0057,0.2581
11.6830,-0.1953,1.0057,0.2581
11.6840,-0.2058,1.0096,0.2515
11.7110,-0.2058,1.0096,0.2515
11.7110,-0.2058,1.0096,0.2515
11.7120,-0.2058,1.0096,0.2515
11.7120,-0.2070,1.0147,0.2410
11.7130,-0.1938,1.0113,0.2510
11.7320,-0.1938,1.0113,0.2510
11.7330,-0.1938,1.0113,0.2510
11.7340,-0.1938,1.0113,0.2510
11.7390,-0.1811,1.0052,0.2591
11.7400,-0.1811,1.0052,0.2591
11.7620,-0.1811,1.0052,0.2591
11.7630,-0.1811,1.0052,0.2591
11.7630,-0.1811,1.0052,0.2591
11.7640,-0.1965,1.0123,0.2478
11.7900,-0.1965,1.0123,0.2478
11.7910,-0.1965,1.0123,0.2478
11.7910,-0.1965,1.0123,0.2478
11.7920,-0.2070,1.0137,0.2427
11.7930,-0.1992,1.0154,0.2520
11.8120,-0.1992,1.0154,0.2520
11.8130,-0.1992,1.0154,0.2520
11.8130,-0.1992,1.0154,0.2520
11.8140,-0.1906,1.0108,0.2481
11.8160,-0.1906,1.0108,0.2481
11.8310,-0.1906,1.0108,0.2481
11.8330,-0.1906,1.0108,0.2481
11.8420,-0.1906,1.0108,0.2481
11.8420,-0.1906,1.0108,0.2481
11.8430,-0.1906,1.0108,0.2481
11.8480,-0.1916,1.0074,0.2610
11.8720,-0.1916,1.0074,0.2610
11.8730,-0.1916,1.0074,0.2610
11.8730,-0.1916,1.0074,0.2610
11.8740,-0.1977,1.0137,0.2512
11.8740,-0.2006,1.0193,0.2402
11.8950,-0.2006,1.0193,0.2402
11.8960,-0.2006,1.0193,0.2402
11.8960,-0.2006,1.0193,0.2402
11.8970,-0.2014,1.0132,0.2527
11.8970,-0.2014,1.0132,0.2527
11.9230,-0.2014,1.0132,0.2527
11.9240,-0.2014,1.0132,0.2527
11.9250,-0.2014,1.0132,0.2527
11.9260,-0.2024,1.0069,0.2600
11.9530,-0.2024,1.0069,0.2600
11.9530,-0.2024,1.0069,0.2600
11.9540,-0.2024,1.0069,0.2600
11.9540,-0.2053,1.0044,0.2493
11.9550,-0.2119,1.0106,0.2437
11.9720,-0.2119,1.0106,0.2437
11.9730,-0.2119,1.0106,0.2437
11.9750,-0.2119,1.0106,0.2437
11.9760,-0.2119,1.0176,0.2412
11.9770,-0.2119,1.0176,0.2412
12.0030,-0.2119,1.0176,0.2412
12.0050,-0.2119,1.0176,0.2412
12.0060,-0.2119,1.0176,0.2412
12.0060,-0.2033,1.0172,0.2405
12.0330,-0.2033,1.0172,0.2405
12.0360,-0.2033,1.0172,0.2405
12.0360,-0.2033,1.0172,0.2405
12.0370,-0.2033,1.0172,0.2405
12.0380,-0.1989,1.0025,0.2510
12.0390,-0.2043,1.0044,0.2478
12.0520,-0.2043,1.0044,0.2478
12.0530,-0.2043,1.0044,0.2478
12.0530,-0.2043,1.0044,0.2478
12.0540,-0.2080,1.0179,0.2361
12.0550,-0.2080,1.0179,0.2361
12.0810,-0.2080,1.0179,0.2361
12.0820,-0.2080,1.0179,0.2361
12.0830,-0.2080,1.0179,0.2361
12.0850,-0.1972,1.0123,0.2564
12.1120,-0.1972,1.0123,0.2564
12.1120,-0.1972,1.0123,0.2564
12.1130,-0.1972,1.0123,0.2564
12.1130,-0.1850,1.0042,0.2635
12.1140,-0.1894,1.0071,0.2507
12.1320,-0.1894,1.0071,0.2507
12.1330,-0.1894,1.0071,0.2507
12.1330,-0.1894,1.0071,0.2507
12.1340,-0.2011,1.0208,0.2356
12.1350,-0.2011,1.0208,0.2356
12.1620,-0.2011,1.0208,0.2356
12.1630,-0.2011,1.0208,0.2356
12.1640,-0.2011,1.0208,0.2356
12.1650,-0.2082,1.0125,0.2434
12.1920,-0.2082,1.0125,0.2434
12.1930,-0.2082,1.0125,0.2434
12.1940,-0.2082,1.0125,0.2434
12.1950,-0.1980,1.0035,0.2681
12.1960,-0.1955,1.0062,0.2600
12.2130,-0.1955,1.0062,0.2600
12.2140,-0.1955,1.0062,0.2600
12.2150,-0.1955,1.0062,0.2600
12.2160,-0.2038,1.0059,0.2390
12.2180,-0.2038,1.0059,0.2390
12.2300,-0.2038,1.0059,0.2390
12.2320,-0.2038,1.0059,0.2390
12.2420,-0.2038,1.0059,0.2390
12.2430,-0.2038,1.0059,0.2390
12.2430,-0.2038,1.0059,0.2390
12.2440,-0.2070,1.0018,0.2603
12.2720,-0.2070,1.0018,0.2603
12.2730,-0.2070,1.0018,0.2603
12.2740,-0.2070,1.0018,0.2603
12.2750,-0.2021,1.0172,0.2691
12.2760,-0.1840,1.0242,0.2275
12.2930,-0.1840,1.0242,0.2275
12.2940,-0.1840,1.0242,0.2275
12.2950,-0.1840,1.0242,0.2275
12.2960,-0.1931,0.9954,0.2586
12.2970,-0.1931,0.9954,0.2586
12.3210,-0.1931,0.9954,0.2586
12.3220,-0.1931,0.9954,0.2586
12.3230,-0.1931,0.9954,0.2586
12.3250,-0.1955,1.0054,0.2505
12.3510,-0.1955,1.0054,0.2505
12.3520,-0.1955,1.0054,0.2505
12.3530,-0.1955,1.0054,0.2505
12.3540,-0.1918,1.0164,0.2263
12.3550,-0.2097,1.0189,0.2439
12.3730,-0.2097,1.0189,0.2439
12.3730,-0.2097,1.0189,0.2439
12.3740,-0.2097,1.0189,0.2439
12.3740,-0.2004,1.0225,0.2554
12.3750,-0.2004,1.0225,0.2554
12.4010,-0.2004,1.0225,0.2554
12.4020,-0.2004,1.0225,0.2554
12.4020,-0.2004,1.0225,0.2554
12.4030,-0.1977,1.0140,0.2419
12.4300,-0.1977,1.0140,0.2419
12.4320,-0.1977,1.0140,0.2419
12.4330,-0.1977,1.0140,0.2419
12.4340,-0.1977,1.0140,0.2419
12.4340,-0.1865,1.0035,0.2476
12.4350,-0.1914,1.0037,0.2571
12.4540,-0.1914,1.0037,0.2571
12.4550,-0.1914,1.0037,0.2571
12.4560,-0.1914,1.0037,0.2571
12.4570,-0.2090,1.0047,0.2632
12.4600,-0.2090,1.0047,0.2632
12.4830,-0.2090,1.0047,0.2632
12.4840,-0.2090,1.0047,0.2632
12.4840,-0.2090,1.0047,0.2632
12.4850,-0.2085,1.0167,0.2505
12.5110,-0.2085,1.0167,0.2505
12.5120,-0.2085,1.0167,0.2505
12.5130,-0.2085,1.0167,0.2505
12.5140,-0.1987,1.0203,0.2366
12.5140,-0.1879,1.0233,0.2461
12.5320,-0.1879,1.0233,0.2461
12.5340,-0.1879,1.0233,0.2461
12.5350,-0.1879,1.0233,0.2461
12.5360,-0.1835,1.0193,0.2466
12.5390,-0.1835,1.0193,0.2466
12.5640,-0.1835,1.0193,0.2466
12.5650,-0.1835,1.0193,0.2466
12.5660,-0.1835,1.0193,0.2466
12.5670,-0.1838,1.0125,0.2383
12.5920,-0.1838,1.0125,0.2383
12.5930,-0.1838,1.0125,0.2383
12.5940,-0.1838,1.0125,0.2383
12.5950,-0.1826,1.0101,0.2461
12.5960,-0.1823,1.0096,0.2588
12.6140,-0.1823,1.0096,0.2588
12.6150,-0.1823,1.0096,0.2588
12.6160,-0.1823,1.0096,0.2588
12.6170,-0.1874,1.0098,0.2468
12.6190,-0.1874,1.0098,0.2468
12.6310,-0.1874,1.0098,0.2468
12.6440,-0.1874,1.0098,0.2468
12.6450,-0.1874,1.0098,0.2468
12.6740,-0.1874,1.0098,0.2468
12.6780,-0.1855,1.0076,0.2478
12.6800,-0.1855,1.0076,0.2478
12.6810,-0.1855,1.0076,0.2478
12.6820,-0.1855,1.0076,0.2478
12.6870,-0.1921,1.0164,0.2429
12.6880,-0.1945,1.0103,0.2327
12.6950,-0.1945,1.0103,0.2327
12.6960,-0.1945,1.0103,0.2327
12.6960,-0.1945,1.0103,0.2327
12.6960,-0.1940,1.0062,0.2642
12.6970,-0.1940,1.0062,0.2642
12.7220,-0.1940,1.0062,0.2642
12.7230,-0.1940,1.0062,0.2642
12.7230,-0.1940,1.0062,0.2642
12.7240,-0.1975,1.0252,0.2437
12.7540,-0.1975,1.0252,0.2437
12.7540,-0.1975,1.0252,0.2437
12.7540,-0.1975,1.0252,0.2437
12.7550,-0.1953,1.0338,0.2319
12.7550,-0.1972,1.0125,0.2400
12.7740,-0.1972,1.0125,0.2400
12.7750,-0.1972,1.0125,0.2400
12.7750,-0.1972,1.0125,0.2400
12.7760,-0.1938,1.0084,0.2476
12.7760,-0.1938,1.0084,0.2476
12.8040,-0.1938,1.0084,0.2476
12.8050,-0.1938,1.0084,0.2476
12.8050,-0.1938,1.0084,0.2476
12.8060,-0.1977,1.0172,0.2280
