
time,AccelerometerX,AccelerometerY,AccelerometerZ
0.0110,-0.2854,1.0215,0.1425
0.0110,-0.2854,1.0215,0.1425
0.0120,-0.2854,1.0215,0.1425
0.0120,-0.2248,0.9978,0.1300
0.0120,-0.2248,0.9978,0.1300
0.0270,-0.2248,0.9978,0.1300
0.0280,-0.2248,0.9978,0.1300
0.0280,-0.2248,0.9978,0.1300
0.0650,-0.1747,1.0140,0.1769
0.0650,-0.1422,0.9900,0.2265
0.0660,-0.1422,0.9900,0.2265
0.0660,-0.1422,0.9900,0.2265
0.0660,-0.1422,0.9900,0.2265
0.0670,-0.2065,0.9868,0.3016
0.0670,-0.2065,0.9868,0.3016
0.0780,-0.2065,0.9868,0.3016
0.0790,-0.2065,0.9868,0.3016
0.0790,-0.2065,0.9868,0.3016
0.0790,-0.2784,0.9851,0.2801
0.0800,-0.2784,0.9851,0.2801
0.1080,-0.2784,0.9851,0.2801
0.1080,-0.2784,0.9851,0.2801
0.1080,-0.2784,0.9851,0.2801
0.1090,-0.2647,0.9942,0.2828
0.1090,-0.1796,1.0401,0.2974
0.1380,-0.1796,1.0401,0.2974
0.1380,-0.1796,1.0401,0.2974
0.1380,-0.1796,1.0401,0.2974
0.1390,-0.0868,1.0763,0.2720
0.1580,-0.0868,1.0763,0.2720
0.1590,-0.0868,1.0763,0.2720
0.1590,-0.0868,1.0763,0.2720
0.1590,-0.0978,1.0797,0.1625
0.1600,-0.0978,1.0797,0.1625
0.1870,-0.0978,1.0797,0.1625
0.1880,-0.0978,1.0797,0.1625
0.1880,-0.0978,1.0797,0.1625
0.1880,-0.1936,1.0330,0.1992
0.1890,-0.2165,0.9849,0.3597
0.2190,-0.2165,0.9849,0.3597
0.2190,-0.2165,0.9849,0.3597
0.2190,-0.2165,0.9849,0.3597
0.2200,-0.2217,0.9822,0.3248
0.2390,-0.2217,0.9822,0.3248
0.2390,-0.2217,0.9822,0.3248
0.2390,-0.2217,0.9822,0.3248
0.2400,-0.2307,0.9766,0.2473
0.2400,-0.2307,0.9766,0.2473
0.2610,-0.2307,0.9766,0.2473
0.2690,-0.2307,0.9766,0.2473
0.2690,-0.2307,0.9766,0.2473
0.2700,-0.2307,0.9766,0.2473
0.2700,-0.2520,0.9856,0.2109
0.2700,-0.2622,1.0032,0.1901
0.2990,-0.2622,1.0032,0.1901
0.2990,-0.2622,1.0032,0.1901
0.3000,-0.2622,1.0032,0.1901
0.3000,-0.2547,1.0030,0.2280
0.3190,-0.2547,1.0030,0.2280
0.3200,-0.2547,1.0030,0.2280
0.3200,-0.2547,1.0030,0.2280
0.3200,-0.2222,0.9920,0.2505
0.3210,-0.2222,0.9920,0.2505
0.3480,-0.2222,0.9920,0.2505
0.3480,-0.2222,0.9920,0.2505
0.3480,-0.2222,0.9920,0.2505
0.3490,-0.1826,0.9793,0.2273
0.3490,-0.1657,0.9944,0.2441
0.3780,-0.1657,0.9944,0.2441
0.3780,-0.1657,0.9944,0.2441
0.3850,-0.1657,0.9944,0.2441
0.3850,-0.1877,1.0054,0.2881
0.4010,-0.1877,1.0054,0.2881
0.4010,-0.1877,1.0054,0.2881
0.4020,-0.1877,1.0054,0.2881
0.4020,-0.2109,1.0130,0.3260
0.4020,-0.2109,1.0130,0.3260
0.4290,-0.2109,1.0130,0.3260
0.4290,-0.2109,1.0130,0.3260
0.4300,-0.2109,1.0130,0.3260
0.4300,-0.1999,1.0457,0.3380
0.4300,-0.1928,1.0768,0.2808
0.4610,-0.1928,1.0768,0.2808
0.4610,-0.1928,1.0768,0.2808
0.4620,-0.1928,1.0768,0.2808
0.4620,-0.2016,1.0577,0.2505
0.4620,-0.2016,1.0577,0.2505
0.4640,-0.2016,1.0577,0.2505
0.4790,-0.2016,1.0577,0.2505
0.4800,-0.2016,1.0577,0.2505
0.4800,-0.2016,1.0577,0.2505
0.4800,-0.2065,1.0255,0.2820
0.4800,-0.2065,1.0255,0.2820
0.5080,-0.2065,1.0255,0.2820
0.5090,-0.2065,1.0255,0.2820
0.5090,-0.2065,1.0255,0.2820
0.5090,-0.1987,0.9893,0.3008
0.5090,-0.2119,0.9634,0.3133
0.5380,-0.2119,0.9634,0.3133
0.5390,-0.2119,0.9634,0.3133
0.5390,-0.2119,0.9634,0.3133
0.5390,-0.2187,0.9612,0.2947
0.5590,-0.2187,0.9612,0.2947
0.5600,-0.2187,0.9612,0.2947
0.5600,-0.2187,0.9612,0.2947
0.5610,-0.2065,0.9800,0.2630
0.5610,-0.2065,0.9800,0.2630
0.5890,-0.2065,0.9800,0.2630
0.5890,-0.2065,0.9800,0.2630
0.5890,-0.2065,0.9800,0.2630
0.5900,-0.2068,0.9964,0.2305
0.5900,-0.2270,1.0098,0.2358
0.6190,-0.2270,1.0098,0.2358
0.6200,-0.2270,1.0098,0.2358
0.6200,-0.2270,1.0098,0.2358
0.6210,-0.2432,1.0130,0.2307
0.6390,-0.2432,1.0130,0.2307
0.6400,-0.2432,1.0130,0.2307
0.6400,-0.2432,1.0130,0.2307
0.6410,-0.2258,0.9974,0.2578
0.6410,-0.2258,0.9974,0.2578
0.6610,-0.2258,0.9974,0.2578
0.6650,-0.2258,0.9974,0.2578
0.6690,-0.2258,0.9974,0.2578
0.6690,-0.2258,0.9974,0.2578
0.6690,-0.2258,0.9974,0.2578
0.6710,-0.2234,0.9817,0.2940
0.6710,-0.2334,0.9925,0.2791
0.7000,-0.2334,0.9925,0.2791
0.7000,-0.2334,0.9925,0.2791
0.7010,-0.2334,0.9925,0.2791
0.7010,-0.2490,1.0059,0.2698
0.7190,-0.2490,1.0059,0.2698
0.7200,-0.2490,1.0059,0.2698
0.7200,-0.2490,1.0059,0.2698
0.7210,-0.2410,1.0093,0.2867
0.7210,-0.2410,1.0093,0.2867
0.7510,-0.2410,1.0093,0.2867
0.7520,-0.2410,1.0093,0.2867
0.7520,-0.2410,1.0093,0.2867
0.7530,-0.2138,1.0179,0.2788
0.7530,-0.1987,1.0157,0.2476
0.7800,-0.1987,1.0157,0.2476
0.7800,-0.1987,1.0157,0.2476
0.7810,-0.1987,1.0157,0.2476
0.7810,-0.2085,1.0049,0.2478
0.7990,-0.2085,1.0049,0.2478
0.8010,-0.2085,1.0049,0.2478
0.8010,-0.2085,1.0049,0.2478
0.8030,-0.2339,0.9912,0.2652
0.8030,-0.2339,0.9912,0.2652
0.8300,-0.2339,0.9912,0.2652
0.8310,-0.2339,0.9912,0.2652
0.8310,-0.2339,0.9912,0.2652
0.8320,-0.2353,0.9844,0.2718
0.8320,-0.2248,0.9900,0.2654
0.8620,-0.2248,0.9900,0.2654
0.8620,-0.2248,0.9900,0.2654
0.8620,-0.2248,0.9900,0.2654
0.8630,-0.2265,1.0005,0.2439
0.8630,-0.2265,1.0005,0.2439
0.8650,-0.2265,1.0005,0.2439
0.8800,-0.2265,1.0005,0.2439
0.8810,-0.2265,1.0005,0.2439
0.8810,-0.2265,1.0005,0.2439
0.8820,-0.2248,0.9966,0.2500
0.8820,-0.2248,0.9966,0.2500
0.9100,-0.2248,0.9966,0.2500
0.9100,-0.2248,0.9966,0.2500
0.9100,-0.2248,0.9966,0.2500
0.9340,-0.2324,0.9986,0.2637
0.9350,-0.2373,0.9971,0.2600
0.9390,-0.2373,0.9971,0.2600
0.9390,-0.2373,0.9971,0.2600
0.9400,-0.2373,0.9971,0.2600
0.9400,-0.2314,0.9903,0.2657
0.9600,-0.2314,0.9903,0.2657
0.9600,-0.2314,0.9903,0.2657
0.9610,-0.2314,0.9903,0.2657
0.9610,-0.2312,0.9893,0.2569
0.9610,-0.2312,0.9893,0.2569
0.9890,-0.2312,0.9893,0.2569
0.9900,-0.2312,0.9893,0.2569
0.9900,-0.2312,0.9893,0.2569
0.9900,-0.2307,0.9944,0.2559
0.9900,-0.2275,1.0064,0.2498
1.0200,-0.2275,1.0064,0.2498
1.0200,-0.2275,1.0064,0.2498
1.0200,-0.2275,1.0064,0.2498
1.0210,-0.2297,0.9934,0.2617
1.0400,-0.2297,0.9934,0.2617
1.0400,-0.2297,0.9934,0.2617
1.0400,-0.2297,0.9934,0.2617
1.0410,-0.2463,0.9758,0.2872
1.0410,-0.2463,0.9758,0.2872
1.0610,-0.2463,0.9758,0.2872
1.0630,-0.2463,0.9758,0.2872
1.0690,-0.2463,0.9758,0.2872
1.0690,-0.2463,0.9758,0.2872
1.0700,-0.2463,0.9758,0.2872
1.0710,-0.2583,0.9930,0.2691
1.0720,-0.2432,1.0069,0.2459
1.1000,-0.2432,1.0069,0.2459
1.1000,-0.2432,1.0069,0.2459
1.1010,-0.2432,1.0069,0.2459
1.1010,-0.2217,0.9981,0.2591
1.1210,-0.2217,0.9981,0.2591
1.1210,-0.2217,0.9981,0.2591
1.1220,-0.2217,0.9981,0.2591
1.1220,-0.2219,0.9866,0.2688
1.1220,-0.2219,0.9866,0.2688
1.1490,-0.2219,0.9866,0.2688
1.1500,-0.2219,0.9866,0.2688
1.1500,-0.2219,0.9866,0.2688
1.1500,-0.2485,0.9993,0.2720
1.1510,-0.2534,1.0022,0.2764
1.1790,-0.2534,1.0022,0.2764
1.1790,-0.2534,1.0022,0.2764
1.1800,-0.2534,1.0022,0.2764
1.1800,-0.2236,0.9922,0.2788
1.2000,-0.2236,0.9922,0.2788
1.2010,-0.2236,0.9922,0.2788
1.2010,-0.2236,0.9922,0.2788
1.2010,-0.2148,0.9944,0.2732
1.2020,-0.2148,0.9944,0.2732
1.2290,-0.2148,0.9944,0.2732
1.2300,-0.2148,0.9944,0.2732
1.2300,-0.2148,0.9944,0.2732
1.2310,-0.2165,1.0003,0.2522
1.2310,-0.2219,1.0062,0.2525
1.2610,-0.2219,1.0062,0.2525
1.2620,-0.2219,1.0062,0.2525
1.2620,-0.2219,1.0062,0.2525
1.2620,-0.2300,1.0113,0.2657
1.2630,-0.2300,1.0113,0.2657
1.2640,-0.2300,1.0113,0.2657
1.2800,-0.2300,1.0113,0.2657
1.2810,-0.2300,1.0113,0.2657
1.2810,-0.2300,1.0113,0.2657
1.2810,-0.2368,1.0047,0.2788
1.2820,-0.2368,1.0047,0.2788
1.3100,-0.2368,1.0047,0.2788
1.3100,-0.2368,1.0047,0.2788
1.3110,-0.2368,1.0047,0.2788
1.3110,-0.2200,0.9944,0.2918
1.3120,-0.2207,0.9983,0.2832
1.3400,-0.2207,0.9983,0.2832
1.3400,-0.2207,0.9983,0.2832
1.3400,-0.2207,0.9983,0.2832
1.3410,-0.2297,1.0076,0.2478
1.3600,-0.2297,1.0076,0.2478
1.3610,-0.2297,1.0076,0.2478
1.3610,-0.2297,1.0076,0.2478
1.3610,-0.2160,0.9912,0.2432
1.3620,-0.2160,0.9912,0.2432
1.3900,-0.2160,0.9912,0.2432
1.3910,-0.2160,0.9912,0.2432
1.3910,-0.2160,0.9912,0.2432
1.3910,-0.2178,0.9900,0.2639
1.3920,-0.2212,1.0049,0.2935
1.4200,-0.2212,1.0049,0.2935
1.4200,-0.2212,1.0049,0.2935
1.4210,-0.2212,1.0049,0.2935
1.4210,-0.2119,1.0169,0.2727
1.4410,-0.2119,1.0169,0.2727
1.4410,-0.2119,1.0169,0.2727
1.4420,-0.2119,1.0169,0.2727
1.4420,-0.2036,0.9954,0.2654
1.4420,-0.2036,0.9954,0.2654
1.4610,-0.2036,0.9954,0.2654
1.4680,-0.2036,0.9954,0.2654
1.4710,-0.2036,0.9954,0.2654
1.4720,-0.2036,0.9954,0.2654
1.4720,-0.2036,0.9954,0.2654
1.4720,-0.2006,0.9873,0.2891
1.4730,-0.2116,1.0115,0.2749
1.5000,-0.2116,1.0115,0.2749
1.5010,-0.2116,1.0115,0.2749
1.5010,-0.2116,1.0115,0.2749
1.5010,-0.2363,1.0179,0.2561
1.5220,-0.2363,1.0179,0.2561
1.5230,-0.2363,1.0179,0.2561
1.5260,-0.2363,1.0179,0.2561
1.5270,-0.2163,0.9927,0.2630
1.5280,-0.2163,0.9927,0.2630
1.5510,-0.2163,0.9927,0.2630
1.5530,-0.2163,0.9927,0.2630
1.5540,-0.2163,0.9927,0.2630
1.5550,-0.2050,1.0096,0.2566
1.5560,-0.2016,1.0250,0.2566
1.5820,-0.2016,1.0250,0.2566
1.5830,-0.2016,1.0250,0.2566
1.5830,-0.2016,1.0250,0.2566
1.5840,-0.1984,1.0008,0.2889
1.6010,-0.1984,1.0008,0.2889
1.6020,-0.1984,1.0008,0.2889
1.6030,-0.1984,1.0008,0.2889
1.6030,-0.2060,0.9751,0.3062
1.6040,-0.2060,0.9751,0.3062
1.6320,-0.2060,0.9751,0.3062
1.6330,-0.2060,0.9751,0.3062
1.6340,-0.2060,0.9751,0.3062
1.6350,-0.2285,0.9876,0.2896
1.6360,-0.2353,1.0128,0.2637
1.6640,-0.2353,1.0128,0.2637
1.6650,-0.2353,1.0128,0.2637
1.6660,-0.2353,1.0128,0.2637
1.6670,-0.2114,1.0084,0.2595
1.6680,-0.2114,1.0084,0.2595
1.6690,-0.2114,1.0084,0.2595
1.6830,-0.2114,1.0084,0.2595
1.6830,-0.2114,1.0084,0.2595
1.6850,-0.2114,1.0084,0.2595
1.6850,-0.2038,1.0081,0.2825
1.6860,-0.2038,1.0081,0.2825
1.7130,-0.2038,1.0081,0.2825
1.7140,-0.2038,1.0081,0.2825
1.7170,-0.2038,1.0081,0.2825
1.7180,-0.1994,1.0167,0.2801
1.7180,-0.1965,1.0025,0.2627
1.7430,-0.1965,1.0025,0.2627
1.7440,-0.1965,1.0025,0.2627
1.7450,-0.1965,1.0025,0.2627
1.7460,-0.2112,0.9861,0.2801
1.7620,-0.2112,0.9861,0.2801
1.7630,-0.2112,0.9861,0.2801
1.7650,-0.2112,0.9861,0.2801
1.7650,-0.2107,0.9976,0.2830
1.7660,-0.2107,0.9976,0.2830
1.7980,-0.2107,0.9976,0.2830
1.8000,-0.2107,0.9976,0.2830
1.8010,-0.2107,0.9976,0.2830
1.8020,-0.2168,1.0189,0.2503
1.8030,-0.2307,1.0059,0.2488
1.8220,-0.2307,1.0059,0.2488
1.8230,-0.2307,1.0059,0.2488
1.8340,-0.2307,1.0059,0.2488
1.8350,-0.2368,0.9903,0.2810
1.8420,-0.2368,0.9903,0.2810
1.8440,-0.2368,0.9903,0.2810
1.8440,-0.2368,0.9903,0.2810
1.8440,-0.2380,0.9986,0.2723
1.8450,-0.2380,0.9986,0.2723
1.8600,-0.2380,0.9986,0.2723
1.8700,-0.2380,0.9986,0.2723
1.8710,-0.2380,0.9986,0.2723
1.8710,-0.2380,0.9986,0.2723
1.8710,-0.2192,1.0057,0.2669
1.8710,-0.2129,1.0079,0.2639
1.9000,-0.2129,1.0079,0.2639
1.9000,-0.2129,1.0079,0.2639
1.9010,-0.2129,1.0079,0.2639
1.9010,-0.2109,1.0066,0.2434
1.9210,-0.2109,1.0066,0.2434
1.9210,-0.2109,1.0066,0.2434
1.9220,-0.2109,1.0066,0.2434
1.9220,-0.2024,1.0037,0.2527
1.9220,-0.2024,1.0037,0.2527
1.9550,-0.2024,1.0037,0.2527
1.9560,-0.2024,1.0037,0.2527
1.9580,-0.2024,1.0037,0.2527
1.9590,-0.2021,1.0000,0.2517
1.9600,-0.2107,0.9888,0.2683
1.9830,-0.2107,0.9888,0.2683
1.9830,-0.2107,0.9888,0.2683
1.9830,-0.2107,0.9888,0.2683
1.9840,-0.2114,0.9934,0.2752
2.0070,-0.2114,0.9934,0.2752
2.0080,-0.2114,0.9934,0.2752
2.0090,-0.2114,0.9934,0.2752
2.0350,-0.2222,1.0091,0.2622
2.0350,-0.2222,1.0091,0.2622
2.0360,-0.2222,1.0091,0.2622
2.0360,-0.2222,1.0091,0.2622
2.0370,-0.2222,1.0091,0.2622
2.0370,-0.2170,1.0132,0.2627
2.0380,-0.2082,1.0022,0.2666
2.0620,-0.2082,1.0022,0.2666
2.0620,-0.2082,1.0022,0.2666
2.0620,-0.2082,1.0022,0.2666
2.0630,-0.2195,1.0025,0.2466
2.0650,-0.2195,1.0025,0.2466
2.0820,-0.2195,1.0025,0.2466
2.0830,-0.2195,1.0025,0.2466
2.0830,-0.2195,1.0025,0.2466
2.0840,-0.2297,1.0069,0.2576
2.0850,-0.2297,1.0069,0.2576
2.1150,-0.2297,1.0069,0.2576
2.1160,-0.2297,1.0069,0.2576
2.1160,-0.2297,1.0069,0.2576
2.1170,-0.2305,1.0020,0.2679
2.1170,-0.2341,0.9949,0.2463
2.1410,-0.2341,0.9949,0.2463
2.1420,-0.2341,0.9949,0.2463
2.1430,-0.2341,0.9949,0.2463
2.1450,-0.2400,0.9927,0.2537
2.1620,-0.2400,0.9927,0.2537
2.1630,-0.2400,0.9927,0.2537
2.1640,-0.2400,0.9927,0.2537
2.1650,-0.2515,1.0025,0.2605
2.1660,-0.2515,1.0025,0.2605
2.1940,-0.2515,1.0025,0.2605
2.1960,-0.2515,1.0025,0.2605
2.1970,-0.2515,1.0025,0.2605
2.1980,-0.2371,0.9949,0.2610
2.1990,-0.2226,0.9881,0.2681
2.2230,-0.2226,0.9881,0.2681
2.2240,-0.2226,0.9881,0.2681
2.2250,-0.2226,0.9881,0.2681
2.2260,-0.2126,1.0084,0.2625
2.2430,-0.2126,1.0084,0.2625
2.2440,-0.2126,1.0084,0.2625
2.2450,-0.2126,1.0084,0.2625
2.2460,-0.2063,1.0218,0.2547
2.2480,-0.2063,1.0218,0.2547
2.2620,-0.2063,1.0218,0.2547
2.2740,-0.2063,1.0218,0.2547
2.2760,-0.2063,1.0218,0.2547
2.2780,-0.2063,1.0218,0.2547
2.2790,-0.1933,1.0084,0.2605
2.2800,-0.1999,0.9949,0.2693
2.3020,-0.1999,0.9949,0.2693
2.3030,-0.1999,0.9949,0.2693
2.3040,-0.1999,0.9949,0.2693
2.3050,-0.2251,1.0069,0.2571
2.3250,-0.2251,1.0069,0.2571
2.3260,-0.2251,1.0069,0.2571
2.3280,-0.2251,1.0069,0.2571
2.3280,-0.2468,1.0120,0.2586
2.3290,-0.2468,1.0120,0.2586
2.3550,-0.2468,1.0120,0.2586
2.3560,-0.2468,1.0120,0.2586
2.3570,-0.2468,1.0120,0.2586
2.3580,-0.2353,0.9959,0.2713
2.3590,-0.2102,0.9864,0.2595
2.3830,-0.2102,0.9864,0.2595
2.3850,-0.2102,0.9864,0.2595
2.3860,-0.2102,0.9864,0.2595
2.3870,-0.2173,1.0044,0.2468
2.4030,-0.2173,1.0044,0.2468
2.4040,-0.2173,1.0044,0.2468
2.4050,-0.2173,1.0044,0.2468
2.4060,-0.2334,1.0086,0.2498
2.4080,-0.2334,1.0086,0.2498
2.4330,-0.2334,1.0086,0.2498
2.4340,-0.2334,1.0086,0.2498
2.4350,-0.2334,1.0086,0.2498
2.4360,-0.2329,0.9905,0.2823
2.4370,-0.2190,0.9971,0.2774
2.4630,-0.2190,0.9971,0.2774
2.4660,-0.2190,0.9971,0.2774
2.4680,-0.2190,0.9971,0.2774
2.4690,-0.2190,0.9971,0.2774
2.4690,-0.2011,1.0108,0.2375
2.4850,-0.2011,1.0108,0.2375
2.4860,-0.2011,1.0108,0.2375
2.4870,-0.2011,1.0108,0.2375
2.4880,-0.2019,1.0047,0.2637
2.4890,-0.2019,1.0047,0.2637
2.5130,-0.2019,1.0047,0.2637
2.5150,-0.2019,1.0047,0.2637
2.5150,-0.2019,1.0047,0.2637
2.5160,-0.2087,1.0037,0.2781
2.5170,-0.2053,1.0071,0.2610
2.5450,-0.2053,1.0071,0.2610
2.5460,-0.2053,1.0071,0.2610
2.5470,-0.2053,1.0071,0.2610
2.5490,-0.2082,1.0093,0.2547
2.5630,-0.2082,1.0093,0.2547
2.5640,-0.2082,1.0093,0.2547
2.5840,-0.2082,1.0093,0.2547
2.5850,-0.2126,1.0132,0.2637
2.5860,-0.2126,1.0132,0.2637
2.5940,-0.2126,1.0132,0.2637
2.5940,-0.2126,1.0132,0.2637
2.5950,-0.2126,1.0132,0.2637
2.5960,-0.2158,1.0003,0.2686
2.5960,-0.2114,0.9883,0.2764
2.6220,-0.2114,0.9883,0.2764
2.6230,-0.2114,0.9883,0.2764
2.6240,-0.2114,0.9883,0.2764
2.6240,-0.2107,1.0020,0.2735
2.6450,-0.2107,1.0020,0.2735
2.6460,-0.2107,1.0020,0.2735
2.6470,-0.2107,1.0020,0.2735
2.6480,-0.2087,1.0147,0.2551
2.6490,-0.2087,1.0147,0.2551
2.6640,-0.2087,1.0147,0.2551
2.6730,-0.2087,1.0147,0.2551
2.6740,-0.2087,1.0147,0.2551
2.6750,-0.2087,1.0147,0.2551
2.6760,-0.2026,1.0096,0.2512
2.6760,-0.2019,1.0062,0.2752
2.7020,-0.2019,1.0062,0.2752
2.7030,-0.2019,1.0062,0.2752
2.7030,-0.2019,1.0062,0.2752
2.7040,-0.2165,1.0062,0.2727
2.7240,-0.2165,1.0062,0.2727
2.7250,-0.2165,1.0062,0.2727
2.7270,-0.2165,1.0062,0.2727
2.7280,-0.2170,1.0049,0.2657
2.7290,-0.2170,1.0049,0.2657
2.7540,-0.2170,1.0049,0.2657
2.7550,-0.2170,1.0049,0.2657
2.7550,-0.2170,1.0049,0.2657
2.7570,-0.2160,1.0115,0.2637
2.7580,-0.2055,1.0040,0.2549
2.7830,-0.2055,1.0040,0.2549
2.7840,-0.2055,1.0040,0.2549
2.7850,-0.2055,1.0040,0.2549
2.7860,-0.2024,1.0015,0.2664
2.8070,-0.2024,1.0015,0.2664
2.8080,-0.2024,1.0015,0.2664
2.8090,-0.2024,1.0015,0.2664
2.8100,-0.2119,0.9959,0.2544
2.8120,-0.2119,0.9959,0.2544
2.8350,-0.2119,0.9959,0.2544
2.8360,-0.2119,0.9959,0.2544
2.8380,-0.2119,0.9959,0.2544
2.8380,-0.2185,0.9886,0.2652
2.8410,-0.2182,1.0027,0.2757
2.8630,-0.2182,1.0027,0.2757
2.8660,-0.2182,1.0027,0.2757
2.8660,-0.2182,1.0027,0.2757
2.8670,-0.2182,1.0027,0.2757
2.8680,-0.2119,1.0189,0.2593
2.8840,-0.2119,1.0189,0.2593
2.8850,-0.2119,1.0189,0.2593
2.8860,-0.2119,1.0189,0.2593
2.8870,-0.2121,1.0049,0.2657
2.8880,-0.2121,1.0049,0.2657
2.9140,-0.2121,1.0049,0.2657
2.9150,-0.2121,1.0049,0.2657
2.9160,-0.2121,1.0049,0.2657
2.9160,-0.2195,0.9890,0.2735
2.9170,-0.2246,1.0020,0.2434
2.9450,-0.2246,1.0020,0.2434
2.9460,-0.2246,1.0020,0.2434
2.9470,-0.2246,1.0020,0.2434
2.9480,-0.2134,1.0022,0.2644
2.9640,-0.2134,1.0022,0.2644
2.9650,-0.2134,1.0022,0.2644
2.9660,-0.2134,1.0022,0.2644
2.9670,-0.1999,0.9996,0.2901
2.9680,-0.1999,0.9996,0.2901
2.9930,-0.1999,0.9996,0.2901
2.9950,-0.1999,0.9996,0.2901
2.9960,-0.1999,0.9996,0.2901
2.9970,-0.1980,0.9998,0.2703
2.9980,-0.2087,1.0035,0.2625
3.0250,-0.2087,1.0035,0.2625
3.0260,-0.2087,1.0035,0.2625
3.0270,-0.2087,1.0035,0.2625
3.0270,-0.2068,1.0091,0.2644
3.0440,-0.2068,1.0091,0.2644
3.0450,-0.2068,1.0091,0.2644
3.0460,-0.2068,1.0091,0.2644
3.0460,-0.2028,1.0052,0.2661
3.0470,-0.2028,1.0052,0.2661
3.0630,-0.2028,1.0052,0.2661
3.0750,-0.2028,1.0052,0.2661
3.0770,-0.2028,1.0052,0.2661
3.0780,-0.2028,1.0052,0.2661
3.0790,-0.2024,1.0044,0.2632
3.0810,-0.2090,1.0101,0.2608
3.1060,-0.2090,1.0101,0.2608
3.1070,-0.2090,1.0101,0.2608
3.1080,-0.2090,1.0101,0.2608
3.1090,-0.2197,1.0035,0.2698
3.1250,-0.2197,1.0035,0.2698
3.1490,-0.2197,1.0035,0.2698
3.1500,-0.2197,1.0035,0.2698
3.1500,-0.2305,0.9988,0.2766
3.1510,-0.2305,0.9988,0.2766
3.1550,-0.2305,0.9988,0.2766
3.1580,-0.2305,0.9988,0.2766
3.1600,-0.2305,0.9988,0.2766
3.1610,-0.2270,1.0013,0.2610
3.1610,-0.2138,1.0015,0.2532
3.1820,-0.2138,1.0015,0.2532
3.1830,-0.2138,1.0015,0.2532
3.1830,-0.2138,1.0015,0.2532
3.1840,-0.2104,1.0030,0.2586
3.2030,-0.2104,1.0030,0.2586
3.2040,-0.2104,1.0030,0.2586
3.2050,-0.2104,1.0030,0.2586
3.2050,-0.2068,1.0086,0.2559
3.2050,-0.2068,1.0086,0.2559
3.2330,-0.2068,1.0086,0.2559
3.2340,-0.2068,1.0086,0.2559
3.2350,-0.2068,1.0086,0.2559
3.2360,-0.2036,0.9971,0.2644
3.2370,-0.2048,0.9991,0.2696
3.2640,-0.2048,0.9991,0.2696
3.2660,-0.2048,0.9991,0.2696
3.2660,-0.2048,0.9991,0.2696
3.2670,-0.2048,0.9991,0.2696
3.2680,-0.2060,1.0108,0.2566
3.2880,-0.2060,1.0108,0.2566
3.2890,-0.2060,1.0108,0.2566
3.2910,-0.2060,1.0108,0.2566
3.2920,-0.2033,1.0101,0.2549
3.2930,-0.2033,1.0101,0.2549
3.3150,-0.2033,1.0101,0.2549
3.3160,-0.2033,1.0101,0.2549
3.3170,-0.2033,1.0101,0.2549
3.3180,-0.2019,1.0000,0.2661
3.3190,-0.2002,0.9983,0.2810
3.3450,-0.2002,0.9983,0.2810
3.3460,-0.2002,0.9983,0.2810
3.3460,-0.2002,0.9983,0.2810
3.3480,-0.2094,1.0093,0.2676
3.3660,-0.2094,1.0093,0.2676
3.3670,-0.2094,1.0093,0.2676
3.3680,-0.2094,1.0093,0.2676
3.3690,-0.2107,1.0103,0.2522
3.3700,-0.2107,1.0103,0.2522
3.3950,-0.2107,1.0103,0.2522
3.3950,-0.2107,1.0103,0.2522
3.3960,-0.2107,1.0103,0.2522
3.3970,-0.2087,1.0096,0.2610
3.3980,-0.2121,1.0054,0.2569
3.4240,-0.2121,1.0054,0.2569
3.4250,-0.2121,1.0054,0.2569
3.4260,-0.2121,1.0054,0.2569
3.4260,-0.2209,0.9993,0.2639
3.4450,-0.2209,0.9993,0.2639
3.4450,-0.2209,0.9993,0.2639
3.4460,-0.2209,0.9993,0.2639
3.4480,-0.2148,0.9952,0.2766
3.4490,-0.2148,0.9952,0.2766
3.4630,-0.2148,0.9952,0.2766
3.4760,-0.2148,0.9952,0.2766
3.4760,-0.2148,0.9952,0.2766
3.4770,-0.2148,0.9952,0.2766
3.4780,-0.1994,1.0071,0.2613
3.4790,-0.1938,1.0037,0.2578
3.5050,-0.1938,1.0037,0.2578
3.5060,-0.1938,1.0037,0.2578
3.5060,-0.1938,1.0037,0.2578
3.5080,-0.2107,0.9981,0.2801
3.5320,-0.2107,0.9981,0.2801
3.5330,-0.2107,0.9981,0.2801
3.5330,-0.2107,0.9981,0.2801
3.5330,-0.2160,1.0091,0.2671
3.5340,-0.2160,1.0091,0.2671
3.5550,-0.2160,1.0091,0.2671
3.5560,-0.2160,1.0091,0.2671
3.5560,-0.2160,1.0091,0.2671
3.5570,-0.1943,1.0259,0.2615
3.5570,-0.1799,1.0096,0.2661
3.5840,-0.1799,1.0096,0.2661
3.5840,-0.1799,1.0096,0.2661
3.5850,-0.1799,1.0096,0.2661
3.5850,-0.1914,0.9947,0.2764
3.6040,-0.1914,0.9947,0.2764
3.6050,-0.1914,0.9947,0.2764
3.6060,-0.1914,0.9947,0.2764
3.6070,-0.2182,1.0069,0.2652
3.6080,-0.2182,1.0069,0.2652
3.6330,-0.2182,1.0069,0.2652
3.6340,-0.2182,1.0069,0.2652
3.6340,-0.2182,1.0069,0.2652
3.6350,-0.2141,1.0115,0.2693
3.6350,-0.2043,1.0049,0.2659
3.6620,-0.2043,1.0049,0.2659
3.6650,-0.2043,1.0049,0.2659
3.6660,-0.2043,1.0049,0.2659
3.6670,-0.2043,1.0049,0.2659
3.6680,-0.2104,0.9988,0.2561
3.6870,-0.2104,0.9988,0.2561
3.6880,-0.2104,0.9988,0.2561
3.6880,-0.2104,0.9988,0.2561
3.6890,-0.2178,1.0108,0.2586
3.6900,-0.2178,1.0108,0.2586
3.7130,-0.2178,1.0108,0.2586
3.7140,-0.2178,1.0108,0.2586
3.7140,-0.2178,1.0108,0.2586
3.7150,-0.2165,1.0074,0.2630
3.7150,-0.2031,0.9917,0.2788
3.7440,-0.2031,0.9917,0.2788
3.7450,-0.2031,0.9917,0.2788
3.7460,-0.2031,0.9917,0.2788
3.7470,-0.1980,0.9991,0.2583
3.7670,-0.1980,0.9991,0.2583
3.7670,-0.1980,0.9991,0.2583
3.7680,-0.1980,0.9991,0.2583
3.7690,-0.2048,1.0157,0.2473
3.7710,-0.2048,1.0157,0.2473
3.7950,-0.2048,1.0157,0.2473
3.7960,-0.2048,1.0157,0.2473
3.7960,-0.2048,1.0157,0.2473
3.7970,-0.2134,1.0096,0.2635
3.7980,-0.2036,1.0008,0.2674
3.8230,-0.2036,1.0008,0.2674
3.8240,-0.2036,1.0008,0.2674
3.8240,-0.2036,1.0008,0.2674
3.8250,-0.1818,1.0022,0.2503
3.8430,-0.1818,1.0022,0.2503
3.8440,-0.1818,1.0022,0.2503
3.8450,-0.1818,1.0022,0.2503
3.8450,-0.1938,1.0035,0.2591
3.8450,-0.1938,1.0035,0.2591
3.8610,-0.1938,1.0035,0.2591
3.8640,-0.1938,1.0035,0.2591
3.8750,-0.1938,1.0035,0.2591
3.8760,-0.1938,1.0035,0.2591
3.8760,-0.1938,1.0035,0.2591
3.8770,-0.2143,1.0066,0.2681
3.8780,-0.2134,1.0015,0.2659
3.9030,-0.2134,1.0015,0.2659
3.9050,-0.2134,1.0015,0.2659
3.9060,-0.2134,1.0015,0.2659
3.9070,-0.2036,1.0145,0.2630
3.9250,-0.2036,1.0145,0.2630
3.9260,-0.2036,1.0145,0.2630
3.9270,-0.2036,1.0145,0.2630
3.9280,-0.2107,1.0189,0.2642
3.9290,-0.2107,1.0189,0.2642
3.9550,-0.2107,1.0189,0.2642
3.9570,-0.2107,1.0189,0.2642
3.9580,-0.2107,1.0189,0.2642
3.9590,-0.2114,1.0027,0.2586
3.9600,-0.2014,0.9920,0.2725
3.9850,-0.2014,0.9920,0.2725
3.9860,-0.2014,0.9920,0.2725
3.9870,-0.2014,0.9920,0.2725
3.9880,-0.1999,1.0074,0.2764
4.0050,-0.1999,1.0074,0.2764
4.0060,-0.1999,1.0074,0.2764
4.0070,-0.1999,1.0074,0.2764
4.0080,-0.2058,1.0169,0.2671
4.0090,-0.2058,1.0169,0.2671
4.0360,-0.2058,1.0169,0.2671
4.0370,-0.2058,1.0169,0.2671
4.0380,-0.2058,1.0169,0.2671
4.0390,-0.2046,1.0130,0.2544
4.0400,-0.2006,0.9939,0.2515
4.0630,-0.2006,0.9939,0.2515
4.0660,-0.2006,0.9939,0.2515
4.0670,-0.2006,0.9939,0.2515
4.0680,-0.2006,0.9939,0.2515
4.0680,-0.2124,0.9925,0.2727
4.0850,-0.2124,0.9925,0.2727
4.0850,-0.2124,0.9925,0.2727
4.0860,-0.2124,0.9925,0.2727
4.0860,-0.2287,0.9991,0.2671
4.0870,-0.2287,0.9991,0.2671
4.1150,-0.2287,0.9991,0.2671
4.1150,-0.2287,0.9991,0.2671
4.1160,-0.2287,0.9991,0.2671
4.1160,-0.2192,1.0030,0.2576
4.1160,-0.2006,1.0054,0.2642
4.1450,-0.2006,1.0054,0.2642
4.1450,-0.2006,1.0054,0.2642
4.1450,-0.2006,1.0054,0.2642
4.1460,-0.2104,1.0015,0.2679
4.1650,-0.2104,1.0015,0.2679
4.1650,-0.2104,1.0015,0.2679
4.1660,-0.2104,1.0015,0.2679
4.1660,-0.2226,1.0040,0.2749
4.1660,-0.2226,1.0040,0.2749
4.1960,-0.2226,1.0040,0.2749
4.1960,-0.2226,1.0040,0.2749
4.1960,-0.2226,1.0040,0.2749
4.1970,-0.2109,1.0113,0.2583
4.1970,-0.1899,1.0118,0.2632
4.2280,-0.1899,1.0118,0.2632
4.2290,-0.1899,1.0118,0.2632
4.2290,-0.1899,1.0118,0.2632
4.2480,-0.1984,0.9998,0.2762
4.2480,-0.1984,0.9998,0.2762
4.2490,-0.1984,0.9998,0.2762
4.2490,-0.1984,0.9998,0.2762
4.2490,-0.2143,1.0015,0.2757
4.2500,-0.2143,1.0015,0.2757
4.2640,-0.2143,1.0015,0.2757
4.2760,-0.2143,1.0015,0.2757
4.2760,-0.2143,1.0015,0.2757
4.2760,-0.2143,1.0015,0.2757
4.2790,-0.2036,1.0018,0.2659
4.2790,-0.1977,1.0062,0.2554
4.3060,-0.1977,1.0062,0.2554
4.3060,-0.1977,1.0062,0.2554
4.3070,-0.1977,1.0062,0.2554
4.3090,-0.2063,1.0135,0.2576
4.3270,-0.2063,1.0135,0.2576
4.3310,-0.2063,1.0135,0.2576
4.3310,-0.2063,1.0135,0.2576
4.3310,-0.2109,1.0132,0.2510
4.3320,-0.2109,1.0132,0.2510
4.3540,-0.2109,1.0132,0.2510
4.3550,-0.2109,1.0132,0.2510
4.3550,-0.2109,1.0132,0.2510
4.3550,-0.2033,1.0071,0.2525
4.3560,-0.2060,0.9959,0.2808
4.3880,-0.2060,0.9959,0.2808
4.3880,-0.2060,0.9959,0.2808
4.3880,-0.2060,0.9959,0.2808
4.3880,-0.2104,0.9959,0.2747
4.4070,-0.2104,0.9959,0.2747
4.4100,-0.2104,0.9959,0.2747
4.4100,-0.2104,0.9959,0.2747
4.4100,-0.2075,1.0027,0.2488
4.4100,-0.2075,1.0027,0.2488
4.4360,-0.2075,1.0027,0.2488
4.4360,-0.2075,1.0027,0.2488
4.4360,-0.2075,1.0027,0.2488
4.4390,-0.2028,1.0088,0.2551
4.4390,-0.2019,1.0132,0.2666
4.4640,-0.2019,1.0132,0.2666
4.4670,-0.2019,1.0132,0.2666
4.4680,-0.2019,1.0132,0.2666
4.4680,-0.2019,1.0132,0.2666
4.4680,-0.2055,1.0128,0.2664
4.4680,-0.2055,1.0128,0.2664
4.4860,-0.2055,1.0128,0.2664
4.4900,-0.2055,1.0128,0.2664
4.4910,-0.2055,1.0128,0.2664
4.4910,-0.1965,1.0076,0.2649
4.4910,-0.1965,1.0076,0.2649
4.5150,-0.1965,1.0076,0.2649
4.5150,-0.1965,1.0076,0.2649
4.5160,-0.1965,1.0076,0.2649
4.5180,-0.1918,1.0018,0.2605
4.5180,-0.2036,1.0010,0.2688
4.5470,-0.2036,1.0010,0.2688
4.5480,-0.2036,1.0010,0.2688
4.5480,-0.2036,1.0010,0.2688
4.5500,-0.2050,1.0098,0.2654
4.5670,-0.2050,1.0098,0.2654
4.5700,-0.2050,1.0098,0.2654
4.5710,-0.2050,1.0098,0.2654
4.5710,-0.1999,1.0132,0.2600
4.5710,-0.1999,1.0132,0.2600
4.5950,-0.1999,1.0132,0.2600
4.5960,-0.1999,1.0132,0.2600
4.5960,-0.1999,1.0132,0.2600
4.5980,-0.1989,1.0057,0.2749
4.5980,-0.2028,0.9986,0.2718
4.6270,-0.2028,0.9986,0.2718
4.6270,-0.2028,0.9986,0.2718
4.6280,-0.2028,0.9986,0.2718
4.6280,-0.2099,1.0074,0.2537
4.6470,-0.2099,1.0074,0.2537
4.6500,-0.2099,1.0074,0.2537
4.6500,-0.2099,1.0074,0.2537
4.6510,-0.2094,0.9981,0.2605
4.6510,-0.2094,0.9981,0.2605
4.6640,-0.2094,0.9981,0.2605
4.6660,-0.2094,0.9981,0.2605
4.6770,-0.2094,0.9981,0.2605
4.6780,-0.2094,0.9981,0.2605
4.6780,-0.2094,0.9981,0.2605
4.6780,-0.2126,0.9998,0.2793
4.6790,-0.2234,1.0123,0.2595
4.7070,-0.2234,1.0123,0.2595
4.7080,-0.2234,1.0123,0.2595
4.7080,-0.2234,1.0123,0.2595
4.7090,-0.2200,1.0191,0.2449
4.7280,-0.2200,1.0191,0.2449
4.7310,-0.2200,1.0191,0.2449
4.7310,-0.2200,1.0191,0.2449
4.7320,-0.2148,1.0015,0.2564
4.7320,-0.2148,1.0015,0.2564
4.7570,-0.2148,1.0015,0.2564
4.7580,-0.2148,1.0015,0.2564
4.7580,-0.2148,1.0015,0.2564
4.7600,-0.2175,0.9878,0.2737
4.7600,-0.2163,1.0008,0.2632
4.7860,-0.2163,1.0008,0.2632
4.7870,-0.2163,1.0008,0.2632
4.7870,-0.2163,1.0008,0.2632
4.7880,-0.2058,1.0035,0.2598
4.8080,-0.2058,1.0035,0.2598
4.8110,-0.2058,1.0035,0.2598
4.8120,-0.2058,1.0035,0.2598
4.8120,-0.2028,1.0005,0.2664
4.8120,-0.2028,1.0005,0.2664
4.8350,-0.2028,1.0005,0.2664
4.8350,-0.2028,1.0005,0.2664
4.8360,-0.2028,1.0005,0.2664
4.8360,-0.2070,1.0062,0.2569
4.8360,-0.2222,1.0118,0.2532
4.8640,-0.2222,1.0118,0.2532
4.8670,-0.2222,1.0118,0.2532
4.8680,-0.2222,1.0118,0.2532
4.8680,-0.2222,1.0118,0.2532
4.8680,-0.2261,1.0030,0.2564
4.8690,-0.2261,1.0030,0.2564
4.8870,-0.2261,1.0030,0.2564
4.8890,-0.2261,1.0030,0.2564
4.8890,-0.2261,1.0030,0.2564
4.8900,-0.2146,0.9956,0.2649
4.8900,-0.2146,0.9956,0.2649
4.9150,-0.2146,0.9956,0.2649
4.9150,-0.2146,0.9956,0.2649
4.9150,-0.2146,0.9956,0.2649
4.9160,-0.2094,0.9952,0.2608
4.9160,-0.2126,0.9993,0.2671
4.9480,-0.2126,0.9993,0.2671
4.9480,-0.2126,0.9993,0.2671
4.9480,-0.2126,0.9993,0.2671
4.9490,-0.2138,1.0030,0.2679
4.9670,-0.2138,1.0030,0.2679
4.9710,-0.2138,1.0030,0.2679
4.9710,-0.2138,1.0030,0.2679
4.9720,-0.2116,1.0132,0.2483
4.9720,-0.2116,1.0132,0.2483
4.9980,-0.2116,1.0132,0.2483
4.9980,-0.2116,1.0132,0.2483
4.9990,-0.2116,1.0132,0.2483
4.9990,-0.2209,1.0118,0.2473
4.9990,-0.2270,0.9927,0.2566
5.0280,-0.2270,0.9927,0.2566
5.0280,-0.2270,0.9927,0.2566
5.0290,-0.2270,0.9927,0.2566
5.0290,-0.2224,0.9878,0.2757
5.0490,-0.2224,0.9878,0.2757
5.0490,-0.2224,0.9878,0.2757
5.0500,-0.2224,0.9878,0.2757
5.0500,-0.2146,1.0003,0.2744
5.0510,-0.2146,1.0003,0.2744
5.0640,-0.2146,1.0003,0.2744
5.0780,-0.2146,1.0003,0.2744
5.0780,-0.2146,1.0003,0.2744
5.0790,-0.2146,1.0003,0.2744
5.0790,-0.2102,1.0079,0.2639
5.0800,-0.2102,1.0084,0.2527
5.1050,-0.2102,1.0084,0.2527
5.1060,-0.2102,1.0084,0.2527
5.1060,-0.2102,1.0084,0.2527
5.1060,-0.2126,1.0042,0.2449
5.1260,-0.2126,1.0042,0.2449
5.1270,-0.2126,1.0042,0.2449
5.1270,-0.2126,1.0042,0.2449
5.1270,-0.2195,1.0035,0.2639
5.1280,-0.2195,1.0035,0.2639
5.1560,-0.2195,1.0035,0.2639
5.1560,-0.2195,1.0035,0.2639
5.1570,-0.2195,1.0035,0.2639
5.1570,-0.2241,1.0059,0.2588
5.1570,-0.2182,1.0037,0.2571
5.1850,-0.2182,1.0037,0.2571
5.1850,-0.2182,1.0037,0.2571
5.1860,-0.2182,1.0037,0.2571
5.1860,-0.2114,0.9890,0.2781
5.2070,-0.2114,0.9890,0.2781
5.2070,-0.2114,0.9890,0.2781
5.2080,-0.2114,0.9890,0.2781
5.2090,-0.2109,0.9900,0.2845
5.2090,-0.2109,0.9900,0.2845
5.2360,-0.2109,0.9900,0.2845
5.2370,-0.2109,0.9900,0.2845
5.2370,-0.2109,0.9900,0.2845
5.2380,-0.2226,1.0093,0.2576
5.2380,-0.2261,1.0174,0.2417
5.2630,-0.2261,1.0174,0.2417
5.2640,-0.2261,1.0174,0.2417
5.2670,-0.2261,1.0174,0.2417
5.2680,-0.2261,1.0174,0.2417
5.2680,-0.2261,1.0174,0.2417
5.2690,-0.2290,1.0093,0.2610
5.2860,-0.2290,1.0093,0.2610
5.2870,-0.2290,1.0093,0.2610
5.2880,-0.2290,1.0093,0.2610
5.2880,-0.2307,0.9978,0.2510
5.2880,-0.2307,0.9978,0.2510
5.3160,-0.2307,0.9978,0.2510
5.3160,-0.2307,0.9978,0.2510
5.3260,-0.2307,0.9978,0.2510
5.3260,-0.2278,0.9898,0.2713
5.3260,-0.2236,0.9893,0.2803
5.3490,-0.2236,0.9893,0.2803
5.3500,-0.2236,0.9893,0.2803
5.3500,-0.2236,0.9893,0.2803
5.3500,-0.2136,1.0044,0.2581
5.3650,-0.2136,1.0044,0.2581
5.3660,-0.2136,1.0044,0.2581
5.3660,-0.2136,1.0044,0.2581
5.3670,-0.2099,1.0162,0.2349
5.3670,-0.2099,1.0162,0.2349
5.3950,-0.2099,1.0162,0.2349
5.3960,-0.2099,1.0162,0.2349
5.3960,-0.2099,1.0162,0.2349
5.3960,-0.2234,1.0120,0.2605
5.3960,-0.2241,1.0040,0.2686
5.4260,-0.2241,1.0040,0.2686
5.4260,-0.2241,1.0040,0.2686
5.4260,-0.2241,1.0040,0.2686
5.4260,-0.2182,0.9974,0.2586
5.4470,-0.2182,0.9974,0.2586
5.4470,-0.2182,0.9974,0.2586
5.4470,-0.2182,0.9974,0.2586
5.4480,-0.2212,0.9932,0.2537
5.4480,-0.2212,0.9932,0.2537
5.4620,-0.2212,0.9932,0.2537
5.4640,-0.2212,0.9932,0.2537
5.4750,-0.2212,0.9932,0.2537
5.4760,-0.2212,0.9932,0.2537
5.4760,-0.2212,0.9932,0.2537
5.4770,-0.2200,0.9942,0.2630
5.4770,-0.2168,1.0128,0.2669
5.5070,-0.2168,1.0128,0.2669
5.5080,-0.2168,1.0128,0.2669
5.5080,-0.2168,1.0128,0.2669
5.5090,-0.2143,1.0135,0.2564
5.5260,-0.2143,1.0135,0.2564
5.5270,-0.2143,1.0135,0.2564
5.5270,-0.2143,1.0135,0.2564
5.5270,-0.2209,0.9976,0.2463
5.5270,-0.2209,0.9976,0.2463
5.5550,-0.2209,0.9976,0.2463
5.5560,-0.2209,0.9976,0.2463
5.5560,-0.2209,0.9976,0.2463
5.5570,-0.2322,0.9912,0.2468
5.5570,-0.2415,0.9927,0.2701
5.5860,-0.2415,0.9927,0.2701
5.5870,-0.2415,0.9927,0.2701
5.5870,-0.2415,0.9927,0.2701
5.5870,-0.2300,1.0000,0.2740
5.6070,-0.2300,1.0000,0.2740
5.6080,-0.2300,1.0000,0.2740
5.6080,-0.2300,1.0000,0.2740
5.6090,-0.2097,1.0032,0.2605
5.6090,-0.2097,1.0032,0.2605
5.6380,-0.2097,1.0032,0.2605
5.6390,-0.2097,1.0032,0.2605
5.6390,-0.2097,1.0032,0.2605
5.6410,-0.2038,0.9988,0.2622
5.6410,-0.2146,1.0008,0.2627
5.6660,-0.2146,1.0008,0.2627
5.6670,-0.2146,1.0008,0.2627
5.6680,-0.2146,1.0008,0.2627
5.6690,-0.2146,1.0008,0.2627
5.6690,-0.2146,1.0008,0.2627
5.6690,-0.2134,1.0066,0.2520
5.6880,-0.2134,1.0066,0.2520
5.6890,-0.2134,1.0066,0.2520
5.6890,-0.2134,1.0066,0.2520
5.6900,-0.2050,1.0081,0.2617
5.6940,-0.2050,1.0081,0.2617
5.7180,-0.2050,1.0081,0.2617
5.7190,-0.2050,1.0081,0.2617
5.7210,-0.2050,1.0081,0.2617
5.7210,-0.2053,1.0042,0.2715
5.7220,-0.2119,1.0088,0.2664
5.7500,-0.2119,1.0088,0.2664
5.7520,-0.2119,1.0088,0.2664
5.7530,-0.2119,1.0088,0.2664
5.7540,-0.2119,1.0044,0.2561
5.7680,-0.2119,1.0044,0.2561
5.7690,-0.2119,1.0044,0.2561
5.7700,-0.2119,1.0044,0.2561
5.7720,-0.2131,1.0088,0.2713
5.7720,-0.2131,1.0088,0.2713
5.7980,-0.2131,1.0088,0.2713
5.7990,-0.2131,1.0088,0.2713
5.7990,-0.2131,1.0088,0.2713
5.8000,-0.2136,1.0096,0.2747
5.8010,-0.2107,1.0062,0.2676
5.8280,-0.2107,1.0062,0.2676
5.8320,-0.2107,1.0062,0.2676
5.8320,-0.2107,1.0062,0.2676
5.8330,-0.2121,1.0081,0.2471
5.8480,-0.2121,1.0081,0.2471
5.8480,-0.2121,1.0081,0.2471
5.8490,-0.2121,1.0081,0.2471
5.8490,-0.2075,1.0076,0.2505
5.8500,-0.2075,1.0076,0.2505
5.8730,-0.2075,1.0076,0.2505
5.8740,-0.2075,1.0076,0.2505
5.8750,-0.2075,1.0076,0.2505
5.8750,-0.2075,1.0076,0.2505
5.8760,-0.2075,1.0076,0.2505
5.8780,-0.1980,1.0005,0.2642
5.8790,-0.2043,0.9934,0.2696
5.9060,-0.2043,0.9934,0.2696
5.9070,-0.2043,0.9934,0.2696
5.9070,-0.2043,0.9934,0.2696
5.9080,-0.2214,1.0047,0.2691
5.9280,-0.2214,1.0047,0.2691
5.9290,-0.2214,1.0047,0.2691
5.9300,-0.2214,1.0047,0.2691
5.9310,-0.2231,1.0213,0.2483
5.9320,-0.2231,1.0213,0.2483
5.9570,-0.2231,1.0213,0.2483
5.9580,-0.2231,1.0213,0.2483
5.9590,-0.2231,1.0213,0.2483
5.9600,-0.2024,1.0108,0.2534
5.9610,-0.1972,0.9959,0.2664
5.9860,-0.1972,0.9959,0.2664
5.9880,-0.1972,0.9959,0.2664
5.9890,-0.1972,0.9959,0.2664
5.9890,-0.2087,0.9961,0.2529
6.0090,-0.2087,0.9961,0.2529
6.0110,-0.2087,0.9961,0.2529
6.0120,-0.2087,0.9961,0.2529
6.0130,-0.2258,1.0103,0.2603
6.0150,-0.2258,1.0103,0.2603
6.0390,-0.2258,1.0103,0.2603
6.0430,-0.2258,1.0103,0.2603
6.0440,-0.2258,1.0103,0.2603
6.0450,-0.2151,1.0118,0.2503
6.0460,-0.2011,0.9944,0.2654
6.0650,-0.2011,0.9944,0.2654
6.0660,-0.2011,0.9944,0.2654
6.0680,-0.2011,0.9944,0.2654
6.0690,-0.2011,0.9944,0.2654
6.0690,-0.2011,0.9944,0.2654
6.0700,-0.2077,0.9952,0.2737
6.0890,-0.2077,0.9952,0.2737
6.0910,-0.2077,0.9952,0.2737
6.0920,-0.2077,0.9952,0.2737
6.0930,-0.2204,1.0076,0.2483
6.0950,-0.2204,1.0076,0.2483
6.1180,-0.2204,1.0076,0.2483
6.1190,-0.2204,1.0076,0.2483
6.1200,-0.2204,1.0076,0.2483
6.1210,-0.2109,0.9981,0.2439
6.1220,-0.1933,1.0022,0.2727
6.1490,-0.1933,1.0022,0.2727
6.1500,-0.1933,1.0022,0.2727
6.1530,-0.1933,1.0022,0.2727
6.1560,-0.1909,1.0230,0.2776
6.1680,-0.1909,1.0230,0.2776
6.1690,-0.1909,1.0230,0.2776
6.1730,-0.1909,1.0230,0.2776
6.1760,-0.1911,1.0179,0.2600
6.1770,-0.1911,1.0179,0.2600
6.1980,-0.1911,1.0179,0.2600
6.2000,-0.1911,1.0179,0.2600
6.2000,-0.1911,1.0179,0.2600
6.2010,-0.1877,1.0103,0.2613
6.2020,-0.1953,1.0088,0.2571
6.2290,-0.1953,1.0088,0.2571
6.2330,-0.1953,1.0088,0.2571
6.2350,-0.1953,1.0088,0.2571
6.2370,-0.2036,1.0079,0.2564
6.2490,-0.2036,1.0079,0.2564
6.2520,-0.2036,1.0079,0.2564
6.2530,-0.2036,1.0079,0.2564
6.2550,-0.2041,1.0088,0.2615
6.2570,-0.2041,1.0088,0.2615
6.2650,-0.2041,1.0088,0.2615
6.2660,-0.2041,1.0088,0.2615
6.2790,-0.2041,1.0088,0.2615
6.2800,-0.2041,1.0088,0.2615
6.2810,-0.2041,1.0088,0.2615
6.2830,-0.1962,1.0084,0.2713
6.2840,-0.2019,1.0132,0.2894
6.3080,-0.2019,1.0132,0.2894
6.3090,-0.2019,1.0132,0.2894
6.3110,-0.2019,1.0132,0.2894
6.3120,-0.2124,1.0154,0.2581
6.3290,-0.2124,1.0154,0.2581
6.3300,-0.2124,1.0154,0.2581
6.3310,-0.2124,1.0154,0.2581
6.3320,-0.2048,1.0040,0.2358
6.3330,-0.2048,1.0040,0.2358
6.3590,-0.2048,1.0040,0.2358
6.3600,-0.2048,1.0040,0.2358
6.3610,-0.2048,1.0040,0.2358
6.3620,-0.2109,0.9988,0.2664
6.3630,-0.2165,0.9964,0.2718
6.3890,-0.2165,0.9964,0.2718
6.3900,-0.2165,0.9964,0.2718
6.3920,-0.2165,0.9964,0.2718
6.3990,-0.2094,0.9983,0.2600
6.4100,-0.2094,0.9983,0.2600
6.4380,-0.2094,0.9983,0.2600
6.4390,-0.2094,0.9983,0.2600
6.4390,-0.2009,1.0086,0.2429
6.4400,-0.2009,1.0086,0.2429
6.4400,-0.2009,1.0086,0.2429
6.4410,-0.2009,1.0086,0.2429
6.4410,-0.2009,1.0086,0.2429
6.4420,-0.2031,1.0101,0.2515
6.4420,-0.2036,1.0044,0.2559
6.4610,-0.2036,1.0044,0.2559
6.4670,-0.2036,1.0044,0.2559
6.4680,-0.2036,1.0044,0.2559
6.4680,-0.2036,1.0044,0.2559
6.4680,-0.2104,1.0074,0.2520
6.4870,-0.2104,1.0074,0.2520
6.4880,-0.2104,1.0074,0.2520
6.4880,-0.2104,1.0074,0.2520
6.4880,-0.2109,1.0091,0.2703
6.4890,-0.2109,1.0091,0.2703
6.5170,-0.2109,1.0091,0.2703
6.5180,-0.2109,1.0091,0.2703
6.5190,-0.2109,1.0091,0.2703
6.5200,-0.2075,1.0132,0.2701
6.5210,-0.2146,1.0044,0.2505
6.5490,-0.2146,1.0044,0.2505
6.5510,-0.2146,1.0044,0.2505
6.5520,-0.2146,1.0044,0.2505
6.5520,-0.2129,0.9930,0.2503
6.5700,-0.2129,0.9930,0.2503
6.5720,-0.2129,0.9930,0.2503
6.5730,-0.2129,0.9930,0.2503
6.5750,-0.2138,0.9964,0.2696
6.5770,-0.2138,0.9964,0.2696
6.5980,-0.2138,0.9964,0.2696
6.5990,-0.2138,0.9964,0.2696
6.6000,-0.2138,0.9964,0.2696
6.6010,-0.2116,1.0086,0.2620
6.6010,-0.2050,1.0172,0.2439
6.6320,-0.2050,1.0172,0.2439
6.6340,-0.2050,1.0172,0.2439
6.6360,-0.2050,1.0172,0.2439
6.6370,-0.1980,1.0120,0.2468
6.6500,-0.1980,1.0120,0.2468
6.6510,-0.1980,1.0120,0.2468
6.6520,-0.1980,1.0120,0.2468
6.6530,-0.1987,1.0018,0.2542
6.6540,-0.1987,1.0018,0.2542
6.6640,-0.1987,1.0018,0.2542
6.6790,-0.1987,1.0018,0.2542
6.6800,-0.1987,1.0018,0.2542
6.6810,-0.1987,1.0018,0.2542
6.6810,-0.2153,0.9988,0.2661
6.6820,-0.2209,1.0101,0.2632
6.7110,-0.2209,1.0101,0.2632
6.7120,-0.2209,1.0101,0.2632
6.7140,-0.2209,1.0101,0.2632
6.7160,-0.2124,1.0179,0.2512
6.7290,-0.2124,1.0179,0.2512
6.7300,-0.2124,1.0179,0.2512
6.7320,-0.2124,1.0179,0.2512
6.7340,-0.2026,1.0008,0.2556
6.7360,-0.2026,1.0008,0.2556
6.7580,-0.2026,1.0008,0.2556
6.7600,-0.2026,1.0008,0.2556
6.7610,-0.2026,1.0008,0.2556
6.7620,-0.2050,0.9952,0.2635
6.7630,-0.2160,1.0066,0.2412
6.7890,-0.2160,1.0066,0.2412
6.7900,-0.2160,1.0066,0.2412
6.7910,-0.2160,1.0066,0.2412
6.7920,-0.2270,1.0147,0.2302
6.8110,-0.2270,1.0147,0.2302
6.8130,-0.2270,1.0147,0.2302
6.8140,-0.2270,1.0147,0.2302
6.8150,-0.2285,0.9961,0.2439
6.8180,-0.2285,0.9961,0.2439
6.8380,-0.2285,0.9961,0.2439
6.8390,-0.2285,0.9961,0.2439
6.8400,-0.2285,0.9961,0.2439
6.8410,-0.2251,0.9827,0.2542
6.8420,-0.2226,0.9939,0.2525
6.8650,-0.2226,0.9939,0.2525
6.8680,-0.2226,0.9939,0.2525
6.8690,-0.2226,0.9939,0.2525
6.8700,-0.2226,0.9939,0.2525
6.8710,-0.2119,1.0120,0.2468
6.8930,-0.2119,1.0120,0.2468
6.8940,-0.2119,1.0120,0.2468
6.8950,-0.2119,1.0120,0.2468
6.8960,-0.1994,1.0169,0.2410
6.8960,-0.1994,1.0169,0.2410
6.9180,-0.1994,1.0169,0.2410
6.9190,-0.1994,1.0169,0.2410
6.9200,-0.1994,1.0169,0.2410
6.9210,-0.2068,1.0130,0.2625
6.9210,-0.2014,1.0052,0.2610
6.9490,-0.2014,1.0052,0.2610
6.9510,-0.2014,1.0052,0.2610
6.9530,-0.2014,1.0052,0.2610
6.9550,-0.1826,1.0098,0.2644
6.9780,-0.1826,1.0098,0.2644
6.9790,-0.1826,1.0098,0.2644
6.9790,-0.1826,1.0098,0.2644
6.9800,-0.1735,1.0184,0.2529
6.9800,-0.1735,1.0184,0.2529
6.9980,-0.1735,1.0184,0.2529
6.9980,-0.1735,1.0184,0.2529
6.9980,-0.1735,1.0184,0.2529
6.9990,-0.1843,1.0174,0.2583
6.9990,-0.2043,1.0103,0.2691
7.0290,-0.2043,1.0103,0.2691
7.0300,-0.2043,1.0103,0.2691
7.0310,-0.2043,1.0103,0.2691
7.0310,-0.2200,1.0025,0.2578
7.0510,-0.2200,1.0025,0.2578
7.0510,-0.2200,1.0025,0.2578
7.0520,-0.2200,1.0025,0.2578
7.0530,-0.2178,1.0022,0.2564
7.0540,-0.2178,1.0022,0.2564
7.0660,-0.2178,1.0022,0.2564
7.0810,-0.2178,1.0022,0.2564
7.0820,-0.2178,1.0022,0.2564
7.0830,-0.2178,1.0022,0.2564
7.0840,-0.1943,1.0047,0.2713
7.0850,-0.1899,1.0052,0.2806
7.1090,-0.1899,1.0052,0.2806
7.1100,-0.1899,1.0052,0.2806
7.1110,-0.1899,1.0052,0.2806
7.1120,-0.1843,1.0008,0.2630
7.1130,-0.1843,1.0008,0.2630
7.1300,-0.1843,1.0008,0.2630
7.1320,-0.1843,1.0008,0.2630
7.1330,-0.1843,1.0008,0.2630
7.1340,-0.1899,1.0005,0.2642
7.1600,-0.1899,1.0005,0.2642
7.1610,-0.1899,1.0005,0.2642
7.1620,-0.1899,1.0005,0.2642
7.1630,-0.1975,1.0084,0.2742
7.1640,-0.1892,1.0140,0.2718
7.1950,-0.1892,1.0140,0.2718
7.1960,-0.1892,1.0140,0.2718
7.1970,-0.1892,1.0140,0.2718
7.1980,-0.1735,1.0159,0.2507
7.1990,-0.1735,1.0159,0.2507
7.2100,-0.1735,1.0159,0.2507
7.2120,-0.1735,1.0159,0.2507
7.2130,-0.1735,1.0159,0.2507
7.2150,-0.1723,1.0189,0.2556
7.2410,-0.1723,1.0189,0.2556
7.2420,-0.1723,1.0189,0.2556
7.2430,-0.1723,1.0189,0.2556
7.2440,-0.1813,1.0147,0.2781
7.2450,-0.1826,1.0130,0.2864
7.2630,-0.1826,1.0130,0.2864
7.2660,-0.1826,1.0130,0.2864
7.2690,-0.1826,1.0130,0.2864
7.2700,-0.1826,1.0130,0.2864
7.2720,-0.1826,1.0130,0.2864
7.2750,-0.1801,1.0020,0.2730
7.2760,-0.1801,1.0020,0.2730
7.2900,-0.1801,1.0020,0.2730
7.2910,-0.1801,1.0020,0.2730
7.2920,-0.1801,1.0020,0.2730
7.2930,-0.1911,1.0049,0.2635
7.3190,-0.1911,1.0049,0.2635
7.3200,-0.1911,1.0049,0.2635
7.3210,-0.1911,1.0049,0.2635
7.3220,-0.2116,1.0225,0.2383
7.3240,-0.2146,1.0093,0.2422
7.3500,-0.2146,1.0093,0.2422
7.3510,-0.2146,1.0093,0.2422
7.3520,-0.2146,1.0093,0.2422
7.3530,-0.2031,0.9942,0.2766
7.3540,-0.2031,0.9942,0.2766
7.3700,-0.2031,0.9942,0.2766
7.3710,-0.2031,0.9942,0.2766
7.3730,-0.2031,0.9942,0.2766
7.3750,-0.1889,1.0049,0.2679
7.4000,-0.1889,1.0049,0.2679
7.4010,-0.1889,1.0049,0.2679
7.4020,-0.1889,1.0049,0.2679
7.4030,-0.1843,1.0189,0.2471
7.4040,-0.1945,1.0123,0.2449
7.4300,-0.1945,1.0123,0.2449
7.4320,-0.1945,1.0123,0.2449
7.4330,-0.1945,1.0123,0.2449
7.4340,-0.2004,1.0027,0.2547
7.4350,-0.2004,1.0027,0.2547
7.4520,-0.2004,1.0027,0.2547
7.4540,-0.2004,1.0027,0.2547
7.4570,-0.2004,1.0027,0.2547
7.4590,-0.1962,1.0145,0.2644
7.4650,-0.1962,1.0145,0.2644
7.4650,-0.1962,1.0145,0.2644
7.4790,-0.1962,1.0145,0.2644
7.4800,-0.1962,1.0145,0.2644
7.4810,-0.1962,1.0145,0.2644
7.4820,-0.1884,1.0201,0.2534
7.4830,-0.1896,1.0064,0.2595
7.5100,-0.1896,1.0064,0.2595
7.5290,-0.1896,1.0064,0.2595
7.5300,-0.1896,1.0064,0.2595
7.5310,-0.1926,0.9981,0.2515
7.5320,-0.1926,0.9981,0.2515
7.5360,-0.1926,0.9981,0.2515
7.5370,-0.1926,0.9981,0.2515
7.5370,-0.1926,0.9981,0.2515
7.5380,-0.2004,1.0042,0.2520
7.5580,-0.2004,1.0042,0.2520
7.5590,-0.2004,1.0042,0.2520
7.5590,-0.2004,1.0042,0.2520
7.5600,-0.2087,1.0032,0.2554
7.5610,-0.2043,1.0032,0.2605
7.5890,-0.2043,1.0032,0.2605
7.5900,-0.2043,1.0032,0.2605
7.5910,-0.2043,1.0032,0.2605
7.5920,-0.1928,1.0093,0.2525
7.5920,-0.1928,1.0093,0.2525
7.6080,-0.1928,1.0093,0.2525
7.6090,-0.1928,1.0093,0.2525
7.6100,-0.1928,1.0093,0.2525
7.6110,-0.1918,1.0081,0.2578
7.6390,-0.1918,1.0081,0.2578
7.6400,-0.1918,1.0081,0.2578
7.6410,-0.1918,1.0081,0.2578
7.6410,-0.2009,1.0013,0.2632
7.6420,-0.2080,1.0040,0.2583
7.6620,-0.2080,1.0040,0.2583
7.6700,-0.2080,1.0040,0.2583
7.6720,-0.2080,1.0040,0.2583
7.6730,-0.2080,1.0040,0.2583
7.6730,-0.2109,1.0064,0.2679
7.6730,-0.2109,1.0064,0.2679
7.6910,-0.2109,1.0064,0.2679
7.6910,-0.2109,1.0064,0.2679
7.6920,-0.2109,1.0064,0.2679
7.6920,-0.2004,1.0145,0.2720
7.7200,-0.2004,1.0145,0.2720
7.7210,-0.2004,1.0145,0.2720
7.7210,-0.2004,1.0145,0.2720
7.7220,-0.2014,1.0096,0.2639
7.7220,-0.2058,1.0054,0.2605
7.7510,-0.2058,1.0054,0.2605
7.7510,-0.2058,1.0054,0.2605
7.7530,-0.2058,1.0054,0.2605
7.7580,-0.2046,1.0093,0.2620
7.7590,-0.2046,1.0093,0.2620
7.7730,-0.2046,1.0093,0.2620
7.7750,-0.2046,1.0093,0.2620
7.7760,-0.2046,1.0093,0.2620
7.7780,-0.1982,1.0110,0.2637
7.7990,-0.1982,1.0110,0.2637
7.7990,-0.1982,1.0110,0.2637
7.8000,-0.1982,1.0110,0.2637
7.8010,-0.1904,1.0049,0.2679
7.8010,-0.1989,1.0059,0.2617
7.8310,-0.1989,1.0059,0.2617
7.8330,-0.1989,1.0059,0.2617
7.8360,-0.1989,1.0059,0.2617
7.8380,-0.2087,1.0088,0.2461
7.8390,-0.2087,1.0088,0.2461
7.8520,-0.2087,1.0088,0.2461
7.8560,-0.2087,1.0088,0.2461
7.8570,-0.2087,1.0088,0.2461
7.8580,-0.2107,1.0022,0.2586
7.8660,-0.2107,1.0022,0.2586
7.8790,-0.2107,1.0022,0.2586
7.8800,-0.2107,1.0022,0.2586
7.8810,-0.2107,1.0022,0.2586
7.8810,-0.2075,1.0022,0.2693
7.8820,-0.1970,1.0013,0.2686
7.9100,-0.1970,1.0013,0.2686
7.9110,-0.1970,1.0013,0.2686
7.9120,-0.1970,1.0013,0.2686
7.9130,-0.1889,0.9971,0.2520
7.9140,-0.1889,0.9971,0.2520
7.9300,-0.1889,0.9971,0.2520
7.9330,-0.1889,0.9971,0.2520
7.9340,-0.1889,0.9971,0.2520
7.9360,-0.1984,1.0088,0.2375
7.9590,-0.1984,1.0088,0.2375
7.9600,-0.1984,1.0088,0.2375
7.9610,-0.1984,1.0088,0.2375
7.9620,-0.2065,1.0142,0.2525
7.9630,-0.1931,1.0096,0.2788
7.9910,-0.1931,1.0096,0.2788
7.9920,-0.1931,1.0096,0.2788
7.9930,-0.1931,1.0096,0.2788
7.9940,-0.1901,1.0022,0.2749
7.9950,-0.1901,1.0022,0.2749
8.0110,-0.1901,1.0022,0.2749
8.0120,-0.1901,1.0022,0.2749
8.0130,-0.1901,1.0022,0.2749
8.0140,-0.1933,1.0071,0.2459
8.0420,-0.1933,1.0071,0.2459
8.0420,-0.1933,1.0071,0.2459
8.0430,-0.1933,1.0071,0.2459
8.0430,-0.2060,1.0132,0.2476
8.0440,-0.2058,1.0120,0.2632
8.0640,-0.2058,1.0120,0.2632
8.0900,-0.2058,1.0120,0.2632
8.0920,-0.2058,1.0120,0.2632
8.0930,-0.2058,1.0120,0.2632
8.0930,-0.2058,1.0120,0.2632
8.0930,-0.1980,1.0044,0.2583
8.0940,-0.1980,1.0044,0.2583
8.0940,-0.1980,1.0044,0.2583
8.0950,-0.1980,1.0044,0.2583
8.0950,-0.1980,1.0044,0.2583
8.0950,-0.1916,0.9981,0.2561
8.1190,-0.1916,0.9981,0.2561
8.1190,-0.1916,0.9981,0.2561
8.1190,-0.1916,0.9981,0.2561
8.1200,-0.1804,1.0008,0.2625
8.1200,-0.1843,1.0176,0.2796
8.1500,-0.1843,1.0176,0.2796
8.1500,-0.1843,1.0176,0.2796
8.1520,-0.1843,1.0176,0.2796
8.1540,-0.1918,1.0262,0.2647
8.1560,-0.1918,1.0262,0.2647
8.1720,-0.1918,1.0262,0.2647
8.1720,-0.1918,1.0262,0.2647
8.1730,-0.1918,1.0262,0.2647
8.1750,-0.1909,1.0110,0.2334
8.2030,-0.1909,1.0110,0.2334
8.2040,-0.1909,1.0110,0.2334
8.2060,-0.1909,1.0110,0.2334
8.2060,-0.1984,0.9991,0.2525
8.2080,-0.2065,0.9974,0.2779
8.2330,-0.2065,0.9974,0.2779
8.2360,-0.2065,0.9974,0.2779
8.2420,-0.2065,0.9974,0.2779
8.2430,-0.1997,0.9986,0.2718
8.2430,-0.1997,0.9986,0.2718
8.2510,-0.1997,0.9986,0.2718
8.2520,-0.1997,0.9986,0.2718
8.2540,-0.1997,0.9986,0.2718
8.2560,-0.1852,1.0020,0.2630
8.2640,-0.1852,1.0020,0.2630
8.2650,-0.1852,1.0020,0.2630
8.2810,-0.1852,1.0020,0.2630
8.2810,-0.1852,1.0020,0.2630
8.2810,-0.1852,1.0020,0.2630
8.2820,-0.1818,1.0135,0.2554
8.2820,-0.1838,1.0176,0.2586
8.3110,-0.1838,1.0176,0.2586
8.3130,-0.1838,1.0176,0.2586
8.3140,-0.1838,1.0176,0.2586
8.3150,-0.1865,1.0115,0.2715
8.3160,-0.1865,1.0115,0.2715
8.3320,-0.1865,1.0115,0.2715
8.3330,-0.1865,1.0115,0.2715
8.3350,-0.1865,1.0115,0.2715
8.3380,-0.1906,1.0069,0.2744
8.3600,-0.1906,1.0069,0.2744
8.3610,-0.1906,1.0069,0.2744
8.3610,-0.1906,1.0069,0.2744
8.3620,-0.1984,1.0169,0.2608
8.3630,-0.1955,1.0150,0.2476
8.3960,-0.1955,1.0150,0.2476
8.3980,-0.1955,1.0150,0.2476
8.3990,-0.1955,1.0150,0.2476
8.3990,-0.1867,1.0013,0.2586
8.4000,-0.1867,1.0013,0.2586
8.4110,-0.1867,1.0013,0.2586
8.4120,-0.1867,1.0013,0.2586
8.4120,-0.1867,1.0013,0.2586
8.4150,-0.1882,1.0003,0.2666
8.4400,-0.1882,1.0003,0.2666
8.4410,-0.1882,1.0003,0.2666
8.4410,-0.1882,1.0003,0.2666
8.4420,-0.1943,1.0130,0.2654
8.4420,-0.1982,1.0150,0.2610
8.4620,-0.1982,1.0150,0.2610
8.4730,-0.1982,1.0150,0.2610
8.4750,-0.1982,1.0150,0.2610
8.4760,-0.1982,1.0150,0.2610
8.4760,-0.1874,1.0066,0.2573
8.4790,-0.1874,1.0066,0.2573
8.4910,-0.1874,1.0066,0.2573
8.4910,-0.1874,1.0066,0.2573
8.4920,-0.1874,1.0066,0.2573
8.4930,-0.1899,1.0081,0.2478
8.5200,-0.1899,1.0081,0.2478
8.5220,-0.1899,1.0081,0.2478
8.5230,-0.1899,1.0081,0.2478
8.5230,-0.1987,1.0071,0.2534
8.5250,-0.1936,1.0093,0.2683
8.5520,-0.1936,1.0093,0.2683
8.5530,-0.1936,1.0093,0.2683
8.5550,-0.1936,1.0093,0.2683
8.5560,-0.1796,1.0098,0.2544
8.5570,-0.1796,1.0098,0.2544
8.5730,-0.1796,1.0098,0.2544
8.5740,-0.1796,1.0098,0.2544
8.5750,-0.1796,1.0098,0.2544
8.5760,-0.1728,1.0110,0.2676
8.6050,-0.1728,1.0110,0.2676
8.6060,-0.1728,1.0110,0.2676
8.6070,-0.1728,1.0110,0.2676
8.6290,-0.1764,1.0108,0.2630
8.6290,-0.1874,1.0064,0.2378
8.6300,-0.1874,1.0064,0.2378
8.6310,-0.1874,1.0064,0.2378
8.6320,-0.1874,1.0064,0.2378
8.6320,-0.1955,1.0032,0.2529
8.6330,-0.1955,1.0032,0.2529
8.6530,-0.1955,1.0032,0.2529
8.6530,-0.1955,1.0032,0.2529
8.6540,-0.1955,1.0032,0.2529
8.6550,-0.1938,1.0079,0.2757
8.6650,-0.1938,1.0079,0.2757
8.6650,-0.1938,1.0079,0.2757
8.6800,-0.1938,1.0079,0.2757
8.6800,-0.1938,1.0079,0.2757
8.6810,-0.1938,1.0079,0.2757
8.6810,-0.1774,1.0157,0.2627
8.6820,-0.1826,1.0128,0.2671
8.7100,-0.1826,1.0128,0.2671
8.7110,-0.1826,1.0128,0.2671
8.7120,-0.1826,1.0128,0.2671
8.7120,-0.1921,1.0074,0.2542
8.7130,-0.1921,1.0074,0.2542
8.7330,-0.1921,1.0074,0.2542
8.7350,-0.1921,1.0074,0.2542
8.7360,-0.1921,1.0074,0.2542
8.7370,-0.1918,1.0088,0.2561
8.7600,-0.1918,1.0088,0.2561
8.7610,-0.1918,1.0088,0.2561
8.7620,-0.1918,1.0088,0.2561
8.7630,-0.1818,1.0172,0.2647
8.7640,-0.1757,1.0154,0.2595
8.7930,-0.1757,1.0154,0.2595
8.7960,-0.1757,1.0154,0.2595
8.7970,-0.1757,1.0154,0.2595
8.7980,-0.1821,0.9971,0.2679
8.7990,-0.1821,0.9971,0.2679
8.8150,-0.1821,0.9971,0.2679
8.8160,-0.1821,0.9971,0.2679
8.8170,-0.1821,0.9971,0.2679
8.8180,-0.1918,1.0057,0.2632
8.8420,-0.1918,1.0057,0.2632
8.8430,-0.1918,1.0057,0.2632
8.8440,-0.1918,1.0057,0.2632
8.8450,-0.1906,1.0215,0.2534
8.8460,-0.1791,1.0084,0.2620
8.8630,-0.1791,1.0084,0.2620
8.8650,-0.1791,1.0084,0.2620
8.8730,-0.1791,1.0084,0.2620
8.8740,-0.1791,1.0084,0.2620
8.8750,-0.1791,1.0084,0.2620
8.8760,-0.1796,1.0040,0.2586
8.8770,-0.1796,1.0040,0.2586
8.8920,-0.1796,1.0040,0.2586
8.8930,-0.1796,1.0040,0.2586
8.8960,-0.1796,1.0040,0.2586
8.8970,-0.1821,1.0108,0.2588
8.9200,-0.1821,1.0108,0.2588
8.9210,-0.1821,1.0108,0.2588
8.9220,-0.1821,1.0108,0.2588
8.9230,-0.1838,1.0193,0.2781
8.9240,-0.1894,1.0164,0.2766
8.9510,-0.1894,1.0164,0.2766
8.9520,-0.1894,1.0164,0.2766
8.9530,-0.1894,1.0164,0.2766
8.9540,-0.1894,1.0088,0.2622
8.9550,-0.1894,1.0088,0.2622
8.9750,-0.1894,1.0088,0.2622
8.9760,-0.1894,1.0088,0.2622
8.9770,-0.1894,1.0088,0.2622
8.9780,-0.1901,1.0052,0.2544
9.0020,-0.1901,1.0052,0.2544
9.0030,-0.1901,1.0052,0.2544
9.0030,-0.1901,1.0052,0.2544
9.0040,-0.2028,1.0086,0.2576
9.0050,-0.2099,1.0052,0.2654
9.0330,-0.2099,1.0052,0.2654
9.0350,-0.2099,1.0052,0.2654
9.0350,-0.2099,1.0052,0.2654
9.0360,-0.2072,1.0052,0.2725
9.0370,-0.2072,1.0052,0.2725
9.0520,-0.2072,1.0052,0.2725
9.0530,-0.2072,1.0052,0.2725
9.0540,-0.2072,1.0052,0.2725
9.0550,-0.1989,1.0066,0.2576
9.0640,-0.1989,1.0066,0.2576
9.0650,-0.1989,1.0066,0.2576
9.0820,-0.1989,1.0066,0.2576
9.0830,-0.1989,1.0066,0.2576
9.0840,-0.1989,1.0066,0.2576
9.0850,-0.1887,1.0047,0.2503
9.0860,-0.1936,1.0062,0.2583
9.1120,-0.1936,1.0062,0.2583
9.1130,-0.1936,1.0062,0.2583
9.1150,-0.1936,1.0062,0.2583
9.1170,-0.2033,1.0132,0.2522
9.1180,-0.2033,1.0132,0.2522
9.1330,-0.2033,1.0132,0.2522
9.1340,-0.2033,1.0132,0.2522
9.1350,-0.2033,1.0132,0.2522
9.1570,-0.1967,1.0044,0.2569
9.1610,-0.1967,1.0044,0.2569
9.1620,-0.1967,1.0044,0.2569
9.1630,-0.1967,1.0044,0.2569
9.1630,-0.2026,1.0030,0.2659
9.1640,-0.2016,1.0057,0.2573
9.1930,-0.2016,1.0057,0.2573
9.1940,-0.2016,1.0057,0.2573
9.1950,-0.2016,1.0057,0.2573
9.1960,-0.1989,1.0098,0.2456
9.1970,-0.1989,1.0098,0.2456
9.2120,-0.1989,1.0098,0.2456
9.2130,-0.1989,1.0098,0.2456
9.2140,-0.1989,1.0098,0.2456
9.2150,-0.1982,1.0084,0.2417
9.2410,-0.1982,1.0084,0.2417
9.2420,-0.1982,1.0084,0.2417
9.2430,-0.1982,1.0084,0.2417
9.2440,-0.2082,1.0054,0.2637
9.2450,-0.2116,1.0074,0.2696
9.2630,-0.2116,1.0074,0.2696
9.2650,-0.2116,1.0074,0.2696
9.2730,-0.2116,1.0074,0.2696
9.2740,-0.2116,1.0074,0.2696
9.2750,-0.2116,1.0074,0.2696
9.2760,-0.2065,1.0086,0.2537
9.2770,-0.2065,1.0086,0.2537
9.2930,-0.2065,1.0086,0.2537
9.2940,-0.2065,1.0086,0.2537
9.2950,-0.2065,1.0086,0.2537
9.2980,-0.2033,1.0047,0.2505
9.3210,-0.2033,1.0047,0.2505
9.3220,-0.2033,1.0047,0.2505
9.3230,-0.2033,1.0047,0.2505
9.3230,-0.2068,1.0047,0.2635
9.3240,-0.2026,1.0110,0.2632
9.3520,-0.2026,1.0110,0.2632
9.3530,-0.2026,1.0110,0.2632
9.3530,-0.2026,1.0110,0.2632
9.3540,-0.1896,1.0062,0.2686
9.3560,-0.1896,1.0062,0.2686
9.3760,-0.1896,1.0062,0.2686
9.3770,-0.1896,1.0062,0.2686
9.3780,-0.1896,1.0062,0.2686
9.3790,-0.1914,1.0003,0.2679
9.4020,-0.1914,1.0003,0.2679
9.4030,-0.1914,1.0003,0.2679
9.4030,-0.1914,1.0003,0.2679
9.4050,-0.2019,1.0081,0.2581
9.4050,-0.2151,1.0172,0.2705
9.4340,-0.2151,1.0172,0.2705
9.4350,-0.2151,1.0172,0.2705
9.4360,-0.2151,1.0172,0.2705
9.4370,-0.2072,1.0064,0.2705
9.4380,-0.2072,1.0064,0.2705
9.4530,-0.2072,1.0064,0.2705
9.4530,-0.2072,1.0064,0.2705
9.4550,-0.2072,1.0064,0.2705
9.4560,-0.1958,0.9991,0.2625
9.4640,-0.1958,0.9991,0.2625
9.4830,-0.1958,0.9991,0.2625
9.4840,-0.1958,0.9991,0.2625
9.4850,-0.1958,0.9991,0.2625
9.4860,-0.2006,1.0049,0.2525
9.4870,-0.2080,1.0064,0.2627
9.5140,-0.2080,1.0064,0.2627
9.5160,-0.2080,1.0064,0.2627
9.5180,-0.2080,1.0064,0.2627
9.5180,-0.2041,1.0052,0.2759
9.5190,-0.2041,1.0052,0.2759
9.5320,-0.2041,1.0052,0.2759
9.5340,-0.2041,1.0052,0.2759
9.5350,-0.2041,1.0052,0.2759
9.5360,-0.1916,1.0040,0.2686
9.5630,-0.1916,1.0040,0.2686
9.5640,-0.1916,1.0040,0.2686
9.5650,-0.1916,1.0040,0.2686
9.5660,-0.1960,1.0110,0.2622
9.5670,-0.1967,1.0150,0.2441
9.5930,-0.1967,1.0150,0.2441
9.5940,-0.1967,1.0150,0.2441
9.5950,-0.1967,1.0150,0.2441
9.5950,-0.1926,1.0040,0.2617
9.5960,-0.1926,1.0040,0.2617
9.6130,-0.1926,1.0040,0.2617
9.6150,-0.1926,1.0040,0.2617
9.6160,-0.1926,1.0040,0.2617
9.6180,-0.1953,0.9978,0.2769
9.6420,-0.1953,0.9978,0.2769
9.6430,-0.1953,0.9978,0.2769
9.6440,-0.1953,0.9978,0.2769
9.6450,-0.2036,1.0091,0.2630
9.6460,-0.2114,1.0137,0.2544
9.6670,-0.2114,1.0137,0.2544
9.6730,-0.2114,1.0137,0.2544
9.6740,-0.2114,1.0137,0.2544
9.6750,-0.2114,1.0137,0.2544
9.6750,-0.2009,1.0064,0.2537
9.6760,-0.2009,1.0064,0.2537
9.6940,-0.2009,1.0064,0.2537
9.7170,-0.2009,1.0064,0.2537
9.7180,-0.2009,1.0064,0.2537
9.7180,-0.2021,1.0091,0.2620
9.7210,-0.2021,1.0091,0.2620
9.7220,-0.2021,1.0091,0.2620
9.7230,-0.2021,1.0091,0.2620
9.7260,-0.2014,1.0159,0.2529
9.7270,-0.1992,1.0054,0.2600
9.7510,-0.1992,1.0054,0.2600
9.7510,-0.1992,1.0054,0.2600
9.7510,-0.1992,1.0054,0.2600
9.7520,-0.1923,1.0052,0.2676
9.7520,-0.1923,1.0052,0.2676
9.7720,-0.1923,1.0052,0.2676
9.7720,-0.1923,1.0052,0.2676
9.7730,-0.1923,1.0052,0.2676
9.7740,-0.1955,1.0108,0.2654
9.8010,-0.1955,1.0108,0.2654
9.8020,-0.1955,1.0108,0.2654
9.8030,-0.1955,1.0108,0.2654
9.8030,-0.2016,1.0032,0.2542
9.8040,-0.2068,1.0057,0.2510
9.8310,-0.2068,1.0057,0.2510
9.8320,-0.2068,1.0057,0.2510
9.8320,-0.2068,1.0057,0.2510
9.8320,-0.2080,1.0076,0.2613
9.8330,-0.2080,1.0076,0.2613
9.8530,-0.2080,1.0076,0.2613
9.8540,-0.2080,1.0076,0.2613
9.8550,-0.2080,1.0076,0.2613
9.8560,-0.2041,1.0062,0.2718
9.8650,-0.2041,1.0062,0.2718
9.8830,-0.2041,1.0062,0.2718
9.8830,-0.2041,1.0062,0.2718
9.8840,-0.2041,1.0062,0.2718
9.8850,-0.2028,1.0091,0.2522
9.8860,-0.2092,0.9986,0.2439
9.9170,-0.2092,0.9986,0.2439
9.9180,-0.2092,0.9986,0.2439
9.9200,-0.2092,0.9986,0.2439
9.9210,-0.2146,0.9998,0.2644
9.9210,-0.2146,0.9998,0.2644
9.9330,-0.2146,0.9998,0.2644
9.9340,-0.2146,0.9998,0.2644
9.9370,-0.2146,0.9998,0.2644
9.9380,-0.2190,1.0140,0.2715
9.9630,-0.2190,1.0140,0.2715
9.9650,-0.2190,1.0140,0.2715
9.9660,-0.2190,1.0140,0.2715
9.9670,-0.2094,1.0179,0.2534
9.9680,-0.1940,1.0062,0.2471
9.9930,-0.1940,1.0062,0.2471
9.9930,-0.1940,1.0062,0.2471
9.9940,-0.1940,1.0062,0.2471
9.9940,-0.1945,0.9969,0.2666
9.9950,-0.1945,0.9969,0.2666
10.0150,-0.1945,0.9969,0.2666
10.0180,-0.1945,0.9969,0.2666
10.0190,-0.1945,0.9969,0.2666
10.0200,-0.2026,1.0047,0.2725
10.0440,-0.2026,1.0047,0.2725
10.0450,-0.2026,1.0047,0.2725
10.0450,-0.2026,1.0047,0.2725
10.0460,-0.2075,1.0093,0.2556
10.0460,-0.2053,1.0071,0.2556
10.0650,-0.2053,1.0071,0.2556
10.0740,-0.2053,1.0071,0.2556
10.0750,-0.2053,1.0071,0.2556
10.0770,-0.2053,1.0071,0.2556
10.0780,-0.2038,0.9998,0.2669
10.0790,-0.2038,0.9998,0.2669
10.0960,-0.2038,0.9998,0.2669
10.0970,-0.2038,0.9998,0.2669
10.0980,-0.2038,0.9998,0.2669
10.0990,-0.2055,1.0096,0.2591
10.1230,-0.2055,1.0096,0.2591
10.1240,-0.2055,1.0096,0.2591
10.1250,-0.2055,1.0096,0.2591
10.1260,-0.2031,1.0162,0.2488
10.1270,-0.2011,1.0049,0.2681
10.1540,-0.2011,1.0049,0.2681
10.1560,-0.2011,1.0049,0.2681
10.1570,-0.2011,1.0049,0.2681
10.1580,-0.2009,1.0057,0.2771
10.1590,-0.2009,1.0057,0.2771
10.1740,-0.2009,1.0057,0.2771
10.1760,-0.2009,1.0057,0.2771
10.1770,-0.2009,1.0057,0.2771
10.1780,-0.2082,1.0093,0.2556
10.2030,-0.2082,1.0093,0.2556
10.2040,-0.2082,1.0093,0.2556
10.2050,-0.2082,1.0093,0.2556
10.2060,-0.2170,1.0084,0.2547
10.2070,-0.2104,1.0015,0.2593
10.2350,-0.2104,1.0015,0.2593
10.2360,-0.2104,1.0015,0.2593
10.2370,-0.2104,1.0015,0.2593
10.2380,-0.1984,1.0040,0.2659
10.2390,-0.1984,1.0040,0.2659
10.2550,-0.1984,1.0040,0.2659
10.2770,-0.1984,1.0040,0.2659
10.2780,-0.1984,1.0040,0.2659
10.2780,-0.1967,1.0093,0.2576
10.2790,-0.1967,1.0093,0.2576
10.2810,-0.1967,1.0093,0.2576
10.2810,-0.1967,1.0093,0.2576
10.2820,-0.1967,1.0093,0.2576
10.2820,-0.1945,1.0079,0.2556
10.2830,-0.1977,1.0091,0.2620
10.3120,-0.1977,1.0091,0.2620
10.3130,-0.1977,1.0091,0.2620
10.3130,-0.1977,1.0091,0.2620
10.3140,-0.1904,1.0047,0.2617
10.3140,-0.1904,1.0047,0.2617
10.3320,-0.1904,1.0047,0.2617
10.3330,-0.1904,1.0047,0.2617
10.3330,-0.1904,1.0047,0.2617
10.3340,-0.1882,1.0005,0.2659
10.3620,-0.1882,1.0005,0.2659
10.3620,-0.1882,1.0005,0.2659
10.3630,-0.1882,1.0005,0.2659
10.3630,-0.1984,1.0020,0.2666
10.3640,-0.2097,1.0079,0.2608
10.3960,-0.2097,1.0079,0.2608
10.3970,-0.2097,1.0079,0.2608
10.3980,-0.2097,1.0079,0.2608
10.3990,-0.2114,1.0086,0.2485
10.4010,-0.2114,1.0086,0.2485
10.4140,-0.2114,1.0086,0.2485
10.4150,-0.2114,1.0086,0.2485
10.4170,-0.2114,1.0086,0.2485
10.4180,-0.2068,1.0198,0.2444
10.4430,-0.2068,1.0198,0.2444
10.4440,-0.2068,1.0198,0.2444
10.4450,-0.2068,1.0198,0.2444
10.4460,-0.1989,1.0167,0.2598
10.4490,-0.1975,1.0032,0.2747
10.4630,-0.1975,1.0032,0.2747
10.4750,-0.1975,1.0032,0.2747
10.4780,-0.1975,1.0032,0.2747
10.4790,-0.1975,1.0032,0.2747
10.4800,-0.1975,1.0018,0.2627
10.4810,-0.1975,1.0018,0.2627
10.4950,-0.1975,1.0018,0.2627
10.4960,-0.1975,1.0018,0.2627
10.4970,-0.1975,1.0018,0.2627
10.4980,-0.1972,1.0030,0.2561
10.5250,-0.1972,1.0030,0.2561
10.5260,-0.1972,1.0030,0.2561
10.5270,-0.1972,1.0030,0.2561
10.5280,-0.2024,0.9981,0.2559
10.5290,-0.2046,1.0030,0.2583
10.5550,-0.2046,1.0030,0.2583
10.5560,-0.2046,1.0030,0.2583
10.5570,-0.2046,1.0030,0.2583
10.5580,-0.2077,1.0059,0.2537
10.5590,-0.2077,1.0059,0.2537
10.5750,-0.2077,1.0059,0.2537
10.5750,-0.2077,1.0059,0.2537
10.5760,-0.2077,1.0059,0.2537
10.5780,-0.2038,1.0054,0.2669
10.6030,-0.2038,1.0054,0.2669
10.6050,-0.2038,1.0054,0.2669
10.6050,-0.2038,1.0054,0.2669
10.6060,-0.1933,1.0064,0.2573
10.6070,-0.2050,1.0042,0.2600
10.6340,-0.2050,1.0042,0.2600
10.6350,-0.2050,1.0042,0.2600
10.6360,-0.2050,1.0042,0.2600
10.6370,-0.2192,1.0093,0.2661
10.6380,-0.2192,1.0093,0.2661
10.6540,-0.2192,1.0093,0.2661
10.6550,-0.2192,1.0093,0.2661
10.6560,-0.2192,1.0093,0.2661
10.6570,-0.2156,1.0059,0.2573
10.6630,-0.2156,1.0059,0.2573
10.6820,-0.2156,1.0059,0.2573
10.6830,-0.2156,1.0059,0.2573
10.6840,-0.2156,1.0059,0.2573
10.6850,-0.2058,1.0049,0.2632
10.6860,-0.2072,1.0064,0.2654
10.7140,-0.2072,1.0064,0.2654
10.7150,-0.2072,1.0064,0.2654
10.7160,-0.2072,1.0064,0.2654
10.7180,-0.2043,1.0123,0.2571
10.7190,-0.2043,1.0123,0.2571
10.7340,-0.2043,1.0123,0.2571
10.7350,-0.2043,1.0123,0.2571
10.7360,-0.2043,1.0123,0.2571
10.7370,-0.1904,1.0113,0.2566
10.7650,-0.1904,1.0113,0.2566
10.7660,-0.1904,1.0113,0.2566
10.7670,-0.1904,1.0113,0.2566
10.7680,-0.1826,1.0025,0.2649
10.7690,-0.1955,0.9996,0.2698
10.7960,-0.1955,0.9996,0.2698
10.7970,-0.1955,0.9996,0.2698
10.7980,-0.1955,0.9996,0.2698
10.7990,-0.2092,1.0084,0.2532
10.8000,-0.2092,1.0084,0.2532
10.8230,-0.2092,1.0084,0.2532
10.8230,-0.2092,1.0084,0.2532
10.8240,-0.2092,1.0084,0.2532
10.8240,-0.2058,1.0162,0.2441
10.8410,-0.2058,1.0162,0.2441
10.8420,-0.2058,1.0162,0.2441
10.8420,-0.2058,1.0162,0.2441
10.8430,-0.1950,1.0123,0.2510
10.8430,-0.1921,1.0020,0.2620
10.8620,-0.1921,1.0020,0.2620
10.8640,-0.1921,1.0020,0.2620
10.8730,-0.1921,1.0020,0.2620
10.8730,-0.1921,1.0020,0.2620
10.8730,-0.1921,1.0020,0.2620
10.8740,-0.2026,0.9988,0.2710
10.8740,-0.2026,0.9988,0.2710
10.8940,-0.2026,0.9988,0.2710
10.8940,-0.2026,0.9988,0.2710
10.8950,-0.2026,0.9988,0.2710
10.8960,-0.2050,1.0074,0.2742
10.9220,-0.2050,1.0074,0.2742
10.9230,-0.2050,1.0074,0.2742
10.9230,-0.2050,1.0074,0.2742
10.9230,-0.1980,1.0184,0.2554
10.9230,-0.1874,1.0174,0.2397
10.9540,-0.1874,1.0174,0.2397
10.9550,-0.1874,1.0174,0.2397
10.9550,-0.1874,1.0174,0.2397
10.9560,-0.2004,1.0081,0.2569
10.9570,-0.2004,1.0081,0.2569
10.9760,-0.2004,1.0081,0.2569
10.9770,-0.2004,1.0081,0.2569
10.9780,-0.2004,1.0081,0.2569
10.9790,-0.2170,0.9971,0.2693
11.0040,-0.2170,0.9971,0.2693
11.0050,-0.2170,0.9971,0.2693
11.0060,-0.2170,0.9971,0.2693
11.0070,-0.2129,1.0010,0.2715
11.0080,-0.1955,1.0086,0.2473
11.0360,-0.1955,1.0086,0.2473
11.0370,-0.1955,1.0086,0.2473
11.0380,-0.1955,1.0086,0.2473
11.0400,-0.1960,1.0047,0.2615
11.0420,-0.1960,1.0047,0.2615
11.0540,-0.1960,1.0047,0.2615
11.0560,-0.1960,1.0047,0.2615
11.0570,-0.1960,1.0047,0.2615
11.0580,-0.1958,1.0057,0.2671
11.0640,-0.1958,1.0057,0.2671
11.0650,-0.1958,1.0057,0.2671
11.0840,-0.1958,1.0057,0.2671
11.0850,-0.1958,1.0057,0.2671
11.0860,-0.1958,1.0057,0.2671
11.0870,-0.1931,1.0052,0.2674
11.0880,-0.1948,1.0130,0.2664
11.1140,-0.1948,1.0130,0.2664
11.1150,-0.1948,1.0130,0.2664
11.1160,-0.1948,1.0130,0.2664
11.1170,-0.1962,1.0137,0.2578
11.1180,-0.1962,1.0137,0.2578
11.1350,-0.1962,1.0137,0.2578
11.1360,-0.1962,1.0137,0.2578
11.1370,-0.1962,1.0137,0.2578
11.1380,-0.1975,1.0093,0.2693
11.1640,-0.1975,1.0093,0.2693
11.1650,-0.1975,1.0093,0.2693
11.1650,-0.1975,1.0093,0.2693
11.1660,-0.2026,1.0103,0.2691
11.1670,-0.1972,1.0154,0.2517
11.1950,-0.1972,1.0154,0.2517
11.1960,-0.1972,1.0154,0.2517
11.1980,-0.1972,1.0154,0.2517
11.1980,-0.1850,1.0049,0.2503
11.1990,-0.1850,1.0049,0.2503
11.2150,-0.1850,1.0049,0.2503
11.2160,-0.1850,1.0049,0.2503
11.2160,-0.1850,1.0049,0.2503
11.2170,-0.1828,1.0005,0.2730
11.2460,-0.1828,1.0005,0.2730
11.2470,-0.1828,1.0005,0.2730
11.2480,-0.1828,1.0005,0.2730
11.2490,-0.1894,1.0118,0.2554
11.2500,-0.1931,1.0179,0.2483
11.2640,-0.1931,1.0179,0.2483
11.2650,-0.1931,1.0179,0.2483
11.2780,-0.1931,1.0179,0.2483
11.2800,-0.1931,1.0179,0.2483
11.2800,-0.1931,1.0179,0.2483
11.2840,-0.1904,1.0049,0.2549
11.2840,-0.1904,1.0049,0.2549
11.2950,-0.1904,1.0049,0.2549
11.2950,-0.1904,1.0049,0.2549
11.2960,-0.1904,1.0049,0.2549
11.2960,-0.1914,1.0025,0.2635
11.3240,-0.1914,1.0025,0.2635
11.3250,-0.1914,1.0025,0.2635
11.3260,-0.1914,1.0025,0.2635
11.3270,-0.1874,1.0167,0.2561
11.3280,-0.1791,1.0196,0.2510
11.3550,-0.1791,1.0196,0.2510
11.3800,-0.1791,1.0196,0.2510
11.3810,-0.1791,1.0196,0.2510
11.3810,-0.1852,1.0108,0.2630
11.3820,-0.1852,1.0108,0.2630
11.3820,-0.1852,1.0108,0.2630
11.3830,-0.1852,1.0108,0.2630
11.3830,-0.1852,1.0108,0.2630
11.3840,-0.1989,1.0076,0.2850
11.4050,-0.1989,1.0076,0.2850
11.4050,-0.1989,1.0076,0.2850
11.4060,-0.1989,1.0076,0.2850
11.4060,-0.1997,1.0130,0.2683
11.4060,-0.1970,1.0169,0.2432
11.4360,-0.1970,1.0169,0.2432
11.4370,-0.1970,1.0169,0.2432
11.4380,-0.1970,1.0169,0.2432
11.4390,-0.1960,1.0013,0.2485
11.4400,-0.1960,1.0013,0.2485
11.4550,-0.1960,1.0013,0.2485
11.4550,-0.1960,1.0013,0.2485
11.4560,-0.1960,1.0013,0.2485
11.4570,-0.1960,0.9966,0.2659
11.4660,-0.1960,0.9966,0.2659
11.4850,-0.1960,0.9966,0.2659
11.4850,-0.1960,0.9966,0.2659
11.4860,-0.1960,0.9966,0.2659
11.4860,-0.2050,1.0081,0.2681
11.4870,-0.2006,1.0145,0.2598
11.5140,-0.2006,1.0145,0.2598
11.5150,-0.2006,1.0145,0.2598
11.5150,-0.2006,1.0145,0.2598
11.5160,-0.1894,1.0098,0.2571
11.5160,-0.1894,1.0098,0.2571
11.5350,-0.1894,1.0098,0.2571
11.5360,-0.1894,1.0098,0.2571
11.5360,-0.1894,1.0098,0.2571
11.5370,-0.1926,1.0093,0.2532
11.5640,-0.1926,1.0093,0.2532
11.5650,-0.1926,1.0093,0.2532
11.5660,-0.1926,1.0093,0.2532
11.5670,-0.1940,1.0096,0.2522
11.5680,-0.1928,1.0066,0.2657
11.5940,-0.1928,1.0066,0.2657
11.5950,-0.1928,1.0066,0.2657
11.5960,-0.1928,1.0066,0.2657
11.5970,-0.1852,1.0115,0.2798
11.5980,-0.1852,1.0115,0.2798
11.6140,-0.1852,1.0115,0.2798
11.6150,-0.1852,1.0115,0.2798
11.6160,-0.1852,1.0115,0.2798
11.6170,-0.1821,1.0184,0.2520
11.6460,-0.1821,1.0184,0.2520
11.6470,-0.1821,1.0184,0.2520
11.6480,-0.1821,1.0184,0.2520
11.6490,-0.1950,1.0164,0.2439
11.6500,-0.2063,1.0057,0.2571
11.6640,-0.2063,1.0057,0.2571
11.6750,-0.2063,1.0057,0.2571
11.6760,-0.2063,1.0057,0.2571
11.6760,-0.2063,1.0057,0.2571
11.6780,-0.2024,1.0025,0.2603
11.6790,-0.2024,1.0025,0.2603
11.6940,-0.2024,1.0025,0.2603
11.6950,-0.2024,1.0025,0.2603
11.6960,-0.2024,1.0025,0.2603
11.6960,-0.1977,1.0069,0.2735
11.7250,-0.1977,1.0069,0.2735
11.7260,-0.1977,1.0069,0.2735
11.7260,-0.1977,1.0069,0.2735
11.7270,-0.1945,1.0069,0.2683
11.7270,-0.1850,1.0059,0.2515
11.7550,-0.1850,1.0059,0.2515
11.7560,-0.1850,1.0059,0.2515
11.7570,-0.1850,1.0059,0.2515
11.7580,-0.1889,1.0132,0.2537
11.7580,-0.1889,1.0132,0.2537
11.7740,-0.1889,1.0132,0.2537
11.7750,-0.1889,1.0132,0.2537
11.7760,-0.1889,1.0132,0.2537
11.7770,-0.2053,1.0125,0.2632
11.8060,-0.2053,1.0125,0.2632
11.8080,-0.2053,1.0125,0.2632
11.8080,-0.2053,1.0125,0.2632
11.8090,-0.2038,1.0076,0.2681
11.8120,-0.1882,1.0088,0.2613
11.8360,-0.1882,1.0088,0.2613
11.8370,-0.1882,1.0088,0.2613
11.8380,-0.1882,1.0088,0.2613
11.8390,-0.1823,1.0086,0.2561
11.8400,-0.1823,1.0086,0.2561
11.8580,-0.1823,1.0086,0.2561
11.8590,-0.1823,1.0086,0.2561
11.8590,-0.1823,1.0086,0.2561
11.8600,-0.1923,1.0093,0.2605
11.8620,-0.1923,1.0093,0.2605
11.8860,-0.1923,1.0093,0.2605
11.8870,-0.1923,1.0093,0.2605
11.8870,-0.1923,1.0093,0.2605
11.8880,-0.2011,1.0096,0.2625
11.8880,-0.2036,1.0181,0.2635
11.9200,-0.2036,1.0181,0.2635
11.9210,-0.2036,1.0181,0.2635
11.9210,-0.2036,1.0181,0.2635
11.9210,-0.1940,1.0064,0.2529
11.9210,-0.1940,1.0064,0.2529
11.9330,-0.1940,1.0064,0.2529
11.9330,-0.1940,1.0064,0.2529
11.9330,-0.1940,1.0064,0.2529
11.9340,-0.1938,0.9952,0.2588
11.9630,-0.1938,0.9952,0.2588
11.9630,-0.1938,0.9952,0.2588
11.9640,-0.1938,0.9952,0.2588
11.9640,-0.1989,1.0015,0.2610
11.9650,-0.2068,1.0052,0.2664
11.9940,-0.2068,1.0052,0.2664
11.9940,-0.2068,1.0052,0.2664
11.9950,-0.2068,1.0052,0.2664
11.9950,-0.2016,1.0106,0.2659
11.9950,-0.2016,1.0106,0.2659
12.0140,-0.2016,1.0106,0.2659
12.0150,-0.2016,1.0106,0.2659
12.0150,-0.2016,1.0106,0.2659
12.0150,-0.1887,1.0086,0.2561
12.0480,-0.1887,1.0086,0.2561
12.0490,-0.1887,1.0086,0.2561
12.0490,-0.1887,1.0086,0.2561
12.0510,-0.1782,1.0044,0.2532
12.0510,-0.1835,1.0042,0.2644
12.0620,-0.1835,1.0042,0.2644
12.0660,-0.1835,1.0042,0.2644
12.0750,-0.1835,1.0042,0.2644
12.0760,-0.1835,1.0042,0.2644
12.0770,-0.1835,1.0042,0.2644
12.0780,-0.1865,1.0101,0.2676
12.0790,-0.1865,1.0101,0.2676
12.0970,-0.1865,1.0101,0.2676
12.0980,-0.1865,1.0101,0.2676
12.0990,-0.1865,1.0101,0.2676
12.0990,-0.1830,1.0213,0.2529
12.1260,-0.1830,1.0213,0.2529
12.1270,-0.1830,1.0213,0.2529
12.1280,-0.1830,1.0213,0.2529
12.1290,-0.1828,1.0225,0.2405
12.1300,-0.2053,1.0054,0.2554
12.1560,-0.2053,1.0054,0.2554
12.1580,-0.2053,1.0054,0.2554
12.1590,-0.2053,1.0054,0.2554
12.1600,-0.2307,0.9944,0.2727
12.1610,-0.2307,0.9944,0.2727
12.1790,-0.2307,0.9944,0.2727
12.1810,-0.2307,0.9944,0.2727
12.1810,-0.2307,0.9944,0.2727
12.1820,-0.2287,1.0040,0.2671
12.2090,-0.2287,1.0040,0.2671
12.2090,-0.2287,1.0040,0.2671
12.2100,-0.2287,1.0040,0.2671
12.2110,-0.2060,1.0162,0.2595
12.2120,-0.1948,1.0081,0.2617
12.2350,-0.1948,1.0081,0.2617
12.2360,-0.1948,1.0081,0.2617
12.2370,-0.1948,1.0081,0.2617
12.2380,-0.1901,1.0018,0.2603
12.2390,-0.1901,1.0018,0.2603
12.2590,-0.1901,1.0018,0.2603
12.2600,-0.1901,1.0018,0.2603
12.2610,-0.1901,1.0018,0.2603
12.2620,-0.1852,1.0113,0.2500
12.2660,-0.1852,1.0113,0.2500
12.2660,-0.1852,1.0113,0.2500
12.2860,-0.1852,1.0113,0.2500
12.2870,-0.1852,1.0113,0.2500
12.2880,-0.1852,1.0113,0.2500
12.2890,-0.1843,1.0118,0.2537
12.2900,-0.1867,1.0069,0.2595
12.3160,-0.1867,1.0069,0.2595
12.3180,-0.1867,1.0069,0.2595
12.3190,-0.1867,1.0069,0.2595
12.3200,-0.1899,1.0042,0.2583
12.3210,-0.1899,1.0042,0.2583
12.3370,-0.1899,1.0042,0.2583
12.3390,-0.1899,1.0042,0.2583
12.3400,-0.1899,1.0042,0.2583
12.3410,-0.1989,1.0115,0.2588
12.3660,-0.1989,1.0115,0.2588
12.3670,-0.1989,1.0115,0.2588
12.3680,-0.1989,1.0115,0.2588
12.3680,-0.2036,1.0123,0.2595
12.3690,-0.1970,1.0164,0.2632
12.3950,-0.1970,1.0164,0.2632
12.3960,-0.1970,1.0164,0.2632
12.3980,-0.1970,1.0164,0.2632
12.3990,-0.1904,1.0132,0.2503
12.4000,-0.1904,1.0132,0.2503
12.4160,-0.1904,1.0132,0.2503
12.4170,-0.1904,1.0132,0.2503
12.4180,-0.1904,1.0132,0.2503
12.4180,-0.1918,1.0049,0.2630
12.4450,-0.1918,1.0049,0.2630
12.4460,-0.1918,1.0049,0.2630
12.4470,-0.1918,1.0049,0.2630
12.4710,-0.2016,1.0049,0.2676
12.4720,-0.2019,1.0054,0.2542
12.4720,-0.2019,1.0054,0.2542
12.4730,-0.2019,1.0054,0.2542
12.4760,-0.2019,1.0054,0.2542
12.4770,-0.2019,1.0054,0.2542
12.4780,-0.2019,1.0054,0.2542
12.4790,-0.1955,1.0044,0.2576
12.4790,-0.1955,1.0044,0.2576
12.4960,-0.1955,1.0044,0.2576
12.4970,-0.1955,1.0044,0.2576
12.4980,-0.1955,1.0044,0.2576
12.4980,-0.1960,1.0086,0.2654
12.5250,-0.1960,1.0086,0.2654
12.5250,-0.1960,1.0086,0.2654
12.5260,-0.1960,1.0086,0.2654
12.5270,-0.1972,1.0162,0.2627
12.5270,-0.2021,1.0101,0.2591
12.5550,-0.2021,1.0101,0.2591
12.5560,-0.2021,1.0101,0.2591
12.5570,-0.2021,1.0101,0.2591
12.5580,-0.2004,1.0003,0.2542
12.5580,-0.2004,1.0003,0.2542
12.5760,-0.2004,1.0003,0.2542
12.5810,-0.2004,1.0003,0.2542
12.5820,-0.2004,1.0003,0.2542
12.5820,-0.2026,1.0010,0.2613
12.6070,-0.2026,1.0010,0.2613
12.6080,-0.2026,1.0010,0.2613
12.6080,-0.2026,1.0010,0.2613
12.6090,-0.2011,1.0066,0.2642
12.6090,-0.1943,1.0084,0.2600
12.6360,-0.1943,1.0084,0.2600
12.6360,-0.1943,1.0084,0.2600
12.6370,-0.1943,1.0084,0.2600
12.6380,-0.1872,1.0167,0.2591
12.6390,-0.1872,1.0167,0.2591
12.6560,-0.1872,1.0167,0.2591
12.6590,-0.1872,1.0167,0.2591
12.6600,-0.1872,1.0167,0.2591
12.6620,-0.1879,1.0203,0.2613
12.6630,-0.1879,1.0203,0.2613
12.6650,-0.1879,1.0203,0.2613
12.6860,-0.1879,1.0203,0.2613
12.6880,-0.1879,1.0203,0.2613
12.6910,-0.1879,1.0203,0.2613
12.6920,-0.1994,1.0120,0.2698
12.6930,-0.2053,1.0035,0.2544
12.7170,-0.2053,1.0035,0.2544
12.7180,-0.2053,1.0035,0.2544
12.7190,-0.2053,1.0035,0.2544
12.7200,-0.2033,1.0081,0.2510
12.7210,-0.2033,1.0081,0.2510
12.7370,-0.2033,1.0081,0.2510
12.7380,-0.2033,1.0081,0.2510
12.7390,-0.2033,1.0081,0.2510
12.7400,-0.2019,1.0076,0.2630
12.7670,-0.2019,1.0076,0.2630
12.7680,-0.2019,1.0076,0.2630
12.7680,-0.2019,1.0076,0.2630
12.7690,-0.2006,1.0047,0.2669
12.7700,-0.2024,1.0057,0.2549
12.7960,-0.2024,1.0057,0.2549
12.7970,-0.2024,1.0057,0.2549
12.7980,-0.2024,1.0057,0.2549
12.7990,-0.2036,1.0047,0.2608
12.8000,-0.2036,1.0047,0.2608
12.8200,-0.2036,1.0047,0.2608
12.8210,-0.2036,1.0047,0.2608
12.8220,-0.2036,1.0047,0.2608
12.8230,-0.2006,1.0003,0.2676
12.8470,-0.2006,1.0003,0.2676
12.8480,-0.2006,1.0003,0.2676
12.8490,-0.2006,1.0003,0.2676
12.8500,-0.2009,1.0066,0.2515
12.8510,-0.2024,1.0086,0.2539
12.8620,-0.2024,1.0086,0.2539
12.8650,-0.2024,1.0086,0.2539
12.8750,-0.2024,1.0086,0.2539
12.8760,-0.2024,1.0086,0.2539
12.8770,-0.2024,1.0086,0.2539
12.8780,-0.2006,1.0054,0.2674
12.8790,-0.2006,1.0054,0.2674
12.8960,-0.2006,1.0054,0.2674
12.8970,-0.2006,1.0054,0.2674
12.8990,-0.2006,1.0054,0.2674
12.9000,-0.2014,1.0047,0.2659
12.9250,-0.2014,1.0047,0.2659
12.9260,-0.2014,1.0047,0.2659
12.9270,-0.2014,1.0047,0.2659
12.9280,-0.2092,1.0062,0.2679
12.9290,-0.2063,1.0057,0.2647
12.9550,-0.2063,1.0057,0.2647
12.9560,-0.2063,1.0057,0.2647
12.9570,-0.2063,1.0057,0.2647
12.9580,-0.2080,0.9956,0.2649
12.9590,-0.2080,0.9956,0.2649
12.9760,-0.2080,0.9956,0.2649
12.9770,-0.2080,0.9956,0.2649
12.9780,-0.2080,0.9956,0.2649
13.0000,-0.2082,1.0022,0.2696
13.0060,-0.2082,1.0022,0.2696
13.0070,-0.2082,1.0022,0.2696
13.0080,-0.2082,1.0022,0.2696
13.0090,-0.2087,1.0093,0.2586
13.0090,-0.2011,1.0096,0.2588
13.0350,-0.2011,1.0096,0.2588
13.0360,-0.2011,1.0096,0.2588
13.0370,-0.2011,1.0096,0.2588
13.0380,-0.1967,1.0086,0.2620
13.0380,-0.1967,1.0086,0.2620
13.0540,-0.1967,1.0086,0.2620
13.0550,-0.1967,1.0086,0.2620
13.0560,-0.1967,1.0086,0.2620
13.0560,-0.2002,1.0071,0.2666
13.0640,-0.2002,1.0071,0.2666
13.0650,-0.2002,1.0071,0.2666
13.0860,-0.2002,1.0071,0.2666
13.0870,-0.2002,1.0071,0.2666
13.0870,-0.2002,1.0071,0.2666
13.0880,-0.1982,1.0120,0.2600
13.0890,-0.2002,1.0145,0.2527
13.1160,-0.2002,1.0145,0.2527
13.1160,-0.2002,1.0145,0.2527
13.1170,-0.2002,1.0145,0.2527
13.1170,-0.2053,1.0049,0.2571
13.1180,-0.2053,1.0049,0.2571
13.1350,-0.2053,1.0049,0.2571
13.1360,-0.2053,1.0049,0.2571
13.1370,-0.2053,1.0049,0.2571
13.1370,-0.2119,0.9969,0.2598
13.1660,-0.2119,0.9969,0.2598
13.1660,-0.2119,0.9969,0.2598
13.1670,-0.2119,0.9969,0.2598
13.1680,-0.2107,1.0008,0.2591
13.1690,-0.2046,1.0064,0.2561
13.1960,-0.2046,1.0064,0.2561
13.1960,-0.2046,1.0064,0.2561
13.1970,-0.2046,1.0064,0.2561
13.1980,-0.1955,1.0108,0.2593
13.1980,-0.1955,1.0108,0.2593
13.2150,-0.1955,1.0108,0.2593
13.2160,-0.1955,1.0108,0.2593
13.2160,-0.1955,1.0108,0.2593
13.2180,-0.1940,1.0096,0.2600
13.2460,-0.1940,1.0096,0.2600
13.2470,-0.1940,1.0096,0.2600
13.2480,-0.1940,1.0096,0.2600
13.2480,-0.1987,1.0049,0.2578
13.2490,-0.2004,1.0071,0.2630
13.2630,-0.2004,1.0071,0.2630
13.2640,-0.2004,1.0071,0.2630
13.2760,-0.2004,1.0071,0.2630
13.2770,-0.2004,1.0071,0.2630
13.2780,-0.2004,1.0071,0.2630
13.2790,-0.2016,1.0054,0.2591
13.2800,-0.2016,1.0054,0.2591
13.2960,-0.2016,1.0054,0.2591
13.2970,-0.2016,1.0054,0.2591
13.2980,-0.2016,1.0054,0.2591
13.2990,-0.2046,1.0015,0.2600
13.3260,-0.2046,1.0015,0.2600
13.3270,-0.2046,1.0015,0.2600
13.3280,-0.2046,1.0015,0.2600
13.3290,-0.2028,1.0071,0.2573
13.3300,-0.2024,1.0093,0.2600
13.3560,-0.2024,1.0093,0.2600
13.3570,-0.2024,1.0093,0.2600
13.3580,-0.2024,1.0093,0.2600
13.3590,-0.2014,1.0123,0.2605
13.3600,-0.2014,1.0123,0.2605
13.3760,-0.2014,1.0123,0.2605
13.3770,-0.2014,1.0123,0.2605
13.3780,-0.2014,1.0123,0.2605
13.3790,-0.2009,1.0027,0.2576
13.4060,-0.2009,1.0027,0.2576
13.4070,-0.2009,1.0027,0.2576
13.4080,-0.2009,1.0027,0.2576
13.4090,-0.2053,0.9964,0.2593
13.4100,-0.2053,0.9996,0.2647
13.4360,-0.2053,0.9996,0.2647
13.4370,-0.2053,0.9996,0.2647
13.4380,-0.2053,0.9996,0.2647
13.4390,-0.1970,1.0113,0.2730
13.4410,-0.1970,1.0113,0.2730
13.4580,-0.1970,1.0113,0.2730
13.4590,-0.1970,1.0113,0.2730
13.4610,-0.1970,1.0113,0.2730
13.4620,-0.1826,1.0164,0.2630
13.4640,-0.1826,1.0164,0.2630
13.4650,-0.1826,1.0164,0.2630
13.4860,-0.1826,1.0164,0.2630
13.4870,-0.1826,1.0164,0.2630
13.4880,-0.1826,1.0164,0.2630
13.4890,-0.1784,1.0093,0.2539
13.4920,-0.1962,1.0081,0.2674
13.5190,-0.1962,1.0081,0.2674
13.5200,-0.1962,1.0081,0.2674
13.5210,-0.1962,1.0081,0.2674
13.5220,-0.1997,1.0140,0.2595
13.5460,-0.1997,1.0140,0.2595
13.5460,-0.1997,1.0140,0.2595
13.5470,-0.1997,1.0140,0.2595
13.5470,-0.1997,1.0140,0.2595
13.5470,-0.1928,1.0079,0.2639
13.5650,-0.1928,1.0079,0.2639
13.5650,-0.1928,1.0079,0.2639
13.5650,-0.1928,1.0079,0.2639
13.5660,-0.1782,1.0057,0.2676
13.5660,-0.1808,1.0084,0.2605
13.5970,-0.1808,1.0084,0.2605
13.5980,-0.1808,1.0084,0.2605
13.5990,-0.1808,1.0084,0.2605
13.6000,-0.1884,1.0150,0.2561
13.6010,-0.1884,1.0150,0.2561
13.6160,-0.1884,1.0150,0.2561
13.6170,-0.1884,1.0150,0.2561
13.6180,-0.1884,1.0150,0.2561
13.6190,-0.1894,1.0110,0.2610
13.6460,-0.1894,1.0110,0.2610
13.6480,-0.1894,1.0110,0.2610
13.6480,-0.1894,1.0110,0.2610
13.6490,-0.1848,0.9993,0.2644
13.6500,-0.1955,0.9920,0.2661
13.6630,-0.1955,0.9920,0.2661
13.6640,-0.1955,0.9920,0.2661
13.6780,-0.1955,0.9920,0.2661
13.6790,-0.1955,0.9920,0.2661
13.6800,-0.1955,0.9920,0.2661
13.6810,-0.2180,1.0037,0.2637
13.6820,-0.2180,1.0037,0.2637
13.6970,-0.2180,1.0037,0.2637
13.6980,-0.2180,1.0037,0.2637
13.6990,-0.2180,1.0037,0.2637
13.7020,-0.2141,1.0186,0.2551
13.7270,-0.2141,1.0186,0.2551
13.7280,-0.2141,1.0186,0.2551
13.7300,-0.2141,1.0186,0.2551
13.7310,-0.1948,1.0150,0.2573
13.7350,-0.1882,1.0059,0.2686
13.7560,-0.1882,1.0059,0.2686
13.7570,-0.1882,1.0059,0.2686
13.7580,-0.1882,1.0059,0.2686
13.7590,-0.1980,1.0106,0.2529
13.7600,-0.1980,1.0106,0.2529
13.7780,-0.1980,1.0106,0.2529
13.7790,-0.1980,1.0106,0.2529
13.7800,-0.1980,1.0106,0.2529
13.7810,-0.2004,1.0128,0.2432
13.8070,-0.2004,1.0128,0.2432
13.8080,-0.2004,1.0128,0.2432
13.8090,-0.2004,1.0128,0.2432
13.8120,-0.1938,1.0035,0.2608
13.8130,-0.1901,1.0005,0.2749
13.8370,-0.1901,1.0005,0.2749
13.8390,-0.1901,1.0005,0.2749
13.8390,-0.1901,1.0005,0.2749
13.8410,-0.1862,1.0091,0.2581
13.8420,-0.1862,1.0091,0.2581
13.8560,-0.1862,1.0091,0.2581
13.8580,-0.1862,1.0091,0.2581
13.8590,-0.1862,1.0091,0.2581
13.8590,-0.1926,1.0101,0.2419
13.8660,-0.1926,1.0101,0.2419
13.8860,-0.1926,1.0101,0.2419
13.8870,-0.1926,1.0101,0.2419
13.8880,-0.1926,1.0101,0.2419
13.8890,-0.1943,1.0140,0.2576
13.8920,-0.1889,1.0084,0.2701
13.9190,-0.1889,1.0084,0.2701
13.9210,-0.1889,1.0084,0.2701
13.9210,-0.1889,1.0084,0.2701
13.9220,-0.1865,1.0018,0.2576
13.9230,-0.1865,1.0018,0.2576
13.9370,-0.1865,1.0018,0.2576
13.9380,-0.1865,1.0018,0.2576
13.9390,-0.1865,1.0018,0.2576
13.9400,-0.1948,1.0098,0.2549
13.9680,-0.1948,1.0098,0.2549
13.9690,-0.1948,1.0098,0.2549
13.9700,-0.1948,1.0098,0.2549
13.9710,-0.1931,1.0140,0.2498
13.9720,-0.1789,1.0052,0.2617
13.9970,-0.1789,1.0052,0.2617
13.9990,-0.1789,1.0052,0.2617
14.0000,-0.1789,1.0052,0.2617
14.0010,-0.1791,1.0027,0.2639
14.0020,-0.1791,1.0027,0.2639
14.0180,-0.1791,1.0027,0.2639
14.0190,-0.1791,1.0027,0.2639
14.0190,-0.1791,1.0027,0.2639
14.0210,-0.1923,1.0172,0.2547
14.0470,-0.1923,1.0172,0.2547
14.0500,-0.1923,1.0172,0.2547
14.0520,-0.1923,1.0172,0.2547
14.0530,-0.1980,1.0208,0.2554
14.0540,-0.1804,1.0096,0.2671
14.0620,-0.1804,1.0096,0.2671
14.0650,-0.1804,1.0096,0.2671
14.0780,-0.1804,1.0096,0.2671
14.1000,-0.1804,1.0096,0.2671
14.1010,-0.1804,1.0096,0.2671
14.1020,-0.1669,1.0013,0.2725
14.1020,-0.1669,1.0013,0.2725
14.1030,-0.1669,1.0013,0.2725
14.1060,-0.1669,1.0013,0.2725
14.1070,-0.1669,1.0013,0.2725
14.1080,-0.1757,1.0079,0.2657
14.1260,-0.1757,1.0079,0.2657
14.1260,-0.1757,1.0079,0.2657
14.1270,-0.1757,1.0079,0.2657
14.1280,-0.1782,1.0193,0.2600
14.1290,-0.1721,1.0152,0.2583
14.1560,-0.1721,1.0152,0.2583
14.1570,-0.1721,1.0152,0.2583
14.1570,-0.1721,1.0152,0.2583
14.1580,-0.1708,1.0110,0.2639
14.1580,-0.1708,1.0110,0.2639
14.1770,-0.1708,1.0110,0.2639
14.1780,-0.1708,1.0110,0.2639
14.1780,-0.1708,1.0110,0.2639
14.1780,-0.1747,1.0125,0.2583
14.2060,-0.1747,1.0125,0.2583
14.2070,-0.1747,1.0125,0.2583
14.2070,-0.1747,1.0125,0.2583
14.2070,-0.1892,1.0152,0.2586
14.2080,-0.1945,1.0110,0.2649
14.2370,-0.1945,1.0110,0.2649
14.2380,-0.1945,1.0110,0.2649
14.2380,-0.1945,1.0110,0.2649
14.2390,-0.1923,1.0022,0.2769
14.2400,-0.1923,1.0022,0.2769
14.2570,-0.1923,1.0022,0.2769
14.2580,-0.1923,1.0022,0.2769
14.2590,-0.1923,1.0022,0.2769
14.2590,-0.1992,1.0113,0.2681
14.2650,-0.1992,1.0113,0.2681
14.2660,-0.1992,1.0113,0.2681
14.2870,-0.1992,1.0113,0.2681
14.2880,-0.1992,1.0113,0.2681
14.2890,-0.1992,1.0113,0.2681
14.2900,-0.1955,1.0142,0.2515
14.2910,-0.1940,1.0010,0.2539
14.3180,-0.1940,1.0010,0.2539
14.3190,-0.1940,1.0010,0.2539
14.3200,-0.1940,1.0010,0.2539
14.3220,-0.1997,1.0037,0.2691
14.3230,-0.1997,1.0037,0.2691
14.3380,-0.1997,1.0037,0.2691
14.3390,-0.1997,1.0037,0.2691
14.3400,-0.1997,1.0037,0.2691
14.3410,-0.2036,1.0096,0.2591
14.3670,-0.2036,1.0096,0.2591
14.3680,-0.2036,1.0096,0.2591
14.3690,-0.2036,1.0096,0.2591
14.3700,-0.1879,1.0042,0.2488
14.3710,-0.1677,1.0084,0.2608
14.3980,-0.1677,1.0084,0.2608
14.3980,-0.1677,1.0084,0.2608
14.3990,-0.1677,1.0084,0.2608
14.4000,-0.1672,1.0169,0.2637
14.4030,-0.1672,1.0169,0.2637
14.4170,-0.1672,1.0169,0.2637
14.4180,-0.1672,1.0169,0.2637
14.4180,-0.1672,1.0169,0.2637
14.4190,-0.1721,1.0225,0.2476
14.4480,-0.1721,1.0225,0.2476
14.4490,-0.1721,1.0225,0.2476
14.4500,-0.1721,1.0225,0.2476
14.4520,-0.1806,1.0174,0.2415
14.4530,-0.1867,1.0027,0.2671
14.4630,-0.1867,1.0027,0.2671
14.4640,-0.1867,1.0027,0.2671
14.4800,-0.1867,1.0027,0.2671
14.4810,-0.1867,1.0027,0.2671
14.4810,-0.1867,1.0027,0.2671
14.4820,-0.1928,0.9998,0.2715
14.4830,-0.1928,0.9998,0.2715
14.4980,-0.1928,0.9998,0.2715
14.4990,-0.1928,0.9998,0.2715
14.4990,-0.1928,0.9998,0.2715
14.5000,-0.1975,1.0071,0.2549
14.5280,-0.1975,1.0071,0.2549
14.5280,-0.1975,1.0071,0.2549
14.5290,-0.1975,1.0071,0.2549
14.5290,-0.1892,1.0093,0.2520
14.5300,-0.1804,1.0150,0.2644
14.5580,-0.1804,1.0150,0.2644
14.5590,-0.1804,1.0150,0.2644
14.5600,-0.1804,1.0150,0.2644
14.5610,-0.1843,1.0223,0.2542
14.5620,-0.1843,1.0223,0.2542
14.5780,-0.1843,1.0223,0.2542
14.5790,-0.1843,1.0223,0.2542
14.5800,-0.1843,1.0223,0.2542
14.5810,-0.1835,1.0118,0.2534
14.6080,-0.1835,1.0118,0.2534
14.6090,-0.1835,1.0118,0.2534
14.6100,-0.1835,1.0118,0.2534
14.6110,-0.1794,1.0003,0.2703
14.6370,-0.1723,1.0086,0.2647
14.6380,-0.1723,1.0086,0.2647
14.6380,-0.1723,1.0086,0.2647
14.6380,-0.1723,1.0086,0.2647
14.6390,-0.1794,1.0162,0.2551
14.6390,-0.1794,1.0162,0.2551
14.6570,-0.1794,1.0162,0.2551
14.6570,-0.1794,1.0162,0.2551
14.6570,-0.1794,1.0162,0.2551
14.6580,-0.1860,1.0140,0.2620
14.6650,-0.1860,1.0140,0.2620
14.6650,-0.1860,1.0140,0.2620
14.6880,-0.1860,1.0140,0.2620
14.6890,-0.1860,1.0140,0.2620
14.6900,-0.1860,1.0140,0.2620
14.6910,-0.1791,1.0091,0.2647
14.6910,-0.1767,1.0147,0.2529
14.7230,-0.1767,1.0147,0.2529
14.7240,-0.1767,1.0147,0.2529
14.7240,-0.1767,1.0147,0.2529
14.7250,-0.1906,1.0069,0.2598
14.7250,-0.1906,1.0069,0.2598
14.7370,-0.1906,1.0069,0.2598
14.7380,-0.1906,1.0069,0.2598
14.7380,-0.1906,1.0069,0.2598
14.7390,-0.1987,1.0069,0.2705
14.7670,-0.1987,1.0069,0.2705
14.7680,-0.1987,1.0069,0.2705
14.7690,-0.1987,1.0069,0.2705
14.7700,-0.2024,1.0145,0.2600
14.7710,-0.1980,1.0042,0.2600
14.7990,-0.1980,1.0042,0.2600
14.8000,-0.1980,1.0042,0.2600
14.8000,-0.1980,1.0042,0.2600
14.8010,-0.1857,0.9983,0.2710
14.8010,-0.1857,0.9983,0.2710
14.8180,-0.1857,0.9983,0.2710
14.8180,-0.1857,0.9983,0.2710
14.8190,-0.1857,0.9983,0.2710
14.8200,-0.1801,1.0172,0.2644
14.8480,-0.1801,1.0172,0.2644
14.8480,-0.1801,1.0172,0.2644
14.8490,-0.1801,1.0172,0.2644
14.8490,-0.1777,1.0193,0.2608
14.8520,-0.1791,1.0030,0.2664
14.8650,-0.1791,1.0030,0.2664
14.8660,-0.1791,1.0030,0.2664
14.8770,-0.1791,1.0030,0.2664
14.8780,-0.1791,1.0030,0.2664
14.8790,-0.1791,1.0030,0.2664
14.8800,-0.1835,1.0057,0.2595
14.8820,-0.1835,1.0057,0.2595
14.8970,-0.1835,1.0057,0.2595
14.8980,-0.1835,1.0057,0.2595
14.8980,-0.1835,1.0057,0.2595
14.8980,-0.1892,1.0118,0.2583
14.9280,-0.1892,1.0118,0.2583
14.9280,-0.1892,1.0118,0.2583
14.9290,-0.1892,1.0118,0.2583
14.9290,-0.1909,1.0069,0.2725
14.9290,-0.1835,1.0108,0.2671
14.9580,-0.1835,1.0108,0.2671
14.9590,-0.1835,1.0108,0.2671
14.9600,-0.1835,1.0108,0.2671
14.9610,-0.1804,1.0123,0.2529
14.9620,-0.1804,1.0123,0.2529
14.9790,-0.1804,1.0123,0.2529
14.9800,-0.1804,1.0123,0.2529
14.9810,-0.1804,1.0123,0.2529
14.9820,-0.1799,1.0103,0.2583
15.0080,-0.1799,1.0103,0.2583
15.0090,-0.1799,1.0103,0.2583
15.0100,-0.1799,1.0103,0.2583
15.0110,-0.1806,1.0093,0.2693
15.0120,-0.1838,1.0106,0.2635
15.0370,-0.1838,1.0106,0.2635
15.0380,-0.1838,1.0106,0.2635
15.0390,-0.1838,1.0106,0.2635
15.0410,-0.1936,1.0120,0.2551
15.0420,-0.1936,1.0120,0.2551
15.0590,-0.1936,1.0120,0.2551
15.0600,-0.1936,1.0120,0.2551
15.0620,-0.1936,1.0120,0.2551
15.0620,-0.2028,1.0179,0.2515
15.0630,-0.2028,1.0179,0.2515
15.0640,-0.2028,1.0179,0.2515
15.0880,-0.2028,1.0179,0.2515
15.0890,-0.2028,1.0179,0.2515
15.0900,-0.2028,1.0179,0.2515
15.0910,-0.1958,1.0110,0.2498
15.0920,-0.1860,0.9927,0.2630
15.1190,-0.1860,0.9927,0.2630
15.1200,-0.1860,0.9927,0.2630
15.1210,-0.1860,0.9927,0.2630
15.1220,-0.1840,0.9934,0.2686
15.1230,-0.1840,0.9934,0.2686
15.1390,-0.1840,0.9934,0.2686
15.1400,-0.1840,0.9934,0.2686
15.1410,-0.1840,0.9934,0.2686
15.1420,-0.1801,1.0049,0.2571
15.1670,-0.1801,1.0049,0.2571
15.1680,-0.1801,1.0049,0.2571
15.1680,-0.1801,1.0049,0.2571
15.1690,-0.1823,1.0140,0.2564
15.1700,-0.1860,1.0137,0.2664
15.1980,-0.1860,1.0137,0.2664
15.1980,-0.1860,1.0137,0.2664
15.1990,-0.1860,1.0137,0.2664
15.1990,-0.1874,1.0164,0.2647
15.1990,-0.1874,1.0164,0.2647
15.2180,-0.1874,1.0164,0.2647
15.2190,-0.1874,1.0164,0.2647
15.2190,-0.1874,1.0164,0.2647
15.2200,-0.1901,1.0164,0.2554
15.2490,-0.1901,1.0164,0.2554
15.2500,-0.1901,1.0164,0.2554
15.2510,-0.1901,1.0164,0.2554
15.2520,-0.1838,1.0084,0.2661
15.2520,-0.1755,1.0110,0.2608
15.2620,-0.1755,1.0110,0.2608
15.2780,-0.1755,1.0110,0.2608
15.2790,-0.1755,1.0110,0.2608
15.2800,-0.1755,1.0110,0.2608
15.2810,-0.1830,1.0167,0.2613
15.2820,-0.1830,1.0167,0.2613
15.3000,-0.1830,1.0167,0.2613
15.3010,-0.1830,1.0167,0.2613
15.3010,-0.1830,1.0167,0.2613
15.3020,-0.1906,1.0128,0.2686
15.3290,-0.1906,1.0128,0.2686
15.3300,-0.1906,1.0128,0.2686
15.3310,-0.1906,1.0128,0.2686
15.3320,-0.1980,1.0010,0.2720
15.3330,-0.1904,1.0008,0.2610
15.3590,-0.1904,1.0008,0.2610
15.3610,-0.1904,1.0008,0.2610
15.3610,-0.1904,1.0008,0.2610
15.3620,-0.1747,1.0103,0.2774
15.3630,-0.1747,1.0103,0.2774
15.3780,-0.1747,1.0103,0.2774
15.3790,-0.1747,1.0103,0.2774
15.3810,-0.1747,1.0103,0.2774
15.3810,-0.1623,1.0032,0.2698
15.4090,-0.1623,1.0032,0.2698
15.4130,-0.1623,1.0032,0.2698
15.4140,-0.1623,1.0032,0.2698
15.4150,-0.1808,1.0147,0.2495
15.4160,-0.2024,1.0257,0.2495
15.4390,-0.2024,1.0257,0.2495
15.4400,-0.2024,1.0257,0.2495
15.4410,-0.2024,1.0257,0.2495
15.4420,-0.2024,1.0093,0.2696
15.4430,-0.2024,1.0093,0.2696
15.4590,-0.2024,1.0093,0.2696
15.4610,-0.2024,1.0093,0.2696
15.4620,-0.2024,1.0093,0.2696
15.4630,-0.1972,1.0027,0.2806
15.4650,-0.1972,1.0027,0.2806
15.4680,-0.1972,1.0027,0.2806
15.4890,-0.1972,1.0027,0.2806
15.4890,-0.1972,1.0027,0.2806
15.4900,-0.1972,1.0027,0.2806
15.4910,-0.1894,1.0088,0.2664
15.4940,-0.1877,1.0123,0.2539
15.5190,-0.1877,1.0123,0.2539
15.5200,-0.1877,1.0123,0.2539
15.5210,-0.1877,1.0123,0.2539
15.5210,-0.1870,1.0084,0.2554
15.5220,-0.1870,1.0084,0.2554
15.5410,-0.1870,1.0084,0.2554
15.5420,-0.1870,1.0084,0.2554
15.5430,-0.1870,1.0084,0.2554
15.5440,-0.1740,1.0040,0.2769
15.5720,-0.1740,1.0040,0.2769
15.5730,-0.1740,1.0040,0.2769
15.5740,-0.1740,1.0040,0.2769
15.5760,-0.1637,1.0037,0.2691
15.5780,-0.1642,1.0101,0.2571
15.6000,-0.1642,1.0101,0.2571
15.6010,-0.1642,1.0101,0.2571
15.6010,-0.1642,1.0101,0.2571
15.6020,-0.1650,1.0145,0.2630
15.6030,-0.1650,1.0145,0.2630
15.6200,-0.1650,1.0145,0.2630
15.6210,-0.1650,1.0145,0.2630
15.6220,-0.1650,1.0145,0.2630
15.6220,-0.1686,1.0184,0.2671
15.6480,-0.1686,1.0184,0.2671
15.6490,-0.1686,1.0184,0.2671
15.6500,-0.1686,1.0184,0.2671
15.6510,-0.1745,1.0191,0.2630
15.6520,-0.1830,1.0135,0.2556
15.6650,-0.1830,1.0135,0.2556
15.6660,-0.1830,1.0135,0.2556
15.6800,-0.1830,1.0135,0.2556
15.6800,-0.1830,1.0135,0.2556
15.6810,-0.1830,1.0135,0.2556
15.6820,-0.1923,1.0147,0.2571
15.6830,-0.1923,1.0147,0.2571
15.6990,-0.1923,1.0147,0.2571
15.7170,-0.1923,1.0147,0.2571
15.7180,-0.1923,1.0147,0.2571
15.7190,-0.1867,1.0152,0.2591
15.7290,-0.1867,1.0152,0.2591
15.7290,-0.1867,1.0152,0.2591
15.7290,-0.1867,1.0152,0.2591
15.7300,-0.1816,1.0125,0.2600
15.7300,-0.1860,1.0084,0.2573
15.7590,-0.1860,1.0084,0.2573
15.7590,-0.1860,1.0084,0.2573
15.7600,-0.1860,1.0084,0.2573
15.7610,-0.1887,1.0076,0.2529
15.7610,-0.1887,1.0076,0.2529
15.7790,-0.1887,1.0076,0.2529
15.7800,-0.1887,1.0076,0.2529
15.7810,-0.1887,1.0076,0.2529
15.7820,-0.1887,1.0093,0.2551
15.8120,-0.1887,1.0093,0.2551
15.8130,-0.1887,1.0093,0.2551
15.8140,-0.1887,1.0093,0.2551
15.8160,-0.1843,1.0079,0.2644
15.8170,-0.1811,1.0020,0.2708
15.8390,-0.1811,1.0020,0.2708
15.8400,-0.1811,1.0020,0.2708
15.8410,-0.1811,1.0020,0.2708
15.8430,-0.1848,0.9961,0.2835
15.8440,-0.1848,0.9961,0.2835
15.8600,-0.1848,0.9961,0.2835
15.8610,-0.1848,0.9961,0.2835
15.8630,-0.1848,0.9961,0.2835
15.8650,-0.1865,1.0052,0.2671
15.8660,-0.1865,1.0052,0.2671
15.8680,-0.1865,1.0052,0.2671
15.8890,-0.1865,1.0052,0.2671
15.8900,-0.1865,1.0052,0.2671
15.8920,-0.1865,1.0052,0.2671
15.8920,-0.1806,1.0203,0.2532
15.8930,-0.1791,1.0154,0.2661
15.9200,-0.1791,1.0154,0.2661
15.9210,-0.1791,1.0154,0.2661
15.9220,-0.1791,1.0154,0.2661
15.9230,-0.1808,1.0054,0.2561
15.9240,-0.1808,1.0054,0.2561
15.9390,-0.1808,1.0054,0.2561
15.9400,-0.1808,1.0054,0.2561
15.9410,-0.1808,1.0054,0.2561
15.9420,-0.1872,1.0101,0.2544
15.9700,-0.1872,1.0101,0.2544
15.9710,-0.1872,1.0101,0.2544
15.9720,-0.1872,1.0101,0.2544
15.9730,-0.1857,1.0106,0.2627
15.9750,-0.1762,1.0044,0.2803
16.0000,-0.1762,1.0044,0.2803
16.0010,-0.1762,1.0044,0.2803
16.0020,-0.1762,1.0044,0.2803
16.0030,-0.1706,1.0091,0.2793
16.0040,-0.1706,1.0091,0.2793
16.0210,-0.1706,1.0091,0.2793
16.0220,-0.1706,1.0091,0.2793
16.0230,-0.1706,1.0091,0.2793
16.0240,-0.1579,1.0201,0.2571
16.0500,-0.1579,1.0201,0.2571
16.0520,-0.1579,1.0201,0.2571
16.0530,-0.1579,1.0201,0.2571
16.0540,-0.1574,1.0186,0.2463
16.0550,-0.1684,1.0174,0.2617
16.0630,-0.1684,1.0174,0.2617
16.0660,-0.1684,1.0174,0.2617
16.0800,-0.1684,1.0174,0.2617
16.0810,-0.1684,1.0174,0.2617
16.0820,-0.1684,1.0174,0.2617
16.0830,-0.1757,1.0135,0.2679
16.0840,-0.1757,1.0135,0.2679
16.1010,-0.1757,1.0135,0.2679
16.1020,-0.1757,1.0135,0.2679
16.1030,-0.1757,1.0135,0.2679
16.1030,-0.1782,1.0093,0.2691
16.1290,-0.1782,1.0093,0.2691
16.1300,-0.1782,1.0093,0.2691
16.1310,-0.1782,1.0093,0.2691
16.1320,-0.1784,1.0081,0.2669
16.1330,-0.1750,1.0079,0.2537
16.1590,-0.1750,1.0079,0.2537
16.1600,-0.1750,1.0079,0.2537
16.1600,-0.1750,1.0079,0.2537
16.1610,-0.1816,1.0162,0.2561
16.1620,-0.1816,1.0162,0.2561
16.1800,-0.1816,1.0162,0.2561
16.1810,-0.1816,1.0162,0.2561
16.1820,-0.1816,1.0162,0.2561
16.1830,-0.1860,1.0120,0.2554
16.2090,-0.1860,1.0120,0.2554
16.2110,-0.1860,1.0120,0.2554
16.2130,-0.1860,1.0120,0.2554
16.2140,-0.1777,1.0071,0.2632
16.2150,-0.1625,1.0049,0.2666
16.2400,-0.1625,1.0049,0.2666
16.2420,-0.1625,1.0049,0.2666
16.2430,-0.1625,1.0049,0.2666
16.2440,-0.1579,1.0079,0.2647
16.2660,-0.1579,1.0079,0.2647
16.2660,-0.1579,1.0079,0.2647
16.2670,-0.1579,1.0079,0.2647
16.2680,-0.1579,1.0079,0.2647
16.2690,-0.1637,1.0088,0.2652
16.2720,-0.1637,1.0088,0.2652
16.2750,-0.1637,1.0088,0.2652
16.2890,-0.1637,1.0088,0.2652
16.2900,-0.1637,1.0088,0.2652
16.2910,-0.1637,1.0088,0.2652
16.2910,-0.1703,1.0132,0.2576
16.2910,-0.1689,1.0220,0.2515
16.3200,-0.1689,1.0220,0.2515
16.3200,-0.1689,1.0220,0.2515
16.3210,-0.1689,1.0220,0.2515
16.3220,-0.1620,1.0176,0.2583
16.3240,-0.1620,1.0176,0.2583
16.3390,-0.1620,1.0176,0.2583
16.3410,-0.1620,1.0176,0.2583
16.3420,-0.1620,1.0176,0.2583
16.3430,-0.1596,1.0159,0.2647
16.3730,-0.1596,1.0159,0.2647
16.3750,-0.1596,1.0159,0.2647
16.3760,-0.1596,1.0159,0.2647
16.3760,-0.1752,1.0186,0.2686
16.3770,-0.1794,1.0115,0.2727
16.4040,-0.1794,1.0115,0.2727
16.4050,-0.1794,1.0115,0.2727
16.4060,-0.1794,1.0115,0.2727
16.4080,-0.1725,1.0015,0.2744
16.4090,-0.1725,1.0015,0.2744
16.4210,-0.1725,1.0015,0.2744
16.4210,-0.1725,1.0015,0.2744
16.4220,-0.1725,1.0015,0.2744
16.4230,-0.1674,1.0118,0.2576
16.4510,-0.1674,1.0118,0.2576
16.4520,-0.1674,1.0118,0.2576
16.4530,-0.1674,1.0118,0.2576
16.4540,-0.1735,1.0235,0.2476
16.4550,-0.1684,1.0230,0.2556
16.4630,-0.1684,1.0230,0.2556
16.4660,-0.1684,1.0230,0.2556
16.4800,-0.1684,1.0230,0.2556
16.4810,-0.1684,1.0230,0.2556
16.4820,-0.1684,1.0230,0.2556
16.4830,-0.1603,1.0118,0.2544
16.4840,-0.1603,1.0118,0.2544
16.5000,-0.1603,1.0118,0.2544
16.5010,-0.1603,1.0118,0.2544
16.5020,-0.1603,1.0118,0.2544
16.5030,-0.1730,1.0106,0.2593
16.5300,-0.1730,1.0106,0.2593
16.5350,-0.1730,1.0106,0.2593
16.5360,-0.1730,1.0106,0.2593
16.5360,-0.1872,1.0137,0.2600
16.5370,-0.1840,1.0079,0.2625
16.5600,-0.1840,1.0079,0.2625
16.5620,-0.1840,1.0079,0.2625
16.5620,-0.1840,1.0079,0.2625
16.5630,-0.1725,1.0108,0.2635
16.5640,-0.1725,1.0108,0.2635
16.5800,-0.1725,1.0108,0.2635
16.5800,-0.1725,1.0108,0.2635
16.5810,-0.1725,1.0108,0.2635
16.5820,-0.1635,1.0191,0.2493
16.6110,-0.1635,1.0191,0.2493
16.6120,-0.1635,1.0191,0.2493
16.6120,-0.1635,1.0191,0.2493
16.6130,-0.1752,1.0132,0.2529
16.6140,-0.1823,1.0049,0.2595
16.6410,-0.1823,1.0049,0.2595
16.6420,-0.1823,1.0049,0.2595
16.6420,-0.1823,1.0049,0.2595
16.6430,-0.1862,1.0130,0.2620
16.6430,-0.1862,1.0130,0.2620
16.6630,-0.1862,1.0130,0.2620
16.6650,-0.1862,1.0130,0.2620
16.6650,-0.1862,1.0130,0.2620
16.6660,-0.1872,1.0191,0.2483
16.6670,-0.1872,1.0191,0.2483
16.6680,-0.1872,1.0191,0.2483
16.6930,-0.1872,1.0191,0.2483
16.6930,-0.1872,1.0191,0.2483
16.6940,-0.1872,1.0191,0.2483
16.6950,-0.1808,1.0086,0.2578
16.6950,-0.1784,1.0084,0.2576
16.7210,-0.1784,1.0084,0.2576
16.7220,-0.1784,1.0084,0.2576
16.7230,-0.1784,1.0084,0.2576
16.7240,-0.1877,1.0145,0.2600
16.7250,-0.1877,1.0145,0.2600
16.7400,-0.1877,1.0145,0.2600
16.7410,-0.1877,1.0145,0.2600
16.7420,-0.1877,1.0145,0.2600
16.7430,-0.1767,1.0074,0.2630
16.7750,-0.1767,1.0074,0.2630
16.7760,-0.1767,1.0074,0.2630
16.7770,-0.1767,1.0074,0.2630
16.7770,-0.1667,1.0071,0.2644
16.7780,-0.1696,1.0152,0.2586
16.8000,-0.1696,1.0152,0.2586
16.8010,-0.1696,1.0152,0.2586
16.8010,-0.1696,1.0152,0.2586
16.8020,-0.1782,1.0132,0.2608
16.8020,-0.1782,1.0132,0.2608
16.8210,-0.1782,1.0132,0.2608
16.8220,-0.1782,1.0132,0.2608
16.8220,-0.1782,1.0132,0.2608
16.8230,-0.1767,1.0084,0.2627
16.8520,-0.1767,1.0084,0.2627
16.8530,-0.1767,1.0084,0.2627
16.8540,-0.1767,1.0084,0.2627
16.8590,-0.1760,1.0098,0.2664
16.8600,-0.1769,1.0218,0.2622
16.8610,-0.1769,1.0218,0.2622
16.8640,-0.1769,1.0218,0.2622
16.8800,-0.1769,1.0218,0.2622
16.8840,-0.1769,1.0218,0.2622
16.8850,-0.1769,1.0218,0.2622
16.8850,-0.1735,1.0120,0.2639
16.8860,-0.1735,1.0120,0.2639
16.9000,-0.1735,1.0120,0.2639
16.9010,-0.1735,1.0120,0.2639
16.9020,-0.1735,1.0120,0.2639
16.9020,-0.1725,1.0040,0.2532
16.9350,-0.1725,1.0040,0.2532
16.9360,-0.1725,1.0040,0.2532
16.9370,-0.1725,1.0040,0.2532
16.9370,-0.1782,1.0106,0.2615
16.9380,-0.1794,1.0237,0.2617
16.9610,-0.1794,1.0237,0.2617
16.9620,-0.1794,1.0237,0.2617
16.9630,-0.1794,1.0237,0.2617
16.9640,-0.1706,1.0137,0.2578
16.9650,-0.1706,1.0137,0.2578
16.9820,-0.1706,1.0137,0.2578
16.9830,-0.1706,1.0137,0.2578
16.9830,-0.1706,1.0137,0.2578
16.9850,-0.1398,0.9964,0.2842
17.0120,-0.1398,0.9964,0.2842
17.0130,-0.1398,0.9964,0.2842
17.0150,-0.1398,0.9964,0.2842
17.0160,-0.1801,1.0057,0.2243
17.0170,-0.1975,1.0181,0.2507
17.0410,-0.1975,1.0181,0.2507
17.0420,-0.1975,1.0181,0.2507
17.0430,-0.1975,1.0181,0.2507
17.0440,-0.1816,1.0123,0.2639
17.0450,-0.1816,1.0123,0.2639
17.0640,-0.1816,1.0123,0.2639
17.0650,-0.1816,1.0123,0.2639
17.0660,-0.1816,1.0123,0.2639
17.0670,-0.1694,1.0074,0.2610
17.0680,-0.1694,1.0074,0.2610
17.0690,-0.1694,1.0074,0.2610
17.0920,-0.1694,1.0074,0.2610
17.0930,-0.1694,1.0074,0.2610
17.0940,-0.1694,1.0074,0.2610
17.0950,-0.1730,1.0098,0.2390
17.0960,-0.1901,1.0208,0.2515
17.1220,-0.1901,1.0208,0.2515
17.1230,-0.1901,1.0208,0.2515
17.1230,-0.1901,1.0208,0.2515
17.1250,-0.1877,1.0179,0.2583
17.1250,-0.1877,1.0179,0.2583
17.1410,-0.1877,1.0179,0.2583
17.1420,-0.1877,1.0179,0.2583
17.1430,-0.1877,1.0179,0.2583
17.1440,-0.1838,1.0145,0.2676
17.1740,-0.1838,1.0145,0.2676
17.1750,-0.1838,1.0145,0.2676
17.1760,-0.1838,1.0145,0.2676
17.1770,-0.1716,1.0113,0.2578
17.1780,-0.1699,1.0000,0.2632
17.2010,-0.1699,1.0000,0.2632
17.2020,-0.1699,1.0000,0.2632
17.2030,-0.1699,1.0000,0.2632
17.2030,-0.1760,1.0130,0.2635
17.2040,-0.1760,1.0130,0.2635
17.2220,-0.1760,1.0130,0.2635
17.2220,-0.1760,1.0130,0.2635
17.2230,-0.1760,1.0130,0.2635
17.2280,-0.1711,1.0201,0.2632
17.2510,-0.1711,1.0201,0.2632
17.2520,-0.1711,1.0201,0.2632
17.2530,-0.1711,1.0201,0.2632
17.2530,-0.1706,1.0120,0.2610
17.2550,-0.1752,1.0132,0.2505
17.2720,-0.1752,1.0132,0.2505
17.2800,-0.1752,1.0132,0.2505
17.2800,-0.1752,1.0132,0.2505
17.2810,-0.1752,1.0132,0.2505
17.2810,-0.1852,1.0150,0.2525
17.2820,-0.1852,1.0150,0.2525
17.3000,-0.1852,1.0150,0.2525
17.3000,-0.1852,1.0150,0.2525
17.3010,-0.1852,1.0150,0.2525
17.3010,-0.1794,1.0081,0.2561
17.3320,-0.1794,1.0081,0.2561
17.3320,-0.1794,1.0081,0.2561
17.3570,-0.1794,1.0081,0.2561
17.3580,-0.1750,1.0118,0.2683
17.3590,-0.1718,1.0150,0.2644
17.3610,-0.1718,1.0150,0.2644
17.3620,-0.1718,1.0150,0.2644
17.3620,-0.1718,1.0150,0.2644
17.3630,-0.1655,1.0174,0.2488
17.3630,-0.1655,1.0174,0.2488
17.3800,-0.1655,1.0174,0.2488
17.3810,-0.1655,1.0174,0.2488
17.3810,-0.1655,1.0174,0.2488
17.3820,-0.1757,1.0125,0.2454
17.4110,-0.1757,1.0125,0.2454
17.4120,-0.1757,1.0125,0.2454
17.4130,-0.1757,1.0125,0.2454
17.4130,-0.1855,1.0184,0.2459
17.4140,-0.1750,1.0132,0.2547
17.4410,-0.1750,1.0132,0.2547
17.4420,-0.1750,1.0132,0.2547
17.4430,-0.1750,1.0132,0.2547
17.4430,-0.1764,1.0088,0.2674
17.4440,-0.1764,1.0088,0.2674
17.4640,-0.1764,1.0088,0.2674
17.4650,-0.1764,1.0088,0.2674
17.4660,-0.1764,1.0088,0.2674
17.4670,-0.1808,1.0123,0.2654
17.4680,-0.1808,1.0123,0.2654
17.4910,-0.1808,1.0123,0.2654
17.4920,-0.1808,1.0123,0.2654
17.4930,-0.1808,1.0123,0.2654
17.4940,-0.1823,1.0066,0.2659
17.4950,-0.1738,1.0208,0.2432
17.5210,-0.1738,1.0208,0.2432
17.5220,-0.1738,1.0208,0.2432
17.5220,-0.1738,1.0208,0.2432
17.5220,-0.1691,1.0066,0.2363
17.5230,-0.1691,1.0066,0.2363
17.5400,-0.1691,1.0066,0.2363
17.5410,-0.1691,1.0066,0.2363
17.5410,-0.1691,1.0066,0.2363
17.5410,-0.1962,1.0120,0.2471
17.5720,-0.1962,1.0120,0.2471
17.5720,-0.1962,1.0120,0.2471
17.5730,-0.1962,1.0120,0.2471
17.5730,-0.1892,1.0120,0.2336
17.5730,-0.1828,1.0018,0.2708
17.6010,-0.1828,1.0018,0.2708
17.6010,-0.1828,1.0018,0.2708
17.6010,-0.1828,1.0018,0.2708
17.6020,-0.1742,1.0132,0.2652
17.6020,-0.1742,1.0132,0.2652
17.6200,-0.1742,1.0132,0.2652
17.6210,-0.1742,1.0132,0.2652
17.6210,-0.1742,1.0132,0.2652
17.6210,-0.1647,1.0186,0.2605
17.6510,-0.1647,1.0186,0.2605
17.6510,-0.1647,1.0186,0.2605
17.6510,-0.1647,1.0186,0.2605
17.6520,-0.1782,1.0279,0.2402
17.6520,-0.1882,1.0404,0.2165
17.6610,-0.1882,1.0404,0.2165
17.6810,-0.1882,1.0404,0.2165
17.6810,-0.1882,1.0404,0.2165
17.6810,-0.1882,1.0404,0.2165
17.6820,-0.1799,1.0189,0.2082
17.6820,-0.1799,1.0189,0.2082
