
time,AccelerometerX,AccelerometerY,AccelerometerZ
0.0120,-0.2520,1.0391,0.1114
0.0130,-0.2520,1.0391,0.1114
0.0130,-0.2520,1.0391,0.1114
0.0130,-0.2454,1.0208,0.1156
0.0250,-0.2454,1.0208,0.1156
0.0250,-0.2454,1.0208,0.1156
0.0250,-0.2454,1.0208,0.1156
0.0260,-0.2498,1.0196,0.1012
0.0260,-0.2498,1.0196,0.1012
0.0540,-0.2498,1.0196,0.1012
0.0540,-0.2498,1.0196,0.1012
0.0540,-0.2498,1.0196,0.1012
0.0540,-0.2498,1.0196,0.1012
0.0550,-0.2505,1.0416,0.1166
0.0550,-0.2353,1.0242,0.1657
0.0820,-0.2353,1.0242,0.1657
0.0820,-0.2353,1.0242,0.1657
0.0830,-0.2353,1.0242,0.1657
0.0830,-0.2361,0.9991,0.1322
0.1040,-0.2361,0.9991,0.1322
0.1040,-0.2361,0.9991,0.1322
0.1040,-0.2361,0.9991,0.1322
0.1050,-0.2454,1.0088,0.1479
0.1050,-0.2454,1.0088,0.1479
0.1320,-0.2454,1.0088,0.1479
0.1330,-0.2454,1.0088,0.1479
0.1330,-0.2454,1.0088,0.1479
0.1330,-0.2493,1.0208,0.1501
0.1330,-0.2522,1.0306,0.1178
0.1620,-0.2522,1.0306,0.1178
0.1620,-0.2522,1.0306,0.1178
0.1620,-0.2522,1.0306,0.1178
0.1630,-0.2481,1.0286,0.1105
0.1830,-0.2481,1.0286,0.1105
0.1850,-0.2481,1.0286,0.1105
0.1860,-0.2481,1.0286,0.1105
0.1860,-0.2481,1.0223,0.1268
0.1860,-0.2481,1.0223,0.1268
0.2120,-0.2481,1.0223,0.1268
0.2120,-0.2481,1.0223,0.1268
0.2130,-0.2481,1.0223,0.1268
0.2130,-0.2498,1.0159,0.1347
0.2130,-0.2473,1.0184,0.1261
0.2440,-0.2473,1.0184,0.1261
0.2450,-0.2473,1.0184,0.1261
0.2450,-0.2473,1.0184,0.1261
0.2450,-0.2422,1.0172,0.1217
0.2450,-0.2422,1.0172,0.1217
0.2630,-0.2422,1.0172,0.1217
0.2640,-0.2422,1.0172,0.1217
0.2640,-0.2422,1.0172,0.1217
0.2640,-0.2402,1.0196,0.1307
0.2640,-0.2402,1.0196,0.1307
0.2940,-0.2402,1.0196,0.1307
0.2940,-0.2402,1.0196,0.1307
0.2950,-0.2402,1.0196,0.1307
0.2950,-0.2476,1.0296,0.1285
0.2950,-0.2498,1.0233,0.1163
0.3230,-0.2498,1.0233,0.1163
0.3230,-0.2498,1.0233,0.1163
0.3230,-0.2498,1.0233,0.1163
0.3230,-0.2454,1.0193,0.1317
0.3430,-0.2454,1.0193,0.1317
0.3440,-0.2454,1.0193,0.1317
0.3440,-0.2454,1.0193,0.1317
0.3450,-0.2454,1.0225,0.1351
0.3450,-0.2454,1.0225,0.1351
0.3720,-0.2454,1.0225,0.1351
0.3730,-0.2454,1.0225,0.1351
0.3730,-0.2454,1.0225,0.1351
0.3730,-0.2481,1.0294,0.1276
0.3730,-0.2510,1.0228,0.1268
0.4020,-0.2510,1.0228,0.1268
0.4020,-0.2510,1.0228,0.1268
0.4030,-0.2510,1.0228,0.1268
0.4030,-0.2510,1.0193,0.1342
0.4240,-0.2510,1.0193,0.1342
0.4240,-0.2510,1.0193,0.1342
0.4250,-0.2510,1.0193,0.1342
0.4250,-0.2468,1.0215,0.1293
0.4260,-0.2468,1.0215,0.1293
0.4430,-0.2468,1.0215,0.1293
0.4470,-0.2468,1.0215,0.1293
0.4530,-0.2468,1.0215,0.1293
0.4530,-0.2468,1.0215,0.1293
0.4530,-0.2468,1.0215,0.1293
0.4540,-0.2473,1.0279,0.1246
0.4540,-0.2437,1.0247,0.1303
0.4830,-0.2437,1.0247,0.1303
0.4830,-0.2437,1.0247,0.1303
0.4830,-0.2437,1.0247,0.1303
0.4840,-0.2424,1.0213,0.1325
0.5030,-0.2424,1.0213,0.1325
0.5040,-0.2424,1.0213,0.1325
0.5050,-0.2424,1.0213,0.1325
0.5050,-0.2395,1.0240,0.1322
0.5050,-0.2395,1.0240,0.1322
0.5330,-0.2395,1.0240,0.1322
0.5330,-0.2395,1.0240,0.1322
0.5340,-0.2395,1.0240,0.1322
0.5340,-0.2437,1.0262,0.1298
0.5340,-0.2515,1.0206,0.1317
0.5630,-0.2515,1.0206,0.1317
0.5630,-0.2515,1.0206,0.1317
0.5640,-0.2515,1.0206,0.1317
0.5640,-0.2613,1.0181,0.1283
0.5840,-0.2613,1.0181,0.1283
0.5840,-0.2613,1.0181,0.1283
0.5850,-0.2613,1.0181,0.1283
0.5850,-0.2659,1.0257,0.1154
0.5860,-0.2659,1.0257,0.1154
0.6130,-0.2659,1.0257,0.1154
0.6140,-0.2659,1.0257,0.1154
0.6140,-0.2659,1.0257,0.1154
0.6140,-0.2527,1.0272,0.1163
0.6150,-0.2395,1.0174,0.1425
0.6450,-0.2395,1.0174,0.1425
0.6450,-0.2395,1.0174,0.1425
0.6460,-0.2395,1.0174,0.1425
0.6460,-0.2363,1.0213,0.1378
0.6460,-0.2363,1.0213,0.1378
0.6490,-0.2363,1.0213,0.1378
0.6640,-0.2363,1.0213,0.1378
0.6650,-0.2363,1.0213,0.1378
0.6650,-0.2363,1.0213,0.1378
0.6650,-0.2353,1.0242,0.1200
0.6660,-0.2353,1.0242,0.1200
0.6940,-0.2353,1.0242,0.1200
0.6950,-0.2353,1.0242,0.1200
0.6950,-0.2353,1.0242,0.1200
0.6960,-0.2429,1.0213,0.1168
0.6960,-0.2571,1.0154,0.1273
0.7240,-0.2571,1.0154,0.1273
0.7240,-0.2571,1.0154,0.1273
0.7360,-0.2571,1.0154,0.1273
0.7360,-0.2659,1.0220,0.1413
0.7440,-0.2659,1.0220,0.1413
0.7440,-0.2659,1.0220,0.1413
0.7440,-0.2659,1.0220,0.1413
0.7450,-0.2554,1.0267,0.1198
0.7450,-0.2554,1.0267,0.1198
0.7730,-0.2554,1.0267,0.1198
0.7740,-0.2554,1.0267,0.1198
0.7740,-0.2554,1.0267,0.1198
0.7740,-0.2512,1.0172,0.1271
0.7750,-0.2542,1.0223,0.1439
0.8040,-0.2542,1.0223,0.1439
0.8040,-0.2542,1.0223,0.1439
0.8040,-0.2542,1.0223,0.1439
0.8040,-0.2532,1.0220,0.1354
0.8240,-0.2532,1.0220,0.1354
0.8250,-0.2532,1.0220,0.1354
0.8250,-0.2532,1.0220,0.1354
0.8250,-0.2520,1.0120,0.1268
0.8260,-0.2520,1.0120,0.1268
0.8440,-0.2520,1.0120,0.1268
0.8540,-0.2520,1.0120,0.1268
0.8540,-0.2520,1.0120,0.1268
0.8540,-0.2520,1.0120,0.1268
0.8540,-0.2537,1.0150,0.1312
0.8550,-0.2468,1.0299,0.1354
0.8840,-0.2468,1.0299,0.1354
0.8840,-0.2468,1.0299,0.1354
0.8850,-0.2468,1.0299,0.1354
0.8850,-0.2358,1.0301,0.1376
0.9040,-0.2358,1.0301,0.1376
0.9050,-0.2358,1.0301,0.1376
0.9060,-0.2358,1.0301,0.1376
0.9060,-0.2375,1.0208,0.1430
0.9070,-0.2375,1.0208,0.1430
0.9350,-0.2375,1.0208,0.1430
0.9360,-0.2375,1.0208,0.1430
0.9360,-0.2375,1.0208,0.1430
0.9360,-0.2515,1.0186,0.1403
0.9370,-0.2605,1.0198,0.1249
0.9650,-0.2605,1.0198,0.1249
0.9650,-0.2605,1.0198,0.1249
0.9660,-0.2605,1.0198,0.1249
0.9660,-0.2564,1.0235,0.1271
0.9860,-0.2564,1.0235,0.1271
0.9860,-0.2564,1.0235,0.1271
0.9860,-0.2564,1.0235,0.1271
0.9870,-0.2463,1.0255,0.1276
0.9870,-0.2463,1.0255,0.1276
1.0150,-0.2463,1.0255,0.1276
1.0160,-0.2463,1.0255,0.1276
1.0160,-0.2463,1.0255,0.1276
1.0160,-0.2356,1.0174,0.1317
1.0160,-0.2270,1.0184,0.1371
1.0470,-0.2270,1.0184,0.1371
1.0470,-0.2270,1.0184,0.1371
1.0470,-0.2270,1.0184,0.1371
1.0480,-0.2402,1.0242,0.1271
1.0480,-0.2402,1.0242,0.1271
1.0490,-0.2402,1.0242,0.1271
1.0670,-0.2402,1.0242,0.1271
1.0670,-0.2402,1.0242,0.1271
1.0670,-0.2402,1.0242,0.1271
1.0680,-0.2534,1.0250,0.1163
1.0680,-0.2534,1.0250,0.1163
1.0970,-0.2534,1.0250,0.1163
1.0970,-0.2534,1.0250,0.1163
1.0980,-0.2534,1.0250,0.1163
1.0980,-0.2512,1.0218,0.1178
1.0980,-0.2463,1.0215,0.1293
1.1260,-0.2463,1.0215,0.1293
1.1260,-0.2463,1.0215,0.1293
1.1260,-0.2463,1.0215,0.1293
1.1270,-0.2461,1.0184,0.1325
1.1470,-0.2461,1.0184,0.1325
1.1480,-0.2461,1.0184,0.1325
1.1480,-0.2461,1.0184,0.1325
1.1480,-0.2461,1.0198,0.1300
1.1480,-0.2461,1.0198,0.1300
1.1770,-0.2461,1.0198,0.1300
1.1770,-0.2461,1.0198,0.1300
1.1770,-0.2461,1.0198,0.1300
1.1770,-0.2449,1.0299,0.1329
1.1770,-0.2449,1.0220,0.1278
1.2060,-0.2449,1.0220,0.1278
1.2070,-0.2449,1.0220,0.1278
1.2070,-0.2449,1.0220,0.1278
1.2070,-0.2437,1.0193,0.1383
1.2270,-0.2437,1.0193,0.1383
1.2270,-0.2437,1.0193,0.1383
1.2270,-0.2437,1.0193,0.1383
1.2270,-0.2402,1.0264,0.1334
1.2280,-0.2402,1.0264,0.1334
1.2460,-0.2402,1.0264,0.1334
1.2490,-0.2402,1.0264,0.1334
1.2560,-0.2402,1.0264,0.1334
1.2570,-0.2402,1.0264,0.1334
1.2570,-0.2402,1.0264,0.1334
1.2570,-0.2427,1.0316,0.1259
1.2680,-0.2424,1.0269,0.1354
1.2850,-0.2424,1.0269,0.1354
1.2860,-0.2424,1.0269,0.1354
1.2860,-0.2424,1.0269,0.1354
1.2860,-0.2385,1.0233,0.1373
1.3050,-0.2385,1.0233,0.1373
1.3060,-0.2385,1.0233,0.1373
1.3070,-0.2385,1.0233,0.1373
1.3070,-0.2307,1.0269,0.1293
1.3070,-0.2307,1.0269,0.1293
1.3350,-0.2307,1.0269,0.1293
1.3360,-0.2307,1.0269,0.1293
1.3360,-0.2307,1.0269,0.1293
1.3360,-0.2302,1.0321,0.1351
1.3370,-0.2390,1.0225,0.1276
1.3660,-0.2390,1.0225,0.1276
1.3660,-0.2390,1.0225,0.1276
1.3660,-0.2390,1.0225,0.1276
1.3670,-0.2444,1.0147,0.1134
1.3870,-0.2444,1.0147,0.1134
1.3880,-0.2444,1.0147,0.1134
1.3880,-0.2444,1.0147,0.1134
1.3880,-0.2498,1.0284,0.1273
1.3890,-0.2498,1.0284,0.1273
1.4160,-0.2498,1.0284,0.1273
1.4170,-0.2498,1.0284,0.1273
1.4170,-0.2498,1.0284,0.1273
1.4170,-0.2564,1.0284,0.1295
1.4180,-0.2600,1.0108,0.1281
1.4460,-0.2600,1.0108,0.1281
1.4490,-0.2600,1.0108,0.1281
1.4490,-0.2600,1.0108,0.1281
1.4500,-0.2600,1.0108,0.1281
1.4500,-0.2544,1.0030,0.1300
1.4510,-0.2544,1.0030,0.1300
1.4690,-0.2544,1.0030,0.1300
1.4690,-0.2544,1.0030,0.1300
1.4690,-0.2544,1.0030,0.1300
1.4700,-0.2375,1.0147,0.1366
1.4700,-0.2375,1.0147,0.1366
1.4990,-0.2375,1.0147,0.1366
1.5000,-0.2375,1.0147,0.1366
1.5010,-0.2375,1.0147,0.1366
1.5020,-0.2224,1.0206,0.1471
1.5030,-0.2329,1.0159,0.1525
1.5270,-0.2329,1.0159,0.1525
1.5290,-0.2329,1.0159,0.1525
1.5290,-0.2329,1.0159,0.1525
1.5300,-0.2495,1.0176,0.1307
1.5470,-0.2495,1.0176,0.1307
1.5480,-0.2495,1.0176,0.1307
1.5490,-0.2495,1.0176,0.1307
1.5500,-0.2507,1.0274,0.1132
1.5510,-0.2507,1.0274,0.1132
1.5770,-0.2507,1.0274,0.1132
1.5780,-0.2507,1.0274,0.1132
1.5830,-0.2507,1.0274,0.1132
1.5840,-0.2412,1.0299,0.1273
1.5850,-0.2356,1.0255,0.1574
1.6060,-0.2356,1.0255,0.1574
1.6070,-0.2356,1.0255,0.1574
1.6080,-0.2356,1.0255,0.1574
1.6080,-0.2405,1.0169,0.1527
1.6270,-0.2405,1.0169,0.1527
1.6270,-0.2405,1.0169,0.1527
1.6280,-0.2405,1.0169,0.1527
1.6290,-0.2407,1.0223,0.1342
1.6300,-0.2407,1.0223,0.1342
1.6490,-0.2407,1.0223,0.1342
1.6500,-0.2407,1.0223,0.1342
1.6560,-0.2407,1.0223,0.1342
1.6570,-0.2407,1.0223,0.1342
1.6570,-0.2407,1.0223,0.1342
1.6590,-0.2283,1.0277,0.1327
1.6600,-0.2151,1.0269,0.1449
1.6870,-0.2151,1.0269,0.1449
1.6870,-0.2151,1.0269,0.1449
1.6880,-0.2151,1.0269,0.1449
1.6890,-0.2136,1.0277,0.1388
1.7070,-0.2136,1.0277,0.1388
1.7080,-0.2136,1.0277,0.1388
1.7090,-0.2136,1.0277,0.1388
1.7090,-0.2295,1.0267,0.1325
1.7100,-0.2295,1.0267,0.1325
1.7370,-0.2295,1.0267,0.1325
1.7400,-0.2295,1.0267,0.1325
1.7410,-0.2295,1.0267,0.1325
1.7420,-0.2366,1.0245,0.1266
1.7430,-0.2393,1.0242,0.1268
1.7670,-0.2393,1.0242,0.1268
1.7690,-0.2393,1.0242,0.1268
1.7700,-0.2393,1.0242,0.1268
1.7710,-0.2471,1.0242,0.1327
1.7900,-0.2471,1.0242,0.1327
1.7910,-0.2471,1.0242,0.1327
1.7920,-0.2471,1.0242,0.1327
1.7930,-0.2503,1.0198,0.1327
1.7940,-0.2503,1.0198,0.1327
1.8190,-0.2503,1.0198,0.1327
1.8200,-0.2503,1.0198,0.1327
1.8490,-0.2503,1.0198,0.1327
1.8490,-0.2390,1.0201,0.1295
1.8490,-0.2236,1.0223,0.1283
1.8500,-0.2236,1.0223,0.1283
1.8530,-0.2236,1.0223,0.1283
1.8530,-0.2236,1.0223,0.1283
1.8530,-0.2236,1.0223,0.1283
1.8540,-0.2231,1.0213,0.1415
1.8660,-0.2231,1.0213,0.1415
1.8670,-0.2231,1.0213,0.1415
1.8670,-0.2231,1.0213,0.1415
1.8680,-0.2265,1.0279,0.1334
1.8680,-0.2265,1.0279,0.1334
1.8950,-0.2265,1.0279,0.1334
1.8960,-0.2265,1.0279,0.1334
1.8960,-0.2265,1.0279,0.1334
1.8960,-0.2331,1.0308,0.1281
1.8960,-0.2407,1.0289,0.1356
1.9250,-0.2407,1.0289,0.1356
1.9250,-0.2407,1.0289,0.1356
1.9260,-0.2407,1.0289,0.1356
1.9260,-0.2383,1.0233,0.1403
1.9470,-0.2383,1.0233,0.1403
1.9470,-0.2383,1.0233,0.1403
1.9470,-0.2383,1.0233,0.1403
1.9480,-0.2395,1.0252,0.1471
1.9480,-0.2395,1.0252,0.1471
1.9800,-0.2395,1.0252,0.1471
1.9810,-0.2395,1.0252,0.1471
1.9820,-0.2395,1.0252,0.1471
1.9820,-0.2397,1.0294,0.1376
1.9830,-0.2402,1.0198,0.1298
2.0060,-0.2402,1.0198,0.1298
2.0070,-0.2402,1.0198,0.1298
2.0070,-0.2402,1.0198,0.1298
2.0070,-0.2429,1.0145,0.1447
2.0260,-0.2429,1.0145,0.1447
2.0270,-0.2429,1.0145,0.1447
2.0270,-0.2429,1.0145,0.1447
2.0270,-0.2488,1.0301,0.1430
2.0270,-0.2488,1.0301,0.1430
2.0460,-0.2488,1.0301,0.1430
2.0610,-0.2488,1.0301,0.1430
2.0620,-0.2488,1.0301,0.1430
2.0620,-0.2488,1.0301,0.1430
2.0630,-0.2466,1.0372,0.1241
2.0640,-0.2346,1.0291,0.1322
2.0880,-0.2346,1.0291,0.1322
2.0890,-0.2346,1.0291,0.1322
2.0900,-0.2346,1.0291,0.1322
2.0900,-0.2280,1.0196,0.1437
2.1080,-0.2280,1.0196,0.1437
2.1090,-0.2280,1.0196,0.1437
2.1090,-0.2280,1.0196,0.1437
2.1100,-0.2297,1.0255,0.1447
2.1110,-0.2297,1.0255,0.1447
2.1380,-0.2297,1.0255,0.1447
2.1390,-0.2297,1.0255,0.1447
2.1400,-0.2297,1.0255,0.1447
2.1400,-0.2295,1.0311,0.1266
2.1410,-0.2283,1.0228,0.1271
2.1670,-0.2283,1.0228,0.1271
2.1690,-0.2283,1.0228,0.1271
2.1700,-0.2283,1.0228,0.1271
2.1710,-0.2261,1.0196,0.1432
2.1890,-0.2261,1.0196,0.1432
2.1900,-0.2261,1.0196,0.1432
2.1910,-0.2261,1.0196,0.1432
2.1920,-0.2290,1.0291,0.1337
2.1930,-0.2290,1.0291,0.1337
2.2190,-0.2290,1.0291,0.1337
2.2240,-0.2290,1.0291,0.1337
2.2260,-0.2290,1.0291,0.1337
2.2270,-0.2283,1.0330,0.1195
2.2280,-0.2275,1.0189,0.1356
2.2460,-0.2275,1.0189,0.1356
2.2530,-0.2275,1.0189,0.1356
2.2540,-0.2275,1.0189,0.1356
2.2560,-0.2275,1.0189,0.1356
2.2570,-0.2273,1.0169,0.1520
2.2690,-0.2273,1.0169,0.1520
2.2700,-0.2273,1.0169,0.1520
2.2710,-0.2273,1.0169,0.1520
2.2720,-0.2287,1.0316,0.1347
2.2730,-0.2287,1.0316,0.1347
2.2980,-0.2287,1.0316,0.1347
2.2990,-0.2287,1.0316,0.1347
2.3000,-0.2287,1.0316,0.1347
2.3010,-0.2344,1.0306,0.1266
2.3010,-0.2344,1.0247,0.1295
2.3290,-0.2344,1.0247,0.1295
2.3290,-0.2344,1.0247,0.1295
2.3300,-0.2344,1.0247,0.1295
2.3300,-0.2341,1.0365,0.1364
2.3480,-0.2341,1.0365,0.1364
2.3490,-0.2341,1.0365,0.1364
2.3490,-0.2341,1.0365,0.1364
2.3500,-0.2292,1.0350,0.1278
2.3500,-0.2292,1.0350,0.1278
2.3780,-0.2292,1.0350,0.1278
2.4000,-0.2292,1.0350,0.1278
2.4010,-0.2292,1.0350,0.1278
2.4020,-0.2319,1.0257,0.1276
2.4020,-0.2383,1.0262,0.1452
2.4060,-0.2383,1.0262,0.1452
2.4070,-0.2383,1.0262,0.1452
2.4080,-0.2383,1.0262,0.1452
2.4090,-0.2407,1.0355,0.1295
2.4280,-0.2407,1.0355,0.1295
2.4290,-0.2407,1.0355,0.1295
2.4300,-0.2407,1.0355,0.1295
2.4310,-0.2410,1.0264,0.1227
2.4320,-0.2410,1.0264,0.1227
2.4460,-0.2410,1.0264,0.1227
2.4590,-0.2410,1.0264,0.1227
2.4590,-0.2410,1.0264,0.1227
2.4610,-0.2410,1.0264,0.1227
2.4620,-0.2402,1.0174,0.1464
2.4630,-0.2439,1.0157,0.1439
2.4870,-0.2439,1.0157,0.1439
2.4890,-0.2439,1.0157,0.1439
2.4900,-0.2439,1.0157,0.1439
2.4910,-0.2390,1.0303,0.1224
2.5090,-0.2390,1.0303,0.1224
2.5100,-0.2390,1.0303,0.1224
2.5110,-0.2390,1.0303,0.1224
2.5120,-0.2329,1.0318,0.1188
2.5130,-0.2329,1.0318,0.1188
2.5380,-0.2329,1.0318,0.1188
2.5390,-0.2329,1.0318,0.1188
2.5400,-0.2329,1.0318,0.1188
2.5410,-0.2317,1.0189,0.1393
2.5430,-0.2400,1.0162,0.1442
2.5690,-0.2400,1.0162,0.1442
2.5700,-0.2400,1.0162,0.1442
2.5710,-0.2400,1.0162,0.1442
2.5720,-0.2488,1.0157,0.1222
2.5900,-0.2488,1.0157,0.1222
2.5910,-0.2488,1.0157,0.1222
2.5920,-0.2488,1.0157,0.1222
2.5920,-0.2542,1.0186,0.1339
2.5930,-0.2542,1.0186,0.1339
2.6180,-0.2542,1.0186,0.1339
2.6190,-0.2542,1.0186,0.1339
2.6190,-0.2542,1.0186,0.1339
2.6200,-0.2512,1.0267,0.1395
2.6210,-0.2454,1.0291,0.1298
2.6530,-0.2454,1.0291,0.1298
2.6530,-0.2454,1.0291,0.1298
2.6540,-0.2454,1.0291,0.1298
2.6550,-0.2454,1.0291,0.1298
2.6550,-0.2493,1.0142,0.1327
2.6690,-0.2493,1.0142,0.1327
2.6690,-0.2493,1.0142,0.1327
2.6700,-0.2493,1.0142,0.1327
2.6720,-0.2495,1.0132,0.1413
2.6730,-0.2495,1.0132,0.1413
2.7000,-0.2495,1.0132,0.1413
2.7010,-0.2495,1.0132,0.1413
2.7020,-0.2495,1.0132,0.1413
2.7030,-0.2397,1.0191,0.1366
2.7040,-0.2441,1.0220,0.1354
2.7270,-0.2441,1.0220,0.1354
2.7280,-0.2441,1.0220,0.1354
2.7290,-0.2441,1.0220,0.1354
2.7300,-0.2503,1.0281,0.1325
2.7490,-0.2503,1.0281,0.1325
2.7500,-0.2503,1.0281,0.1325
2.7500,-0.2503,1.0281,0.1325
2.7520,-0.2483,1.0333,0.1327
2.7530,-0.2483,1.0333,0.1327
2.7810,-0.2483,1.0333,0.1327
2.7820,-0.2483,1.0333,0.1327
2.7840,-0.2483,1.0333,0.1327
2.7850,-0.2410,1.0274,0.1351
2.7860,-0.2390,1.0189,0.1298
2.8080,-0.2390,1.0189,0.1298
2.8080,-0.2390,1.0189,0.1298
2.8090,-0.2390,1.0189,0.1298
2.8100,-0.2397,1.0174,0.1303
2.8290,-0.2397,1.0174,0.1303
2.8300,-0.2397,1.0174,0.1303
2.8310,-0.2397,1.0174,0.1303
2.8320,-0.2424,1.0250,0.1320
2.8330,-0.2424,1.0250,0.1320
2.8470,-0.2424,1.0250,0.1320
2.8590,-0.2424,1.0250,0.1320
2.8600,-0.2424,1.0250,0.1320
2.8610,-0.2424,1.0250,0.1320
2.8620,-0.2412,1.0306,0.1263
2.8630,-0.2368,1.0247,0.1246
2.8890,-0.2368,1.0247,0.1246
2.8900,-0.2368,1.0247,0.1246
2.8910,-0.2368,1.0247,0.1246
2.8920,-0.2397,1.0159,0.1461
2.9090,-0.2397,1.0159,0.1461
2.9100,-0.2397,1.0159,0.1461
2.9100,-0.2397,1.0159,0.1461
2.9170,-0.2473,1.0225,0.1405
2.9180,-0.2473,1.0225,0.1405
2.9400,-0.2473,1.0225,0.1405
2.9400,-0.2473,1.0225,0.1405
2.9400,-0.2473,1.0225,0.1405
2.9460,-0.2461,1.0284,0.1198
2.9460,-0.2459,1.0189,0.1285
2.9660,-0.2459,1.0189,0.1285
2.9660,-0.2459,1.0189,0.1285
2.9670,-0.2459,1.0189,0.1285
2.9670,-0.2454,1.0174,0.1410
2.9880,-0.2454,1.0174,0.1410
2.9890,-0.2454,1.0174,0.1410
2.9890,-0.2454,1.0174,0.1410
2.9890,-0.2397,1.0308,0.1366
2.9890,-0.2397,1.0308,0.1366
3.0170,-0.2397,1.0308,0.1366
3.0180,-0.2397,1.0308,0.1366
3.0190,-0.2397,1.0308,0.1366
3.0190,-0.2353,1.0311,0.1268
3.0200,-0.2312,1.0284,0.1369
3.0450,-0.2312,1.0284,0.1369
3.0490,-0.2312,1.0284,0.1369
3.0490,-0.2312,1.0284,0.1369
3.0500,-0.2312,1.0284,0.1369
3.0500,-0.2268,1.0267,0.1303
3.0700,-0.2268,1.0267,0.1303
3.0700,-0.2268,1.0267,0.1303
3.0710,-0.2268,1.0267,0.1303
3.0720,-0.2280,1.0237,0.1342
3.0730,-0.2280,1.0237,0.1342
3.1000,-0.2280,1.0237,0.1342
3.1000,-0.2280,1.0237,0.1342
3.1010,-0.2280,1.0237,0.1342
3.1010,-0.2358,1.0230,0.1347
3.1020,-0.2400,1.0284,0.1220
3.1290,-0.2400,1.0284,0.1220
3.1290,-0.2400,1.0284,0.1220
3.1300,-0.2400,1.0284,0.1220
3.1300,-0.2371,1.0235,0.1307
3.1500,-0.2371,1.0235,0.1307
3.1520,-0.2371,1.0235,0.1307
3.1530,-0.2371,1.0235,0.1307
3.1540,-0.2309,1.0206,0.1417
3.1550,-0.2309,1.0206,0.1417
3.1850,-0.2309,1.0206,0.1417
3.1860,-0.2309,1.0206,0.1417
3.1870,-0.2309,1.0206,0.1417
3.1880,-0.2378,1.0252,0.1315
3.1890,-0.2363,1.0274,0.1273
3.2100,-0.2363,1.0274,0.1273
3.2110,-0.2363,1.0274,0.1273
3.2140,-0.2363,1.0274,0.1273
3.2160,-0.2368,1.0259,0.1295
3.2290,-0.2368,1.0259,0.1295
3.2300,-0.2368,1.0259,0.1295
3.2300,-0.2368,1.0259,0.1295
3.2310,-0.2427,1.0245,0.1293
3.2320,-0.2427,1.0245,0.1293
3.2460,-0.2427,1.0245,0.1293
3.2610,-0.2427,1.0245,0.1293
3.2620,-0.2427,1.0245,0.1293
3.2620,-0.2427,1.0245,0.1293
3.2630,-0.2449,1.0247,0.1281
3.2630,-0.2471,1.0220,0.1298
3.2880,-0.2471,1.0220,0.1298
3.2890,-0.2471,1.0220,0.1298
3.2890,-0.2471,1.0220,0.1298
3.2900,-0.2466,1.0196,0.1307
3.3100,-0.2466,1.0196,0.1307
3.3100,-0.2466,1.0196,0.1307
3.3110,-0.2466,1.0196,0.1307
3.3110,-0.2485,1.0191,0.1342
3.3120,-0.2485,1.0191,0.1342
3.3390,-0.2485,1.0191,0.1342
3.3410,-0.2485,1.0191,0.1342
3.3420,-0.2485,1.0191,0.1342
3.3430,-0.2468,1.0145,0.1364
3.3440,-0.2415,1.0120,0.1356
3.3690,-0.2415,1.0120,0.1356
3.3700,-0.2415,1.0120,0.1356
3.3700,-0.2415,1.0120,0.1356
3.3710,-0.2488,1.0130,0.1381
3.3900,-0.2488,1.0130,0.1381
3.3910,-0.2488,1.0130,0.1381
3.3910,-0.2488,1.0130,0.1381
3.3920,-0.2566,1.0230,0.1383
3.3920,-0.2566,1.0230,0.1383
3.4200,-0.2566,1.0230,0.1383
3.4210,-0.2566,1.0230,0.1383
3.4220,-0.2566,1.0230,0.1383
3.4230,-0.2522,1.0333,0.1298
3.4240,-0.2439,1.0257,0.1241
3.4490,-0.2439,1.0257,0.1241
3.4500,-0.2439,1.0257,0.1241
3.4510,-0.2439,1.0257,0.1241
3.4520,-0.2439,1.0257,0.1241
3.4530,-0.2358,1.0150,0.1437
3.4690,-0.2358,1.0150,0.1437
3.4700,-0.2358,1.0150,0.1437
3.4710,-0.2358,1.0150,0.1437
3.4720,-0.2395,1.0240,0.1378
3.4940,-0.2395,1.0240,0.1378
3.4980,-0.2395,1.0240,0.1378
3.4990,-0.2395,1.0240,0.1378
3.4990,-0.2395,1.0240,0.1378
3.4990,-0.2449,1.0264,0.1212
3.5000,-0.2517,1.0245,0.1268
3.5280,-0.2517,1.0245,0.1268
3.5280,-0.2517,1.0245,0.1268
3.5290,-0.2517,1.0245,0.1268
3.5290,-0.2461,1.0242,0.1310
3.5510,-0.2461,1.0242,0.1310
3.5520,-0.2461,1.0242,0.1310
3.5530,-0.2461,1.0242,0.1310
3.5530,-0.2397,1.0189,0.1395
3.5540,-0.2397,1.0189,0.1395
3.5790,-0.2397,1.0189,0.1395
3.5810,-0.2397,1.0189,0.1395
3.5840,-0.2397,1.0189,0.1395
3.5850,-0.2363,1.0147,0.1417
3.5860,-0.2329,1.0213,0.1325
3.6090,-0.2329,1.0213,0.1325
3.6100,-0.2329,1.0213,0.1325
3.6110,-0.2329,1.0213,0.1325
3.6120,-0.2378,1.0235,0.1288
3.6310,-0.2378,1.0235,0.1288
3.6320,-0.2378,1.0235,0.1288
3.6330,-0.2378,1.0235,0.1288
3.6330,-0.2451,1.0242,0.1266
3.6340,-0.2451,1.0242,0.1266
3.6450,-0.2451,1.0242,0.1266
3.6610,-0.2451,1.0242,0.1266
3.6620,-0.2451,1.0242,0.1266
3.6620,-0.2451,1.0242,0.1266
3.6640,-0.2468,1.0328,0.1224
3.6670,-0.2375,1.0296,0.1249
3.6890,-0.2375,1.0296,0.1249
3.6890,-0.2375,1.0296,0.1249
3.6900,-0.2375,1.0296,0.1249
3.6910,-0.2275,1.0169,0.1398
3.7120,-0.2275,1.0169,0.1398
3.7160,-0.2275,1.0169,0.1398
3.7170,-0.2275,1.0169,0.1398
3.7190,-0.2297,1.0159,0.1483
3.7200,-0.2297,1.0159,0.1483
3.7390,-0.2297,1.0159,0.1483
3.7400,-0.2297,1.0159,0.1483
3.7400,-0.2297,1.0159,0.1483
3.7410,-0.2363,1.0313,0.1334
3.7410,-0.2331,1.0325,0.1210
3.7690,-0.2331,1.0325,0.1210
3.7700,-0.2331,1.0325,0.1210
3.7700,-0.2331,1.0325,0.1210
3.7710,-0.2385,1.0196,0.1288
3.7890,-0.2385,1.0196,0.1288
3.7910,-0.2385,1.0196,0.1288
3.7920,-0.2385,1.0196,0.1288
3.7920,-0.2434,1.0203,0.1388
3.7930,-0.2434,1.0203,0.1388
3.8190,-0.2434,1.0203,0.1388
3.8200,-0.2434,1.0203,0.1388
3.8200,-0.2434,1.0203,0.1388
3.8210,-0.2520,1.0313,0.1315
3.8220,-0.2527,1.0277,0.1268
3.8460,-0.2527,1.0277,0.1268
3.8520,-0.2527,1.0277,0.1268
3.8530,-0.2527,1.0277,0.1268
3.8530,-0.2527,1.0277,0.1268
3.8540,-0.2515,1.0128,0.1305
3.8540,-0.2515,1.0128,0.1305
3.8700,-0.2515,1.0128,0.1305
3.8700,-0.2515,1.0128,0.1305
3.8710,-0.2515,1.0128,0.1305
3.8710,-0.2539,1.0130,0.1354
3.8720,-0.2539,1.0130,0.1354
3.9000,-0.2539,1.0130,0.1354
3.9000,-0.2539,1.0130,0.1354
3.9000,-0.2539,1.0130,0.1354
3.9010,-0.2542,1.0269,0.1303
3.9010,-0.2488,1.0257,0.1283
3.9290,-0.2488,1.0257,0.1283
3.9300,-0.2488,1.0257,0.1283
3.9310,-0.2488,1.0257,0.1283
3.9320,-0.2371,1.0184,0.1369
3.9530,-0.2371,1.0184,0.1369
3.9530,-0.2371,1.0184,0.1369
3.9540,-0.2371,1.0184,0.1369
3.9570,-0.2378,1.0176,0.1417
3.9580,-0.2378,1.0176,0.1417
3.9800,-0.2378,1.0176,0.1417
3.9800,-0.2378,1.0176,0.1417
3.9810,-0.2378,1.0176,0.1417
3.9820,-0.2375,1.0269,0.1312
3.9830,-0.2314,1.0294,0.1227
4.0090,-0.2314,1.0294,0.1227
4.0100,-0.2314,1.0294,0.1227
4.0110,-0.2314,1.0294,0.1227
4.0110,-0.2300,1.0184,0.1361
4.0300,-0.2300,1.0184,0.1361
4.0310,-0.2300,1.0184,0.1361
4.0320,-0.2300,1.0184,0.1361
4.0470,-0.2297,1.0235,0.1488
4.0480,-0.2297,1.0235,0.1488
4.0490,-0.2297,1.0235,0.1488
4.0610,-0.2297,1.0235,0.1488
4.0620,-0.2297,1.0235,0.1488
4.0640,-0.2297,1.0235,0.1488
4.0650,-0.2373,1.0301,0.1261
4.0660,-0.2402,1.0281,0.1288
4.0900,-0.2402,1.0281,0.1288
4.0900,-0.2402,1.0281,0.1288
4.0900,-0.2402,1.0281,0.1288
4.0900,-0.2366,1.0228,0.1273
4.1090,-0.2366,1.0228,0.1273
4.1100,-0.2366,1.0228,0.1273
4.1100,-0.2366,1.0228,0.1273
4.1100,-0.2331,1.0154,0.1393
4.1100,-0.2331,1.0154,0.1393
4.1390,-0.2331,1.0154,0.1393
4.1390,-0.2331,1.0154,0.1393
4.1390,-0.2331,1.0154,0.1393
4.1400,-0.2378,1.0201,0.1417
4.1400,-0.2422,1.0277,0.1246
4.1700,-0.2422,1.0277,0.1246
4.1700,-0.2422,1.0277,0.1246
4.1700,-0.2422,1.0277,0.1246
4.1700,-0.2368,1.0242,0.1312
4.1910,-0.2368,1.0242,0.1312
4.1910,-0.2368,1.0242,0.1312
4.1920,-0.2368,1.0242,0.1312
4.1920,-0.2368,1.0269,0.1417
4.1920,-0.2368,1.0269,0.1417
4.2210,-0.2368,1.0269,0.1417
4.2220,-0.2368,1.0269,0.1417
4.2220,-0.2368,1.0269,0.1417
4.2220,-0.2429,1.0208,0.1300
4.2220,-0.2468,1.0223,0.1334
4.2480,-0.2468,1.0223,0.1334
4.2520,-0.2468,1.0223,0.1334
4.2520,-0.2468,1.0223,0.1334
4.2520,-0.2468,1.0223,0.1334
4.2530,-0.2456,1.0277,0.1354
4.2740,-0.2456,1.0277,0.1354
4.2740,-0.2456,1.0277,0.1354
4.2740,-0.2456,1.0277,0.1354
4.2740,-0.2427,1.0281,0.1315
4.2780,-0.2427,1.0281,0.1315
4.3020,-0.2427,1.0281,0.1315
4.3020,-0.2427,1.0281,0.1315
4.3020,-0.2427,1.0281,0.1315
4.3030,-0.2371,1.0306,0.1325
4.3030,-0.2356,1.0228,0.1312
4.3320,-0.2356,1.0228,0.1312
4.3320,-0.2356,1.0228,0.1312
4.3320,-0.2356,1.0228,0.1312
4.3330,-0.2375,1.0198,0.1425
4.3560,-0.2375,1.0198,0.1425
4.3560,-0.2375,1.0198,0.1425
4.3570,-0.2375,1.0198,0.1425
4.3570,-0.2405,1.0247,0.1315
4.3600,-0.2405,1.0247,0.1315
4.3830,-0.2405,1.0247,0.1315
4.3840,-0.2405,1.0247,0.1315
4.3840,-0.2405,1.0247,0.1315
4.3840,-0.2397,1.0235,0.1278
4.3840,-0.2427,1.0186,0.1354
4.4140,-0.2427,1.0186,0.1354
4.4140,-0.2427,1.0186,0.1354
4.4140,-0.2427,1.0186,0.1354
4.4140,-0.2417,1.0250,0.1373
4.4340,-0.2417,1.0250,0.1373
4.4350,-0.2417,1.0250,0.1373
4.4350,-0.2417,1.0250,0.1373
4.4350,-0.2424,1.0242,0.1229
4.4350,-0.2424,1.0242,0.1229
4.4490,-0.2424,1.0242,0.1229
4.4630,-0.2424,1.0242,0.1229
4.4630,-0.2424,1.0242,0.1229
4.4640,-0.2424,1.0242,0.1229
4.4640,-0.2444,1.0179,0.1300
4.4640,-0.2512,1.0242,0.1347
4.4940,-0.2512,1.0242,0.1347
4.4940,-0.2512,1.0242,0.1347
4.4950,-0.2512,1.0242,0.1347
4.4950,-0.2544,1.0225,0.1273
4.5150,-0.2544,1.0225,0.1273
4.5150,-0.2544,1.0225,0.1273
4.5150,-0.2544,1.0225,0.1273
4.5160,-0.2456,1.0164,0.1298
4.5160,-0.2456,1.0164,0.1298
4.5440,-0.2456,1.0164,0.1298
4.5440,-0.2456,1.0164,0.1298
4.5440,-0.2456,1.0164,0.1298
4.5450,-0.2388,1.0213,0.1393
4.5450,-0.2363,1.0220,0.1312
4.5740,-0.2363,1.0220,0.1312
4.5750,-0.2363,1.0220,0.1312
4.5750,-0.2363,1.0220,0.1312
4.5750,-0.2390,1.0186,0.1276
4.5950,-0.2390,1.0186,0.1276
4.5950,-0.2390,1.0186,0.1276
4.6070,-0.2390,1.0186,0.1276
4.6070,-0.2429,1.0203,0.1295
4.6070,-0.2429,1.0203,0.1295
4.6230,-0.2429,1.0203,0.1295
4.6230,-0.2429,1.0203,0.1295
4.6240,-0.2429,1.0203,0.1295
4.6240,-0.2371,1.0289,0.1281
4.6240,-0.2380,1.0257,0.1383
4.6490,-0.2380,1.0257,0.1383
4.6540,-0.2380,1.0257,0.1383
4.6540,-0.2380,1.0257,0.1383
4.6540,-0.2380,1.0257,0.1383
4.6540,-0.2415,1.0228,0.1366
4.6750,-0.2415,1.0228,0.1366
4.6750,-0.2415,1.0228,0.1366
4.6750,-0.2415,1.0228,0.1366
4.6760,-0.2444,1.0206,0.1310
4.6760,-0.2444,1.0206,0.1310
4.7040,-0.2444,1.0206,0.1310
4.7040,-0.2444,1.0206,0.1310
4.7050,-0.2444,1.0206,0.1310
4.7050,-0.2476,1.0228,0.1354
4.7050,-0.2451,1.0235,0.1371
4.7340,-0.2451,1.0235,0.1371
4.7350,-0.2451,1.0235,0.1371
4.7350,-0.2451,1.0235,0.1371
4.7350,-0.2388,1.0220,0.1378
4.7560,-0.2388,1.0220,0.1378
4.7560,-0.2388,1.0220,0.1378
4.7560,-0.2388,1.0220,0.1378
4.7560,-0.2366,1.0174,0.1261
4.7570,-0.2366,1.0174,0.1261
4.7840,-0.2366,1.0174,0.1261
4.7850,-0.2366,1.0174,0.1261
4.7850,-0.2366,1.0174,0.1261
4.7850,-0.2358,1.0203,0.1283
4.7850,-0.2400,1.0201,0.1337
4.8140,-0.2400,1.0201,0.1337
4.8150,-0.2400,1.0201,0.1337
4.8150,-0.2400,1.0201,0.1337
4.8150,-0.2439,1.0272,0.1337
4.8350,-0.2439,1.0272,0.1337
4.8360,-0.2439,1.0272,0.1337
4.8360,-0.2439,1.0272,0.1337
4.8360,-0.2395,1.0267,0.1305
4.8360,-0.2395,1.0267,0.1305
4.8500,-0.2395,1.0267,0.1305
4.8620,-0.2395,1.0267,0.1305
4.8620,-0.2395,1.0267,0.1305
4.8630,-0.2395,1.0267,0.1305
4.8630,-0.2353,1.0240,0.1285
4.8630,-0.2410,1.0247,0.1317
4.8940,-0.2410,1.0247,0.1317
4.8940,-0.2410,1.0247,0.1317
4.8940,-0.2410,1.0247,0.1317
4.8940,-0.2441,1.0311,0.1332
4.9160,-0.2441,1.0311,0.1332
4.9160,-0.2441,1.0311,0.1332
4.9170,-0.2441,1.0311,0.1332
4.9170,-0.2410,1.0313,0.1234
4.9180,-0.2410,1.0313,0.1234
4.9440,-0.2410,1.0313,0.1234
4.9450,-0.2410,1.0313,0.1234
4.9450,-0.2410,1.0313,0.1234
4.9450,-0.2339,1.0252,0.1334
4.9460,-0.2295,1.0208,0.1447
4.9750,-0.2295,1.0208,0.1447
4.9760,-0.2295,1.0208,0.1447
4.9760,-0.2295,1.0208,0.1447
4.9760,-0.2305,1.0218,0.1325
4.9950,-0.2305,1.0218,0.1325
4.9950,-0.2305,1.0218,0.1325
4.9960,-0.2305,1.0218,0.1325
4.9960,-0.2329,1.0230,0.1259
4.9960,-0.2329,1.0230,0.1259
5.0250,-0.2329,1.0230,0.1259
5.0250,-0.2329,1.0230,0.1259
5.0260,-0.2329,1.0230,0.1259
5.0260,-0.2388,1.0281,0.1325
5.0260,-0.2402,1.0279,0.1305
5.0500,-0.2402,1.0279,0.1305
5.0560,-0.2402,1.0279,0.1305
5.0560,-0.2402,1.0279,0.1305
5.0570,-0.2402,1.0279,0.1305
5.0570,-0.2424,1.0193,0.1395
5.0760,-0.2424,1.0193,0.1395
5.0760,-0.2424,1.0193,0.1395
5.0770,-0.2424,1.0193,0.1395
5.0770,-0.2446,1.0181,0.1295
5.0770,-0.2446,1.0181,0.1295
5.1020,-0.2446,1.0181,0.1295
5.1020,-0.2446,1.0181,0.1295
5.1020,-0.2446,1.0181,0.1295
5.1030,-0.2515,1.0228,0.1298
5.1030,-0.2488,1.0311,0.1234
5.1330,-0.2488,1.0311,0.1234
5.1330,-0.2488,1.0311,0.1234
5.1330,-0.2488,1.0311,0.1234
5.1330,-0.2346,1.0255,0.1283
5.1340,-0.2346,1.0255,0.1283
5.1500,-0.2346,1.0255,0.1283
5.1500,-0.2346,1.0255,0.1283
5.1520,-0.2346,1.0255,0.1283
5.1520,-0.2307,1.0264,0.1332
5.1790,-0.2307,1.0264,0.1332
5.1790,-0.2307,1.0264,0.1332
5.1800,-0.2307,1.0264,0.1332
5.1810,-0.2353,1.0245,0.1329
5.1810,-0.2390,1.0193,0.1393
5.2100,-0.2390,1.0193,0.1393
5.2100,-0.2390,1.0193,0.1393
5.2100,-0.2390,1.0193,0.1393
5.2100,-0.2395,1.0240,0.1322
5.2110,-0.2395,1.0240,0.1322
5.2300,-0.2395,1.0240,0.1322
5.2310,-0.2395,1.0240,0.1322
5.2310,-0.2395,1.0240,0.1322
5.2310,-0.2375,1.0286,0.1334
5.2450,-0.2375,1.0286,0.1334
5.2620,-0.2375,1.0286,0.1334
5.2630,-0.2375,1.0286,0.1334
5.2630,-0.2375,1.0286,0.1334
5.2630,-0.2361,1.0323,0.1271
5.2640,-0.2317,1.0181,0.1268
5.2900,-0.2317,1.0181,0.1268
5.2910,-0.2317,1.0181,0.1268
5.2920,-0.2317,1.0181,0.1268
5.2920,-0.2351,1.0115,0.1469
5.2920,-0.2351,1.0115,0.1469
5.3100,-0.2351,1.0115,0.1469
5.3100,-0.2351,1.0115,0.1469
5.3110,-0.2351,1.0115,0.1469
5.3120,-0.2434,1.0208,0.1430
5.3400,-0.2434,1.0208,0.1430
5.3410,-0.2434,1.0208,0.1430
5.3410,-0.2434,1.0208,0.1430
5.3420,-0.2468,1.0340,0.1239
5.3420,-0.2419,1.0345,0.1146
5.3700,-0.2419,1.0345,0.1146
5.3710,-0.2419,1.0345,0.1146
5.3710,-0.2419,1.0345,0.1146
5.3710,-0.2366,1.0174,0.1332
5.3720,-0.2366,1.0174,0.1332
5.3910,-0.2366,1.0174,0.1332
5.3910,-0.2366,1.0174,0.1332
5.3910,-0.2366,1.0174,0.1332
5.3920,-0.2385,1.0159,0.1427
5.4210,-0.2385,1.0159,0.1427
5.4210,-0.2385,1.0159,0.1427
5.4210,-0.2385,1.0159,0.1427
5.4210,-0.2402,1.0252,0.1263
5.4220,-0.2454,1.0242,0.1244
5.4450,-0.2454,1.0242,0.1244
5.4520,-0.2454,1.0242,0.1244
5.4520,-0.2454,1.0242,0.1244
5.4520,-0.2454,1.0242,0.1244
5.4530,-0.2454,1.0189,0.1366
5.4530,-0.2454,1.0189,0.1366
5.4710,-0.2454,1.0189,0.1366
5.4720,-0.2454,1.0189,0.1366
5.4720,-0.2454,1.0189,0.1366
5.4730,-0.2476,1.0255,0.1369
5.5020,-0.2476,1.0255,0.1369
5.5030,-0.2476,1.0255,0.1369
5.5030,-0.2476,1.0255,0.1369
5.5030,-0.2490,1.0325,0.1232
5.5040,-0.2463,1.0250,0.1310
5.5320,-0.2463,1.0250,0.1310
5.5320,-0.2463,1.0250,0.1310
5.5330,-0.2463,1.0250,0.1310
5.5330,-0.2407,1.0172,0.1459
5.5330,-0.2407,1.0172,0.1459
5.5510,-0.2407,1.0172,0.1459
5.5510,-0.2407,1.0172,0.1459
5.5510,-0.2407,1.0172,0.1459
5.5520,-0.2393,1.0169,0.1476
5.5810,-0.2393,1.0169,0.1476
5.5820,-0.2393,1.0169,0.1476
5.5820,-0.2393,1.0169,0.1476
5.5830,-0.2419,1.0330,0.1327
5.5830,-0.2388,1.0299,0.1217
5.6130,-0.2388,1.0299,0.1217
5.6130,-0.2388,1.0299,0.1217
5.6140,-0.2388,1.0299,0.1217
5.6140,-0.2297,1.0213,0.1332
5.6140,-0.2297,1.0213,0.1332
5.6330,-0.2297,1.0213,0.1332
5.6330,-0.2297,1.0213,0.1332
5.6330,-0.2297,1.0213,0.1332
5.6340,-0.2292,1.0213,0.1420
5.6470,-0.2292,1.0213,0.1420
5.6620,-0.2292,1.0213,0.1420
5.6630,-0.2292,1.0213,0.1420
5.6630,-0.2292,1.0213,0.1420
5.6630,-0.2375,1.0330,0.1359
5.6630,-0.2456,1.0289,0.1285
5.6940,-0.2456,1.0289,0.1285
5.6940,-0.2456,1.0289,0.1285
5.6950,-0.2456,1.0289,0.1285
5.6960,-0.2410,1.0181,0.1334
5.7140,-0.2410,1.0181,0.1334
5.7140,-0.2410,1.0181,0.1334
5.7150,-0.2410,1.0181,0.1334
5.7160,-0.2410,1.0181,0.1334
5.7160,-0.2407,1.0152,0.1373
5.7410,-0.2407,1.0152,0.1373
5.7420,-0.2407,1.0152,0.1373
5.7420,-0.2407,1.0152,0.1373
5.7430,-0.2456,1.0215,0.1266
5.7430,-0.2429,1.0259,0.1222
5.7720,-0.2429,1.0259,0.1222
5.7720,-0.2429,1.0259,0.1222
5.7730,-0.2429,1.0259,0.1222
5.7730,-0.2363,1.0176,0.1278
5.7730,-0.2363,1.0176,0.1278
5.7940,-0.2363,1.0176,0.1278
5.7940,-0.2363,1.0176,0.1278
5.7950,-0.2363,1.0176,0.1278
5.7960,-0.2329,1.0169,0.1391
5.8230,-0.2329,1.0169,0.1391
5.8240,-0.2329,1.0169,0.1391
5.8240,-0.2329,1.0169,0.1391
5.8250,-0.2373,1.0250,0.1317
5.8260,-0.2400,1.0269,0.1273
5.8460,-0.2400,1.0269,0.1273
5.8520,-0.2400,1.0269,0.1273
5.8530,-0.2400,1.0269,0.1273
5.8540,-0.2400,1.0269,0.1273
5.8550,-0.2363,1.0186,0.1339
5.8560,-0.2363,1.0186,0.1339
5.8720,-0.2363,1.0186,0.1339
5.8730,-0.2363,1.0186,0.1339
5.8740,-0.2363,1.0186,0.1339
5.8780,-0.2400,1.0145,0.1420
5.9050,-0.2400,1.0145,0.1420
5.9060,-0.2400,1.0145,0.1420
5.9070,-0.2400,1.0145,0.1420
5.9080,-0.2505,1.0333,0.1325
5.9090,-0.2483,1.0321,0.1173
5.9340,-0.2483,1.0321,0.1173
5.9350,-0.2483,1.0321,0.1173
5.9360,-0.2483,1.0321,0.1173
5.9360,-0.2395,1.0154,0.1351
5.9370,-0.2395,1.0154,0.1351
5.9530,-0.2395,1.0154,0.1351
5.9540,-0.2395,1.0154,0.1351
5.9550,-0.2395,1.0154,0.1351
5.9560,-0.2302,1.0176,0.1408
5.9820,-0.2302,1.0176,0.1408
5.9830,-0.2302,1.0176,0.1408
5.9840,-0.2302,1.0176,0.1408
5.9840,-0.2336,1.0281,0.1403
5.9840,-0.2373,1.0247,0.1278
6.0120,-0.2373,1.0247,0.1278
6.0130,-0.2373,1.0247,0.1278
6.0140,-0.2373,1.0247,0.1278
6.0140,-0.2383,1.0159,0.1217
6.0150,-0.2383,1.0159,0.1217
6.0330,-0.2383,1.0159,0.1217
6.0330,-0.2383,1.0159,0.1217
6.0340,-0.2383,1.0159,0.1217
6.0340,-0.2366,1.0184,0.1369
6.0470,-0.2366,1.0184,0.1369
6.0640,-0.2366,1.0184,0.1369
6.0640,-0.2366,1.0184,0.1369
6.0650,-0.2366,1.0184,0.1369
6.0650,-0.2363,1.0252,0.1383
6.0660,-0.2432,1.0201,0.1371
6.0920,-0.2432,1.0201,0.1371
6.0930,-0.2432,1.0201,0.1371
6.0940,-0.2432,1.0201,0.1371
6.0950,-0.2493,1.0172,0.1283
6.0960,-0.2493,1.0172,0.1283
6.1170,-0.2493,1.0172,0.1283
6.1200,-0.2493,1.0172,0.1283
6.1250,-0.2493,1.0172,0.1283
6.1260,-0.2525,1.0286,0.1310
6.1460,-0.2525,1.0286,0.1310
6.1470,-0.2525,1.0286,0.1310
6.1490,-0.2525,1.0286,0.1310
6.1490,-0.2473,1.0384,0.1290
6.1500,-0.2378,1.0242,0.1261
6.1730,-0.2378,1.0242,0.1261
6.1740,-0.2378,1.0242,0.1261
6.1750,-0.2378,1.0242,0.1261
6.1760,-0.2322,1.0106,0.1464
6.1760,-0.2322,1.0106,0.1464
6.1930,-0.2322,1.0106,0.1464
6.1930,-0.2322,1.0106,0.1464
6.1940,-0.2322,1.0106,0.1464
6.1950,-0.2305,1.0208,0.1427
6.2240,-0.2305,1.0208,0.1427
6.2260,-0.2305,1.0208,0.1427
6.2270,-0.2305,1.0208,0.1427
6.2280,-0.2314,1.0394,0.1171
6.2290,-0.2241,1.0325,0.1234
6.2470,-0.2241,1.0325,0.1234
6.2550,-0.2241,1.0325,0.1234
6.2560,-0.2241,1.0325,0.1234
6.2570,-0.2241,1.0325,0.1234
6.2920,-0.2182,1.0198,0.1425
6.2920,-0.2182,1.0198,0.1425
6.2920,-0.2182,1.0198,0.1425
6.2930,-0.2182,1.0198,0.1425
6.2930,-0.2182,1.0198,0.1425
6.2930,-0.2243,1.0115,0.1395
6.3020,-0.2243,1.0115,0.1395
6.3030,-0.2243,1.0115,0.1395
6.3030,-0.2243,1.0115,0.1395
6.3030,-0.2375,1.0269,0.1337
6.3040,-0.2466,1.0303,0.1246
6.3310,-0.2466,1.0303,0.1246
6.3310,-0.2466,1.0303,0.1246
6.3320,-0.2466,1.0303,0.1246
6.3320,-0.2434,1.0245,0.1261
6.3330,-0.2434,1.0245,0.1261
6.3510,-0.2434,1.0245,0.1261
6.3540,-0.2434,1.0245,0.1261
6.3540,-0.2434,1.0245,0.1261
6.3550,-0.2410,1.0215,0.1366
6.3810,-0.2410,1.0215,0.1366
6.3810,-0.2410,1.0215,0.1366
6.3820,-0.2410,1.0215,0.1366
6.3820,-0.2444,1.0179,0.1307
6.3820,-0.2388,1.0257,0.1339
6.4130,-0.2388,1.0257,0.1339
6.4130,-0.2388,1.0257,0.1339
6.4140,-0.2388,1.0257,0.1339
6.4140,-0.2361,1.0235,0.1290
6.4170,-0.2361,1.0235,0.1290
6.4330,-0.2361,1.0235,0.1290
6.4340,-0.2361,1.0235,0.1290
6.4340,-0.2361,1.0235,0.1290
6.4350,-0.2305,1.0230,0.1359
6.4460,-0.2305,1.0230,0.1359
6.4620,-0.2305,1.0230,0.1359
6.4630,-0.2305,1.0230,0.1359
6.4630,-0.2305,1.0230,0.1359
6.4630,-0.2353,1.0291,0.1298
6.4640,-0.2390,1.0289,0.1244
6.4930,-0.2390,1.0289,0.1244
6.4930,-0.2390,1.0289,0.1244
6.4940,-0.2390,1.0289,0.1244
6.4950,-0.2319,1.0301,0.1354
6.4950,-0.2319,1.0301,0.1354
6.5130,-0.2319,1.0301,0.1354
6.5130,-0.2319,1.0301,0.1354
6.5140,-0.2319,1.0301,0.1354
6.5140,-0.2322,1.0237,0.1376
6.5430,-0.2322,1.0237,0.1376
6.5430,-0.2322,1.0237,0.1376
6.5440,-0.2322,1.0237,0.1376
6.5440,-0.2412,1.0223,0.1415
6.5450,-0.2429,1.0323,0.1268
6.5760,-0.2429,1.0323,0.1268
6.5770,-0.2429,1.0323,0.1268
6.5780,-0.2429,1.0323,0.1268
6.5790,-0.2368,1.0338,0.1244
6.5790,-0.2368,1.0338,0.1244
6.5940,-0.2368,1.0338,0.1244
6.5950,-0.2368,1.0338,0.1244
6.5960,-0.2368,1.0338,0.1244
6.5960,-0.2307,1.0223,0.1417
6.6260,-0.2307,1.0223,0.1417
6.6270,-0.2307,1.0223,0.1417
6.6280,-0.2307,1.0223,0.1417
6.6280,-0.2314,1.0186,0.1400
6.6290,-0.2390,1.0233,0.1320
6.6460,-0.2390,1.0233,0.1320
6.6550,-0.2390,1.0233,0.1320
6.6560,-0.2390,1.0233,0.1320
6.6570,-0.2390,1.0233,0.1320
6.6570,-0.2361,1.0267,0.1303
6.6570,-0.2361,1.0267,0.1303
6.6750,-0.2361,1.0267,0.1303
6.6750,-0.2361,1.0267,0.1303
6.6760,-0.2361,1.0267,0.1303
6.6760,-0.2322,1.0218,0.1332
6.7030,-0.2322,1.0218,0.1332
6.7060,-0.2322,1.0218,0.1332
6.7070,-0.2322,1.0218,0.1332
6.7080,-0.2356,1.0213,0.1320
6.7090,-0.2368,1.0223,0.1263
6.7340,-0.2368,1.0223,0.1263
6.7340,-0.2368,1.0223,0.1263
6.7350,-0.2368,1.0223,0.1263
6.7360,-0.2395,1.0267,0.1285
6.7370,-0.2395,1.0267,0.1285
6.7540,-0.2395,1.0267,0.1285
6.7540,-0.2395,1.0267,0.1285
6.7550,-0.2395,1.0267,0.1285
6.7560,-0.2356,1.0235,0.1285
6.7840,-0.2356,1.0235,0.1285
6.7840,-0.2356,1.0235,0.1285
6.7860,-0.2356,1.0235,0.1285
6.7870,-0.2378,1.0123,0.1327
6.7880,-0.2378,1.0189,0.1400
6.8140,-0.2378,1.0189,0.1400
6.8150,-0.2378,1.0189,0.1400
6.8160,-0.2378,1.0189,0.1400
6.8360,-0.2361,1.0318,0.1241
6.8370,-0.2361,1.0318,0.1241
6.8370,-0.2361,1.0318,0.1241
6.8380,-0.2361,1.0318,0.1241
6.8380,-0.2361,1.0318,0.1241
6.8390,-0.2402,1.0240,0.1281
6.8450,-0.2402,1.0240,0.1281
6.8630,-0.2402,1.0240,0.1281
6.8640,-0.2402,1.0240,0.1281
6.8650,-0.2402,1.0240,0.1281
6.8660,-0.2415,1.0191,0.1427
6.8660,-0.2361,1.0237,0.1386
6.8930,-0.2361,1.0237,0.1386
6.8940,-0.2361,1.0237,0.1386
6.8950,-0.2361,1.0237,0.1386
6.8950,-0.2319,1.0347,0.1285
6.8960,-0.2319,1.0347,0.1285
6.9140,-0.2319,1.0347,0.1285
6.9140,-0.2319,1.0347,0.1285
6.9160,-0.2319,1.0347,0.1285
6.9170,-0.2300,1.0303,0.1254
6.9450,-0.2300,1.0303,0.1254
6.9460,-0.2300,1.0303,0.1254
6.9470,-0.2300,1.0303,0.1254
6.9480,-0.2327,1.0154,0.1395
6.9490,-0.2383,1.0145,0.1479
6.9740,-0.2383,1.0145,0.1479
6.9750,-0.2383,1.0145,0.1479
6.9760,-0.2383,1.0145,0.1479
6.9770,-0.2356,1.0323,0.1317
6.9770,-0.2356,1.0323,0.1317
6.9950,-0.2356,1.0323,0.1317
6.9960,-0.2356,1.0323,0.1317
6.9970,-0.2356,1.0323,0.1317
6.9980,-0.2324,1.0338,0.1241
7.0240,-0.2324,1.0338,0.1241
7.0240,-0.2324,1.0338,0.1241
7.0250,-0.2324,1.0338,0.1241
7.0260,-0.2290,1.0189,0.1298
7.0270,-0.2270,1.0228,0.1391
7.0470,-0.2270,1.0228,0.1391
7.0550,-0.2270,1.0228,0.1391
7.0560,-0.2270,1.0228,0.1391
7.0570,-0.2270,1.0228,0.1391
7.0580,-0.2287,1.0355,0.1222
7.0590,-0.2287,1.0355,0.1222
7.0750,-0.2287,1.0355,0.1222
7.0760,-0.2287,1.0355,0.1222
7.0770,-0.2287,1.0355,0.1222
7.0780,-0.2305,1.0311,0.1234
7.1040,-0.2305,1.0311,0.1234
7.1050,-0.2305,1.0311,0.1234
7.1060,-0.2305,1.0311,0.1234
7.1070,-0.2349,1.0240,0.1442
7.1080,-0.2351,1.0235,0.1344
7.1350,-0.2351,1.0235,0.1344
7.1360,-0.2351,1.0235,0.1344
7.1360,-0.2351,1.0235,0.1344
7.1370,-0.2366,1.0255,0.1312
7.1370,-0.2366,1.0255,0.1312
7.1540,-0.2366,1.0255,0.1312
7.1550,-0.2366,1.0255,0.1312
7.1550,-0.2366,1.0255,0.1312
7.1560,-0.2385,1.0289,0.1283
7.1860,-0.2385,1.0289,0.1283
7.1880,-0.2385,1.0289,0.1283
7.1890,-0.2385,1.0289,0.1283
7.1900,-0.2415,1.0164,0.1295
7.1910,-0.2417,1.0157,0.1351
7.2150,-0.2417,1.0157,0.1351
7.2160,-0.2417,1.0157,0.1351
7.2170,-0.2417,1.0157,0.1351
7.2200,-0.2353,1.0274,0.1342
7.2230,-0.2353,1.0274,0.1342
7.2360,-0.2353,1.0274,0.1342
7.2370,-0.2353,1.0274,0.1342
7.2370,-0.2353,1.0274,0.1342
7.2380,-0.2307,1.0294,0.1305
7.2460,-0.2307,1.0294,0.1305
7.2660,-0.2307,1.0294,0.1305
7.2670,-0.2307,1.0294,0.1305
7.2680,-0.2307,1.0294,0.1305
7.2690,-0.2280,1.0223,0.1373
7.2700,-0.2322,1.0235,0.1334
7.2940,-0.2322,1.0235,0.1334
7.2950,-0.2322,1.0235,0.1334
7.2960,-0.2322,1.0235,0.1334
7.2960,-0.2351,1.0301,0.1339
7.2970,-0.2351,1.0301,0.1339
7.3140,-0.2351,1.0301,0.1339
7.3150,-0.2351,1.0301,0.1339
7.3150,-0.2351,1.0301,0.1339
7.3160,-0.2324,1.0330,0.1315
7.3470,-0.2324,1.0330,0.1315
7.3480,-0.2324,1.0330,0.1315
7.3490,-0.2324,1.0330,0.1315
7.3490,-0.2300,1.0262,0.1298
7.3510,-0.2300,1.0230,0.1383
7.3740,-0.2300,1.0230,0.1383
7.3750,-0.2300,1.0230,0.1383
7.3950,-0.2300,1.0230,0.1383
7.3950,-0.2361,1.0225,0.1369
7.3950,-0.2361,1.0225,0.1369
7.3960,-0.2361,1.0225,0.1369
7.3960,-0.2361,1.0225,0.1369
7.3960,-0.2361,1.0225,0.1369
7.3960,-0.2437,1.0286,0.1249
7.4220,-0.2437,1.0286,0.1249
7.4230,-0.2437,1.0286,0.1249
7.4230,-0.2437,1.0286,0.1249
7.4240,-0.2397,1.0301,0.1178
7.4240,-0.2334,1.0250,0.1312
7.4460,-0.2334,1.0250,0.1312
7.4560,-0.2334,1.0250,0.1312
7.4570,-0.2334,1.0250,0.1312
7.4570,-0.2334,1.0250,0.1312
7.4570,-0.2292,1.0186,0.1447
7.4580,-0.2292,1.0186,0.1447
7.4780,-0.2292,1.0186,0.1447
7.4780,-0.2292,1.0186,0.1447
7.4790,-0.2292,1.0186,0.1447
7.4800,-0.2346,1.0201,0.1344
7.5040,-0.2346,1.0201,0.1344
7.5040,-0.2346,1.0201,0.1344
7.5050,-0.2346,1.0201,0.1344
7.5050,-0.2424,1.0281,0.1263
7.5050,-0.2405,1.0277,0.1234
7.5340,-0.2405,1.0277,0.1234
7.5350,-0.2405,1.0277,0.1234
7.5350,-0.2405,1.0277,0.1234
7.5360,-0.2390,1.0252,0.1361
7.5360,-0.2390,1.0252,0.1361
7.5530,-0.2390,1.0252,0.1361
7.5540,-0.2390,1.0252,0.1361
7.5550,-0.2390,1.0252,0.1361
7.5560,-0.2329,1.0303,0.1310
7.5860,-0.2329,1.0303,0.1310
7.5860,-0.2329,1.0303,0.1310
7.5870,-0.2329,1.0303,0.1310
7.5880,-0.2319,1.0267,0.1276
7.5880,-0.2339,1.0179,0.1420
7.6160,-0.2339,1.0179,0.1420
7.6170,-0.2339,1.0179,0.1420
7.6170,-0.2339,1.0179,0.1420
7.6180,-0.2256,1.0247,0.1395
7.6190,-0.2256,1.0247,0.1395
7.6360,-0.2256,1.0247,0.1395
7.6360,-0.2256,1.0247,0.1395
7.6370,-0.2256,1.0247,0.1395
7.6370,-0.2204,1.0311,0.1244
7.6470,-0.2204,1.0311,0.1244
7.6670,-0.2204,1.0311,0.1244
7.6680,-0.2204,1.0311,0.1244
7.6690,-0.2204,1.0311,0.1244
7.6690,-0.2217,1.0230,0.1329
7.6700,-0.2319,1.0169,0.1400
7.6960,-0.2319,1.0169,0.1400
7.6970,-0.2319,1.0169,0.1400
7.7000,-0.2319,1.0169,0.1400
7.7010,-0.2390,1.0215,0.1354
7.7020,-0.2390,1.0215,0.1354
7.7160,-0.2390,1.0215,0.1354
7.7170,-0.2390,1.0215,0.1354
7.7170,-0.2390,1.0215,0.1354
7.7200,-0.2415,1.0277,0.1232
7.7440,-0.2415,1.0277,0.1232
7.7450,-0.2415,1.0277,0.1232
7.7460,-0.2415,1.0277,0.1232
7.7470,-0.2371,1.0279,0.1325
7.7470,-0.2358,1.0169,0.1405
7.7750,-0.2358,1.0169,0.1405
7.7760,-0.2358,1.0169,0.1405
7.7770,-0.2358,1.0169,0.1405
7.7770,-0.2419,1.0167,0.1398
7.7790,-0.2419,1.0167,0.1398
7.7980,-0.2419,1.0167,0.1398
7.7990,-0.2419,1.0167,0.1398
7.7990,-0.2419,1.0167,0.1398
7.8000,-0.2429,1.0325,0.1305
7.8250,-0.2429,1.0325,0.1305
7.8260,-0.2429,1.0325,0.1305
7.8270,-0.2429,1.0325,0.1305
7.8270,-0.2312,1.0330,0.1212
7.8280,-0.2214,1.0211,0.1344
7.8480,-0.2214,1.0211,0.1344
7.8550,-0.2214,1.0211,0.1344
7.8570,-0.2214,1.0211,0.1344
7.8580,-0.2214,1.0211,0.1344
7.8590,-0.2270,1.0201,0.1442
7.8600,-0.2270,1.0201,0.1442
7.8760,-0.2270,1.0201,0.1442
7.8770,-0.2270,1.0201,0.1442
7.8780,-0.2270,1.0201,0.1442
7.8790,-0.2366,1.0313,0.1369
7.9040,-0.2366,1.0313,0.1369
7.9050,-0.2366,1.0313,0.1369
7.9060,-0.2366,1.0313,0.1369
7.9060,-0.2324,1.0377,0.1232
7.9070,-0.2207,1.0338,0.1198
7.9360,-0.2207,1.0338,0.1198
7.9630,-0.2207,1.0338,0.1198
7.9630,-0.2207,1.0338,0.1198
7.9640,-0.2256,1.0159,0.1420
7.9640,-0.2256,1.0159,0.1420
7.9640,-0.2256,1.0159,0.1420
7.9650,-0.2256,1.0159,0.1420
7.9650,-0.2256,1.0159,0.1420
7.9650,-0.2329,1.0196,0.1417
7.9840,-0.2329,1.0196,0.1417
7.9840,-0.2329,1.0196,0.1417
7.9840,-0.2329,1.0196,0.1417
7.9850,-0.2297,1.0247,0.1290
7.9850,-0.2261,1.0277,0.1334
8.0140,-0.2261,1.0277,0.1334
8.0150,-0.2261,1.0277,0.1334
8.0150,-0.2261,1.0277,0.1334
8.0150,-0.2287,1.0318,0.1334
8.0160,-0.2287,1.0318,0.1334
8.0340,-0.2287,1.0318,0.1334
8.0350,-0.2287,1.0318,0.1334
8.0350,-0.2287,1.0318,0.1334
8.0360,-0.2344,1.0347,0.1290
8.0460,-0.2344,1.0347,0.1290
8.0670,-0.2344,1.0347,0.1290
8.0680,-0.2344,1.0347,0.1290
8.0680,-0.2344,1.0347,0.1290
8.0690,-0.2397,1.0230,0.1337
8.0700,-0.2422,1.0150,0.1310
8.0950,-0.2422,1.0150,0.1310
8.0960,-0.2422,1.0150,0.1310
8.0970,-0.2422,1.0150,0.1310
8.0980,-0.2373,1.0233,0.1400
8.0980,-0.2373,1.0233,0.1400
8.1150,-0.2373,1.0233,0.1400
8.1160,-0.2373,1.0233,0.1400
8.1160,-0.2373,1.0233,0.1400
8.1160,-0.2246,1.0347,0.1354
8.1450,-0.2246,1.0347,0.1354
8.1460,-0.2246,1.0347,0.1354
8.1460,-0.2246,1.0347,0.1354
8.1470,-0.2214,1.0274,0.1288
8.1480,-0.2268,1.0157,0.1290
8.1760,-0.2268,1.0157,0.1290
8.1770,-0.2268,1.0157,0.1290
8.1770,-0.2268,1.0157,0.1290
8.1780,-0.2312,1.0215,0.1307
8.1780,-0.2312,1.0215,0.1307
8.1960,-0.2312,1.0215,0.1307
8.1970,-0.2312,1.0215,0.1307
8.1970,-0.2312,1.0215,0.1307
8.1980,-0.2336,1.0340,0.1364
8.2260,-0.2336,1.0340,0.1364
8.2280,-0.2336,1.0340,0.1364
8.2280,-0.2336,1.0340,0.1364
8.2290,-0.2280,1.0355,0.1237
8.2300,-0.2219,1.0193,0.1361
8.2470,-0.2219,1.0193,0.1361
8.2560,-0.2219,1.0193,0.1361
8.2570,-0.2219,1.0193,0.1361
8.2570,-0.2219,1.0193,0.1361
8.2590,-0.2263,1.0157,0.1388
8.2620,-0.2263,1.0157,0.1388
8.2740,-0.2263,1.0157,0.1388
8.2750,-0.2263,1.0157,0.1388
8.2750,-0.2263,1.0157,0.1388
8.2750,-0.2346,1.0272,0.1198
8.3040,-0.2346,1.0272,0.1198
8.3040,-0.2346,1.0272,0.1198
8.3050,-0.2346,1.0272,0.1198
8.3050,-0.2358,1.0347,0.1212
8.3060,-0.2327,1.0289,0.1405
8.3340,-0.2327,1.0289,0.1405
8.3360,-0.2327,1.0289,0.1405
8.3360,-0.2327,1.0289,0.1405
8.3370,-0.2317,1.0189,0.1369
8.3370,-0.2317,1.0189,0.1369
8.3560,-0.2317,1.0189,0.1369
8.3570,-0.2317,1.0189,0.1369
8.3590,-0.2317,1.0189,0.1369
8.3620,-0.2314,1.0211,0.1327
8.3840,-0.2314,1.0211,0.1327
8.3850,-0.2314,1.0211,0.1327
8.3860,-0.2314,1.0211,0.1327
8.3870,-0.2356,1.0308,0.1381
8.3870,-0.2341,1.0345,0.1361
8.4160,-0.2341,1.0345,0.1361
8.4160,-0.2341,1.0345,0.1361
8.4170,-0.2341,1.0345,0.1361
8.4180,-0.2258,1.0223,0.1373
8.4180,-0.2258,1.0223,0.1373
8.4350,-0.2258,1.0223,0.1373
8.4350,-0.2258,1.0223,0.1373
8.4360,-0.2258,1.0223,0.1373
8.4370,-0.2229,1.0225,0.1391
8.4470,-0.2229,1.0225,0.1391
8.4680,-0.2229,1.0225,0.1391
8.4690,-0.2229,1.0225,0.1391
8.4690,-0.2229,1.0225,0.1391
8.4700,-0.2273,1.0279,0.1386
8.4700,-0.2280,1.0340,0.1293
8.4950,-0.2280,1.0340,0.1293
8.4950,-0.2280,1.0340,0.1293
8.4980,-0.2280,1.0340,0.1293
8.5000,-0.2253,1.0289,0.1373
8.5000,-0.2253,1.0289,0.1373
8.5130,-0.2253,1.0289,0.1373
8.5140,-0.2253,1.0289,0.1373
8.5140,-0.2253,1.0289,0.1373
8.5140,-0.2258,1.0189,0.1361
8.5430,-0.2258,1.0189,0.1361
8.5430,-0.2258,1.0189,0.1361
8.5430,-0.2258,1.0189,0.1361
8.5440,-0.2344,1.0233,0.1344
8.5440,-0.2331,1.0294,0.1288
8.5750,-0.2331,1.0294,0.1288
8.5760,-0.2331,1.0294,0.1288
8.5760,-0.2331,1.0294,0.1288
8.5770,-0.2297,1.0274,0.1261
8.5780,-0.2297,1.0274,0.1261
8.5950,-0.2297,1.0274,0.1261
8.5960,-0.2297,1.0274,0.1261
8.5960,-0.2297,1.0274,0.1261
8.5970,-0.2280,1.0203,0.1342
8.6250,-0.2280,1.0203,0.1342
8.6260,-0.2280,1.0203,0.1342
8.6270,-0.2280,1.0203,0.1342
8.6270,-0.2317,1.0233,0.1364
8.6280,-0.2324,1.0272,0.1266
8.6470,-0.2324,1.0272,0.1266
8.6570,-0.2324,1.0272,0.1266
8.6580,-0.2324,1.0272,0.1266
8.6590,-0.2324,1.0272,0.1266
8.6590,-0.2309,1.0294,0.1312
8.6600,-0.2309,1.0294,0.1312
8.6790,-0.2309,1.0294,0.1312
8.6800,-0.2309,1.0294,0.1312
8.6800,-0.2309,1.0294,0.1312
8.6810,-0.2329,1.0242,0.1378
8.7050,-0.2329,1.0242,0.1378
8.7060,-0.2329,1.0242,0.1378
8.7070,-0.2329,1.0242,0.1378
8.7070,-0.2339,1.0218,0.1337
8.7080,-0.2319,1.0323,0.1351
8.7350,-0.2319,1.0323,0.1351
8.7360,-0.2319,1.0323,0.1351
8.7360,-0.2319,1.0323,0.1351
8.7370,-0.2324,1.0318,0.1300
8.7380,-0.2324,1.0318,0.1300
8.7560,-0.2324,1.0318,0.1300
8.7570,-0.2324,1.0318,0.1300
8.7570,-0.2324,1.0318,0.1300
8.7580,-0.2322,1.0237,0.1378
8.7860,-0.2322,1.0237,0.1378
8.7870,-0.2322,1.0237,0.1378
8.7880,-0.2322,1.0237,0.1378
8.7890,-0.2312,1.0164,0.1427
8.7900,-0.2346,1.0220,0.1361
8.8170,-0.2346,1.0220,0.1361
8.8180,-0.2346,1.0220,0.1361
8.8190,-0.2346,1.0220,0.1361
8.8200,-0.2327,1.0350,0.1246
8.8210,-0.2327,1.0350,0.1246
8.8360,-0.2327,1.0350,0.1246
8.8370,-0.2327,1.0350,0.1246
8.8380,-0.2327,1.0350,0.1246
8.8390,-0.2270,1.0267,0.1298
8.8470,-0.2270,1.0267,0.1298
8.8480,-0.2270,1.0267,0.1298
8.8660,-0.2270,1.0267,0.1298
8.8670,-0.2270,1.0267,0.1298
8.8680,-0.2270,1.0267,0.1298
8.8690,-0.2292,1.0157,0.1405
8.8700,-0.2358,1.0206,0.1408
8.8970,-0.2358,1.0206,0.1408
8.8980,-0.2358,1.0206,0.1408
8.9000,-0.2358,1.0206,0.1408
8.9000,-0.2407,1.0347,0.1273
8.9020,-0.2407,1.0347,0.1273
8.9160,-0.2407,1.0347,0.1273
8.9170,-0.2407,1.0347,0.1273
8.9190,-0.2407,1.0347,0.1273
8.9200,-0.2368,1.0318,0.1156
8.9480,-0.2368,1.0318,0.1156
8.9490,-0.2368,1.0318,0.1156
8.9500,-0.2368,1.0318,0.1156
8.9510,-0.2283,1.0211,0.1342
8.9520,-0.2239,1.0172,0.1452
8.9780,-0.2239,1.0172,0.1452
8.9790,-0.2239,1.0172,0.1452
8.9810,-0.2239,1.0172,0.1452
8.9820,-0.2217,1.0279,0.1378
8.9830,-0.2217,1.0279,0.1378
8.9970,-0.2217,1.0279,0.1378
8.9980,-0.2217,1.0279,0.1378
8.9990,-0.2217,1.0279,0.1378
9.0000,-0.2207,1.0328,0.1222
9.0280,-0.2207,1.0328,0.1222
9.0290,-0.2207,1.0328,0.1222
9.0300,-0.2207,1.0328,0.1222
9.0320,-0.2241,1.0286,0.1300
9.0530,-0.2278,1.0228,0.1376
9.0540,-0.2278,1.0228,0.1376
9.0570,-0.2278,1.0228,0.1376
9.0580,-0.2278,1.0228,0.1376
9.0590,-0.2278,1.0228,0.1376
9.0590,-0.2290,1.0289,0.1254
9.0600,-0.2290,1.0289,0.1254
9.0760,-0.2290,1.0289,0.1254
9.0770,-0.2290,1.0289,0.1254
9.0770,-0.2290,1.0289,0.1254
9.0780,-0.2283,1.0281,0.1300
9.1050,-0.2283,1.0281,0.1300
9.1060,-0.2283,1.0281,0.1300
9.1070,-0.2283,1.0281,0.1300
9.1080,-0.2241,1.0218,0.1442
9.1090,-0.2256,1.0240,0.1351
9.1370,-0.2256,1.0240,0.1351
9.1380,-0.2256,1.0240,0.1351
9.1390,-0.2256,1.0240,0.1351
9.1400,-0.2295,1.0277,0.1339
9.1400,-0.2295,1.0277,0.1339
9.1590,-0.2295,1.0277,0.1339
9.1600,-0.2295,1.0277,0.1339
9.1610,-0.2295,1.0277,0.1339
9.1620,-0.2336,1.0350,0.1329
9.1860,-0.2336,1.0350,0.1329
9.1870,-0.2336,1.0350,0.1329
9.1870,-0.2336,1.0350,0.1329
9.1880,-0.2351,1.0257,0.1281
9.1890,-0.2331,1.0191,0.1381
9.2170,-0.2331,1.0191,0.1381
9.2170,-0.2331,1.0191,0.1381
9.2180,-0.2331,1.0191,0.1381
9.2190,-0.2300,1.0255,0.1427
9.2190,-0.2300,1.0255,0.1427
9.2380,-0.2300,1.0255,0.1427
9.2390,-0.2300,1.0255,0.1427
9.2400,-0.2300,1.0255,0.1427
9.2410,-0.2253,1.0289,0.1383
9.2470,-0.2253,1.0289,0.1383
9.2660,-0.2253,1.0289,0.1383
9.2670,-0.2253,1.0289,0.1383
9.2670,-0.2253,1.0289,0.1383
9.2690,-0.2229,1.0211,0.1317
9.2690,-0.2280,1.0208,0.1378
9.2970,-0.2280,1.0208,0.1378
9.2970,-0.2280,1.0208,0.1378
9.2980,-0.2280,1.0208,0.1378
9.2990,-0.2302,1.0291,0.1283
9.2990,-0.2302,1.0291,0.1283
9.3160,-0.2302,1.0291,0.1283
9.3170,-0.2302,1.0291,0.1283
9.3170,-0.2302,1.0291,0.1283
9.3190,-0.2290,1.0367,0.1244
9.3480,-0.2290,1.0367,0.1244
9.3490,-0.2290,1.0367,0.1244
9.3500,-0.2290,1.0367,0.1244
9.3500,-0.2270,1.0242,0.1320
9.3510,-0.2290,1.0140,0.1439
9.3760,-0.2290,1.0140,0.1439
9.3770,-0.2290,1.0140,0.1439
9.3780,-0.2290,1.0140,0.1439
9.3790,-0.2295,1.0240,0.1413
9.3800,-0.2295,1.0240,0.1413
9.3960,-0.2295,1.0240,0.1413
9.3970,-0.2295,1.0240,0.1413
9.3980,-0.2295,1.0240,0.1413
9.3990,-0.2312,1.0284,0.1263
9.4290,-0.2312,1.0284,0.1263
9.4300,-0.2312,1.0284,0.1263
9.4330,-0.2312,1.0284,0.1263
9.4330,-0.2327,1.0247,0.1334
9.4340,-0.2375,1.0257,0.1342
9.4460,-0.2375,1.0257,0.1342
9.4560,-0.2375,1.0257,0.1342
9.4570,-0.2375,1.0257,0.1342
9.4580,-0.2375,1.0257,0.1342
9.4590,-0.2412,1.0286,0.1180
9.4600,-0.2412,1.0286,0.1180
9.4760,-0.2412,1.0286,0.1180
9.4770,-0.2412,1.0286,0.1180
9.4780,-0.2412,1.0286,0.1180
9.4790,-0.2478,1.0272,0.1288
9.5060,-0.2478,1.0272,0.1288
9.5070,-0.2478,1.0272,0.1288
9.5080,-0.2478,1.0272,0.1288
9.5090,-0.2456,1.0218,0.1391
9.5100,-0.2397,1.0142,0.1388
9.5370,-0.2397,1.0142,0.1388
9.5380,-0.2397,1.0142,0.1388
9.5390,-0.2397,1.0142,0.1388
9.5400,-0.2319,1.0240,0.1393
9.5410,-0.2319,1.0240,0.1393
9.5570,-0.2319,1.0240,0.1393
9.5590,-0.2319,1.0240,0.1393
9.5620,-0.2319,1.0240,0.1393
9.5630,-0.2241,1.0357,0.1288
9.5860,-0.2241,1.0357,0.1288
9.5870,-0.2241,1.0357,0.1288
9.5870,-0.2241,1.0357,0.1288
9.6110,-0.2300,1.0269,0.1246
9.6110,-0.2358,1.0147,0.1376
9.6160,-0.2358,1.0147,0.1376
9.6170,-0.2358,1.0147,0.1376
9.6170,-0.2358,1.0147,0.1376
9.6180,-0.2297,1.0259,0.1439
9.6200,-0.2297,1.0259,0.1439
9.6360,-0.2297,1.0259,0.1439
9.6360,-0.2297,1.0259,0.1439
9.6360,-0.2297,1.0259,0.1439
9.6360,-0.2256,1.0389,0.1256
9.6440,-0.2256,1.0389,0.1256
9.6650,-0.2256,1.0389,0.1256
9.6660,-0.2256,1.0389,0.1256
9.6660,-0.2256,1.0389,0.1256
9.6660,-0.2256,1.0355,0.1190
9.6670,-0.2251,1.0242,0.1386
9.6960,-0.2251,1.0242,0.1386
9.6960,-0.2251,1.0242,0.1386
9.6970,-0.2251,1.0242,0.1386
9.6980,-0.2236,1.0186,0.1483
9.6990,-0.2236,1.0186,0.1483
9.7170,-0.2236,1.0186,0.1483
9.7180,-0.2236,1.0186,0.1483
9.7200,-0.2236,1.0186,0.1483
9.7220,-0.2258,1.0230,0.1325
9.7460,-0.2258,1.0230,0.1325
9.7470,-0.2258,1.0230,0.1325
9.7470,-0.2258,1.0230,0.1325
9.7490,-0.2270,1.0318,0.1202
9.7500,-0.2309,1.0308,0.1237
9.7810,-0.2309,1.0308,0.1237
9.7830,-0.2309,1.0308,0.1237
9.7840,-0.2309,1.0308,0.1237
9.7850,-0.2356,1.0277,0.1400
9.7850,-0.2356,1.0277,0.1400
9.8020,-0.2356,1.0277,0.1400
9.8030,-0.2356,1.0277,0.1400
9.8040,-0.2356,1.0277,0.1400
9.8040,-0.2324,1.0338,0.1359
9.8270,-0.2324,1.0338,0.1359
9.8270,-0.2324,1.0338,0.1359
9.8280,-0.2324,1.0338,0.1359
9.8290,-0.2280,1.0259,0.1229
9.8290,-0.2243,1.0186,0.1332
9.8470,-0.2243,1.0186,0.1332
9.8580,-0.2243,1.0186,0.1332
9.8590,-0.2243,1.0186,0.1332
9.8600,-0.2243,1.0186,0.1332
9.8600,-0.2239,1.0245,0.1449
9.8610,-0.2239,1.0245,0.1449
9.8760,-0.2239,1.0245,0.1449
9.8790,-0.2239,1.0245,0.1449
9.8790,-0.2239,1.0245,0.1449
9.8800,-0.2270,1.0338,0.1415
9.9060,-0.2270,1.0338,0.1415
9.9060,-0.2270,1.0338,0.1415
9.9070,-0.2270,1.0338,0.1415
9.9070,-0.2319,1.0252,0.1266
9.9080,-0.2324,1.0267,0.1298
9.9400,-0.2324,1.0267,0.1298
9.9420,-0.2324,1.0267,0.1298
9.9430,-0.2324,1.0267,0.1298
9.9440,-0.2292,1.0330,0.1349
9.9470,-0.2292,1.0330,0.1349
9.9570,-0.2292,1.0330,0.1349
9.9580,-0.2292,1.0330,0.1349
9.9590,-0.2292,1.0330,0.1349
9.9600,-0.2273,1.0306,0.1444
9.9900,-0.2273,1.0306,0.1444
9.9900,-0.2273,1.0306,0.1444
9.9910,-0.2273,1.0306,0.1444
9.9930,-0.2270,1.0247,0.1276
9.9940,-0.2261,1.0206,0.1315
10.0150,-0.2261,1.0206,0.1315
10.0150,-0.2261,1.0206,0.1315
10.0160,-0.2261,1.0206,0.1315
10.0170,-0.2241,1.0289,0.1422
10.0170,-0.2241,1.0289,0.1422
10.0350,-0.2241,1.0289,0.1422
10.0360,-0.2241,1.0289,0.1422
10.0360,-0.2241,1.0289,0.1422
10.0360,-0.2212,1.0277,0.1427
10.0440,-0.2212,1.0277,0.1427
10.0650,-0.2212,1.0277,0.1427
10.0660,-0.2212,1.0277,0.1427
10.0660,-0.2212,1.0277,0.1427
10.0660,-0.2265,1.0237,0.1381
10.0660,-0.2346,1.0233,0.1307
10.0960,-0.2346,1.0233,0.1307
10.0960,-0.2346,1.0233,0.1307
10.0960,-0.2346,1.0233,0.1307
10.0970,-0.2368,1.0225,0.1283
10.0980,-0.2368,1.0225,0.1283
10.1160,-0.2368,1.0225,0.1283
10.1170,-0.2368,1.0225,0.1283
10.1170,-0.2368,1.0225,0.1283
10.1180,-0.2300,1.0291,0.1425
10.1460,-0.2300,1.0291,0.1425
10.1460,-0.2300,1.0291,0.1425
10.1550,-0.2300,1.0291,0.1425
10.1560,-0.2178,1.0325,0.1491
10.1560,-0.2138,1.0301,0.1420
10.1750,-0.2138,1.0301,0.1420
10.1750,-0.2138,1.0301,0.1420
10.1750,-0.2138,1.0301,0.1420
10.1760,-0.2253,1.0281,0.1400
10.1760,-0.2253,1.0281,0.1400
10.1960,-0.2253,1.0281,0.1400
10.1960,-0.2253,1.0281,0.1400
10.1970,-0.2253,1.0281,0.1400
10.1970,-0.2405,1.0306,0.1305
10.2260,-0.2405,1.0306,0.1305
10.2270,-0.2405,1.0306,0.1305
10.2270,-0.2405,1.0306,0.1305
10.2270,-0.2478,1.0264,0.1112
10.2270,-0.2393,1.0215,0.1276
10.2430,-0.2393,1.0215,0.1276
10.2550,-0.2393,1.0215,0.1276
10.2550,-0.2393,1.0215,0.1276
10.2560,-0.2393,1.0215,0.1276
10.2560,-0.2268,1.0191,0.1527
10.2560,-0.2268,1.0191,0.1527
10.2760,-0.2268,1.0191,0.1527
10.2760,-0.2268,1.0191,0.1527
10.2760,-0.2268,1.0191,0.1527
10.2760,-0.2107,1.0215,0.1694
10.3050,-0.2107,1.0215,0.1694
10.3050,-0.2107,1.0215,0.1694
10.3060,-0.2107,1.0215,0.1694
10.3060,-0.2063,1.0242,0.1483
10.3060,-0.2207,1.0198,0.1256
10.3350,-0.2207,1.0198,0.1256
10.3360,-0.2207,1.0198,0.1256
10.3360,-0.2207,1.0198,0.1256
10.3360,-0.2327,1.0306,0.1146
10.3370,-0.2327,1.0306,0.1146
10.3550,-0.2327,1.0306,0.1146
10.3560,-0.2327,1.0306,0.1146
10.3570,-0.2327,1.0306,0.1146
10.3570,-0.2283,1.0396,0.1241
10.3850,-0.2283,1.0396,0.1241
10.3850,-0.2283,1.0396,0.1241
10.3860,-0.2283,1.0396,0.1241
10.3860,-0.2224,1.0284,0.1459
10.3860,-0.2195,1.0198,0.1559
10.4160,-0.2195,1.0198,0.1559
10.4170,-0.2195,1.0198,0.1559
10.4170,-0.2195,1.0198,0.1559
10.4170,-0.2195,1.0164,0.1559
10.4180,-0.2195,1.0164,0.1559
10.4350,-0.2195,1.0164,0.1559
10.4370,-0.2195,1.0164,0.1559
10.4370,-0.2195,1.0164,0.1559
10.4370,-0.2163,1.0284,0.1325
10.4440,-0.2163,1.0284,0.1325
10.4650,-0.2163,1.0284,0.1325
10.4660,-0.2163,1.0284,0.1325
10.4660,-0.2163,1.0284,0.1325
10.4660,-0.2104,1.0362,0.1210
10.4670,-0.2163,1.0299,0.1420
10.4950,-0.2163,1.0299,0.1420
10.4960,-0.2163,1.0299,0.1420
10.4960,-0.2163,1.0299,0.1420
10.4960,-0.2287,1.0233,0.1501
10.4960,-0.2287,1.0233,0.1501
10.5160,-0.2287,1.0233,0.1501
10.5160,-0.2287,1.0233,0.1501
10.5170,-0.2287,1.0233,0.1501
10.5170,-0.2319,1.0230,0.1393
10.5460,-0.2319,1.0230,0.1393
10.5460,-0.2319,1.0230,0.1393
10.5460,-0.2319,1.0230,0.1393
10.5470,-0.2273,1.0279,0.1322
10.5480,-0.2178,1.0306,0.1344
10.5750,-0.2178,1.0306,0.1344
10.5760,-0.2178,1.0306,0.1344
10.5760,-0.2178,1.0306,0.1344
10.5770,-0.2251,1.0208,0.1405
10.5770,-0.2251,1.0208,0.1405
10.5960,-0.2251,1.0208,0.1405
10.5980,-0.2251,1.0208,0.1405
10.5990,-0.2251,1.0208,0.1405
10.5990,-0.2371,1.0223,0.1417
10.6270,-0.2371,1.0223,0.1417
10.6270,-0.2371,1.0223,0.1417
10.6280,-0.2371,1.0223,0.1417
10.6280,-0.2410,1.0272,0.1432
10.6280,-0.2366,1.0279,0.1347
10.6460,-0.2366,1.0279,0.1347
10.6570,-0.2366,1.0279,0.1347
10.6570,-0.2366,1.0279,0.1347
10.6570,-0.2366,1.0279,0.1347
10.6580,-0.2373,1.0281,0.1376
10.6580,-0.2373,1.0281,0.1376
10.6790,-0.2373,1.0281,0.1376
10.6790,-0.2373,1.0281,0.1376
10.6790,-0.2373,1.0281,0.1376
10.6790,-0.2366,1.0259,0.1408
10.7080,-0.2366,1.0259,0.1408
10.7290,-0.2366,1.0259,0.1408
10.7300,-0.2366,1.0259,0.1408
10.7300,-0.2312,1.0257,0.1371
10.7310,-0.2224,1.0301,0.1442
10.7400,-0.2224,1.0301,0.1442
10.7410,-0.2224,1.0301,0.1442
10.7410,-0.2224,1.0301,0.1442
10.7420,-0.2209,1.0181,0.1442
10.7430,-0.2209,1.0181,0.1442
10.7560,-0.2209,1.0181,0.1442
10.7570,-0.2209,1.0181,0.1442
10.7570,-0.2209,1.0181,0.1442
10.7570,-0.2263,1.0172,0.1471
10.7890,-0.2263,1.0172,0.1471
10.7890,-0.2263,1.0172,0.1471
10.7900,-0.2263,1.0172,0.1471
10.7910,-0.2248,1.0303,0.1329
10.7920,-0.2226,1.0335,0.1237
10.8220,-0.2226,1.0335,0.1237
10.8220,-0.2226,1.0335,0.1237
10.8230,-0.2226,1.0335,0.1237
10.8240,-0.2175,1.0281,0.1427
10.8240,-0.2175,1.0281,0.1427
10.8370,-0.2175,1.0281,0.1427
10.8400,-0.2175,1.0281,0.1427
10.8410,-0.2175,1.0281,0.1427
10.8430,-0.2187,1.0240,0.1479
10.8450,-0.2187,1.0240,0.1479
10.8680,-0.2187,1.0240,0.1479
10.8690,-0.2187,1.0240,0.1479
10.8690,-0.2187,1.0240,0.1479
10.8700,-0.2246,1.0242,0.1386
10.8710,-0.2290,1.0220,0.1290
10.8990,-0.2290,1.0220,0.1290
10.9000,-0.2290,1.0220,0.1290
10.9000,-0.2290,1.0220,0.1290
10.9010,-0.2361,1.0252,0.1293
10.9020,-0.2361,1.0252,0.1293
10.9230,-0.2361,1.0252,0.1293
10.9240,-0.2361,1.0252,0.1293
10.9250,-0.2361,1.0252,0.1293
10.9260,-0.2346,1.0233,0.1366
10.9480,-0.2346,1.0233,0.1366
10.9490,-0.2346,1.0233,0.1366
10.9500,-0.2346,1.0233,0.1366
10.9500,-0.2265,1.0228,0.1378
10.9510,-0.2331,1.0196,0.1413
10.9800,-0.2331,1.0196,0.1413
10.9810,-0.2331,1.0196,0.1413
10.9820,-0.2331,1.0196,0.1413
10.9830,-0.2378,1.0223,0.1378
10.9840,-0.2378,1.0223,0.1378
11.0000,-0.2378,1.0223,0.1378
11.0010,-0.2378,1.0223,0.1378
11.0010,-0.2378,1.0223,0.1378
11.0020,-0.2351,1.0259,0.1281
11.0300,-0.2351,1.0259,0.1281
11.0310,-0.2351,1.0259,0.1281
11.0330,-0.2351,1.0259,0.1281
11.0340,-0.2336,1.0301,0.1395
11.0340,-0.2312,1.0196,0.1413
11.0450,-0.2312,1.0196,0.1413
11.0640,-0.2312,1.0196,0.1413
11.0660,-0.2312,1.0196,0.1413
11.0670,-0.2312,1.0196,0.1413
11.0680,-0.2331,1.0206,0.1422
11.0700,-0.2331,1.0206,0.1422
11.0780,-0.2331,1.0206,0.1422
11.0790,-0.2331,1.0206,0.1422
11.0790,-0.2331,1.0206,0.1422
11.0790,-0.2373,1.0237,0.1395
11.1070,-0.2373,1.0237,0.1395
11.1070,-0.2373,1.0237,0.1395
11.1070,-0.2373,1.0237,0.1395
11.1080,-0.2368,1.0255,0.1366
11.1080,-0.2349,1.0213,0.1420
11.1380,-0.2349,1.0213,0.1420
11.1390,-0.2349,1.0213,0.1420
11.1390,-0.2349,1.0213,0.1420
11.1390,-0.2329,1.0247,0.1408
11.1390,-0.2329,1.0247,0.1408
11.1570,-0.2329,1.0247,0.1408
11.1580,-0.2329,1.0247,0.1408
11.1580,-0.2329,1.0247,0.1408
11.1590,-0.2302,1.0259,0.1420
11.1890,-0.2302,1.0259,0.1420
11.1900,-0.2302,1.0259,0.1420
11.1910,-0.2302,1.0259,0.1420
11.1920,-0.2248,1.0184,0.1491
11.1930,-0.2273,1.0152,0.1488
11.2190,-0.2273,1.0152,0.1488
11.2200,-0.2273,1.0152,0.1488
11.2210,-0.2273,1.0152,0.1488
11.2220,-0.2275,1.0269,0.1422
11.2230,-0.2275,1.0269,0.1422
11.2420,-0.2275,1.0269,0.1422
11.2430,-0.2275,1.0269,0.1422
11.2430,-0.2275,1.0269,0.1422
11.2440,-0.2319,1.0396,0.1229
11.2450,-0.2319,1.0396,0.1229
11.2670,-0.2319,1.0396,0.1229
11.2670,-0.2319,1.0396,0.1229
11.2680,-0.2319,1.0396,0.1229
11.2680,-0.2334,1.0279,0.1329
11.2680,-0.2339,1.0198,0.1408
11.2990,-0.2339,1.0198,0.1408
11.2990,-0.2339,1.0198,0.1408
11.2990,-0.2339,1.0198,0.1408
11.2990,-0.2297,1.0262,0.1378
11.3000,-0.2297,1.0262,0.1378
11.3200,-0.2297,1.0262,0.1378
11.3200,-0.2297,1.0262,0.1378
11.3210,-0.2297,1.0262,0.1378
11.3220,-0.2278,1.0264,0.1427
11.3490,-0.2278,1.0264,0.1427
11.3500,-0.2278,1.0264,0.1427
11.3500,-0.2278,1.0264,0.1427
11.3510,-0.2275,1.0235,0.1347
11.3510,-0.2278,1.0206,0.1325
11.3830,-0.2278,1.0206,0.1325
11.3840,-0.2278,1.0206,0.1325
11.3850,-0.2278,1.0206,0.1325
11.3860,-0.2283,1.0294,0.1381
11.3860,-0.2283,1.0294,0.1381
11.4010,-0.2283,1.0294,0.1381
11.4020,-0.2283,1.0294,0.1381
11.4040,-0.2283,1.0294,0.1381
11.4050,-0.2278,1.0333,0.1334
11.4290,-0.2278,1.0333,0.1334
11.4300,-0.2278,1.0333,0.1334
11.4310,-0.2278,1.0333,0.1334
11.4320,-0.2207,1.0230,0.1400
11.4330,-0.2229,1.0167,0.1498
11.4440,-0.2229,1.0167,0.1498
11.4480,-0.2229,1.0167,0.1498
11.4580,-0.2229,1.0167,0.1498
11.4590,-0.2229,1.0167,0.1498
11.4590,-0.2229,1.0167,0.1498
11.4600,-0.2385,1.0281,0.1356
11.4600,-0.2385,1.0281,0.1356
11.4760,-0.2385,1.0281,0.1356
11.4770,-0.2385,1.0281,0.1356
11.4780,-0.2385,1.0281,0.1356
11.4790,-0.2437,1.0333,0.1256
11.5060,-0.2437,1.0333,0.1256
11.5070,-0.2437,1.0333,0.1256
11.5070,-0.2437,1.0333,0.1256
11.5090,-0.2312,1.0240,0.1378
11.5090,-0.2200,1.0164,0.1466
11.5410,-0.2200,1.0164,0.1466
11.5410,-0.2200,1.0164,0.1466
11.5420,-0.2200,1.0164,0.1466
11.5420,-0.2224,1.0255,0.1518
11.5420,-0.2224,1.0255,0.1518
11.5560,-0.2224,1.0255,0.1518
11.5570,-0.2224,1.0255,0.1518
11.5570,-0.2224,1.0255,0.1518
11.5570,-0.2248,1.0308,0.1386
11.5860,-0.2248,1.0308,0.1386
11.5860,-0.2248,1.0308,0.1386
11.5870,-0.2248,1.0308,0.1386
11.5870,-0.2275,1.0247,0.1403
11.5870,-0.2334,1.0252,0.1420
11.6170,-0.2334,1.0252,0.1420
11.6170,-0.2334,1.0252,0.1420
11.6170,-0.2334,1.0252,0.1420
11.6190,-0.2393,1.0303,0.1371
11.6190,-0.2393,1.0303,0.1371
11.6360,-0.2393,1.0303,0.1371
11.6380,-0.2393,1.0303,0.1371
11.6380,-0.2393,1.0303,0.1371
11.6390,-0.2329,1.0286,0.1373
11.6430,-0.2329,1.0286,0.1373
11.6470,-0.2329,1.0286,0.1373
11.6660,-0.2329,1.0286,0.1373
11.6660,-0.2329,1.0286,0.1373
11.6670,-0.2329,1.0286,0.1373
11.6670,-0.2256,1.0230,0.1444
11.6670,-0.2229,1.0215,0.1491
11.6970,-0.2229,1.0215,0.1491
11.6970,-0.2229,1.0215,0.1491
11.6970,-0.2229,1.0215,0.1491
11.6970,-0.2273,1.0267,0.1391
11.6970,-0.2273,1.0267,0.1391
11.7170,-0.2273,1.0267,0.1391
11.7170,-0.2273,1.0267,0.1391
11.7170,-0.2273,1.0267,0.1391
11.7190,-0.2322,1.0299,0.1320
11.7470,-0.2322,1.0299,0.1320
11.7470,-0.2322,1.0299,0.1320
11.7470,-0.2322,1.0299,0.1320
11.7470,-0.2292,1.0245,0.1342
11.7480,-0.2231,1.0252,0.1464
11.7770,-0.2231,1.0252,0.1464
11.7770,-0.2231,1.0252,0.1464
11.7770,-0.2231,1.0252,0.1464
11.7780,-0.2234,1.0264,0.1349
11.7790,-0.2234,1.0264,0.1349
11.7970,-0.2234,1.0264,0.1349
11.7980,-0.2234,1.0264,0.1349
11.8140,-0.2234,1.0264,0.1349
11.8150,-0.2309,1.0279,0.1259
11.8270,-0.2309,1.0279,0.1259
11.8270,-0.2309,1.0279,0.1259
11.8270,-0.2309,1.0279,0.1259
11.8280,-0.2346,1.0291,0.1400
11.8280,-0.2273,1.0252,0.1439
11.8440,-0.2273,1.0252,0.1439
11.8570,-0.2273,1.0252,0.1439
11.8570,-0.2273,1.0252,0.1439
11.8570,-0.2273,1.0252,0.1439
11.8570,-0.2243,1.0186,0.1420
11.8580,-0.2243,1.0186,0.1420
11.8770,-0.2243,1.0186,0.1420
11.8780,-0.2243,1.0186,0.1420
11.8780,-0.2243,1.0186,0.1420
11.8780,-0.2295,1.0230,0.1408
11.9070,-0.2295,1.0230,0.1408
11.9070,-0.2295,1.0230,0.1408
11.9080,-0.2295,1.0230,0.1408
11.9080,-0.2358,1.0259,0.1435
11.9090,-0.2324,1.0313,0.1408
11.9370,-0.2324,1.0313,0.1408
11.9380,-0.2324,1.0313,0.1408
11.9380,-0.2324,1.0313,0.1408
11.9400,-0.2295,1.0284,0.1351
11.9400,-0.2295,1.0284,0.1351
11.9570,-0.2295,1.0284,0.1351
11.9580,-0.2295,1.0284,0.1351
11.9580,-0.2295,1.0284,0.1351
11.9590,-0.2243,1.0245,0.1415
11.9870,-0.2243,1.0245,0.1415
11.9880,-0.2243,1.0245,0.1415
11.9880,-0.2243,1.0245,0.1415
11.9880,-0.2224,1.0255,0.1444
11.9890,-0.2243,1.0264,0.1373
12.0170,-0.2243,1.0264,0.1373
12.0170,-0.2243,1.0264,0.1373
12.0170,-0.2243,1.0264,0.1373
12.0180,-0.2273,1.0257,0.1403
12.0180,-0.2273,1.0257,0.1403
12.0370,-0.2273,1.0257,0.1403
12.0380,-0.2273,1.0257,0.1403
12.0380,-0.2273,1.0257,0.1403
12.0390,-0.2236,1.0250,0.1439
12.0440,-0.2236,1.0250,0.1439
12.0670,-0.2236,1.0250,0.1439
12.0670,-0.2236,1.0250,0.1439
12.0670,-0.2236,1.0250,0.1439
12.0680,-0.2219,1.0277,0.1339
12.0690,-0.2285,1.0262,0.1395
12.0970,-0.2285,1.0262,0.1395
12.0980,-0.2285,1.0262,0.1395
12.0980,-0.2285,1.0262,0.1395
12.1010,-0.2383,1.0240,0.1437
12.1010,-0.2383,1.0240,0.1437
12.1170,-0.2383,1.0240,0.1437
12.1190,-0.2383,1.0240,0.1437
12.1190,-0.2383,1.0240,0.1437
12.1190,-0.2344,1.0321,0.1371
12.1470,-0.2344,1.0321,0.1371
12.1480,-0.2344,1.0321,0.1371
12.1480,-0.2344,1.0321,0.1371
12.1480,-0.2217,1.0318,0.1339
12.1490,-0.2160,1.0198,0.1474
12.1770,-0.2160,1.0198,0.1474
12.1780,-0.2160,1.0198,0.1474
12.1780,-0.2160,1.0198,0.1474
12.1810,-0.2175,1.0250,0.1532
12.1820,-0.2175,1.0250,0.1532
12.1990,-0.2175,1.0250,0.1532
12.2010,-0.2175,1.0250,0.1532
12.2020,-0.2175,1.0250,0.1532
12.2030,-0.2219,1.0318,0.1369
12.2280,-0.2219,1.0318,0.1369
12.2290,-0.2219,1.0318,0.1369
12.2290,-0.2219,1.0318,0.1369
12.2300,-0.2192,1.0313,0.1305
12.2300,-0.2209,1.0259,0.1361
12.2430,-0.2209,1.0259,0.1361
12.2570,-0.2209,1.0259,0.1361
12.2570,-0.2209,1.0259,0.1361
12.2570,-0.2209,1.0259,0.1361
12.2620,-0.2275,1.0281,0.1408
12.2630,-0.2275,1.0281,0.1408
12.2770,-0.2275,1.0281,0.1408
12.2790,-0.2275,1.0281,0.1408
12.2790,-0.2275,1.0281,0.1408
12.2790,-0.2331,1.0281,0.1427
12.3070,-0.2331,1.0281,0.1427
12.3070,-0.2331,1.0281,0.1427
12.3070,-0.2331,1.0281,0.1427
12.3080,-0.2309,1.0237,0.1442
12.3080,-0.2319,1.0203,0.1408
12.3380,-0.2319,1.0203,0.1408
12.3380,-0.2319,1.0203,0.1408
12.3390,-0.2319,1.0203,0.1408
12.3430,-0.2322,1.0237,0.1373
12.3430,-0.2322,1.0237,0.1373
12.3580,-0.2322,1.0237,0.1373
12.3680,-0.2322,1.0237,0.1373
12.3690,-0.2322,1.0237,0.1373
12.3690,-0.2297,1.0299,0.1303
12.3880,-0.2297,1.0299,0.1303
12.3880,-0.2297,1.0299,0.1303
12.3880,-0.2297,1.0299,0.1303
12.3890,-0.2297,1.0201,0.1386
12.3890,-0.2285,1.0203,0.1537
12.4170,-0.2285,1.0203,0.1537
12.4180,-0.2285,1.0203,0.1537
12.4180,-0.2285,1.0203,0.1537
12.4190,-0.2258,1.0306,0.1408
12.4200,-0.2258,1.0306,0.1408
12.4380,-0.2258,1.0306,0.1408
12.4390,-0.2258,1.0306,0.1408
12.4390,-0.2258,1.0306,0.1408
12.4390,-0.2217,1.0338,0.1261
12.4430,-0.2217,1.0338,0.1261
12.4460,-0.2217,1.0338,0.1261
12.4670,-0.2217,1.0338,0.1261
12.4680,-0.2217,1.0338,0.1261
12.4680,-0.2217,1.0338,0.1261
12.4680,-0.2156,1.0237,0.1410
12.4690,-0.2148,1.0223,0.1549
12.4980,-0.2148,1.0223,0.1549
12.4990,-0.2148,1.0223,0.1549
12.4990,-0.2148,1.0223,0.1549
12.4990,-0.2192,1.0262,0.1437
12.5000,-0.2192,1.0262,0.1437
12.5170,-0.2192,1.0262,0.1437
12.5190,-0.2192,1.0262,0.1437
12.5190,-0.2192,1.0262,0.1437
12.5200,-0.2265,1.0233,0.1322
12.5480,-0.2265,1.0233,0.1322
12.5480,-0.2265,1.0233,0.1322
12.5490,-0.2265,1.0233,0.1322
12.5490,-0.2300,1.0299,0.1354
12.5490,-0.2302,1.0328,0.1354
12.5780,-0.2302,1.0328,0.1354
12.5790,-0.2302,1.0328,0.1354
12.5790,-0.2302,1.0328,0.1354
12.5790,-0.2283,1.0257,0.1373
12.5790,-0.2283,1.0257,0.1373
12.5990,-0.2283,1.0257,0.1373
12.6000,-0.2283,1.0257,0.1373
12.6000,-0.2283,1.0257,0.1373
12.6000,-0.2324,1.0201,0.1408
12.6280,-0.2324,1.0201,0.1408
12.6280,-0.2324,1.0201,0.1408
12.6280,-0.2324,1.0201,0.1408
12.6290,-0.2334,1.0235,0.1476
12.6290,-0.2275,1.0264,0.1449
12.6440,-0.2275,1.0264,0.1449
12.6600,-0.2275,1.0264,0.1449
12.6600,-0.2275,1.0264,0.1449
12.6600,-0.2275,1.0264,0.1449
12.6610,-0.2219,1.0284,0.1325
12.6610,-0.2219,1.0284,0.1325
12.6790,-0.2219,1.0284,0.1325
12.6790,-0.2219,1.0284,0.1325
12.6790,-0.2219,1.0284,0.1325
12.6800,-0.2121,1.0281,0.1290
12.7080,-0.2121,1.0281,0.1290
12.7080,-0.2121,1.0281,0.1290
12.7090,-0.2121,1.0281,0.1290
12.7090,-0.2182,1.0250,0.1420
12.7090,-0.2241,1.0184,0.1510
12.7390,-0.2241,1.0184,0.1510
12.7390,-0.2241,1.0184,0.1510
12.7390,-0.2241,1.0184,0.1510
12.7400,-0.2358,1.0272,0.1398
12.7400,-0.2358,1.0272,0.1398
12.7580,-0.2358,1.0272,0.1398
12.7600,-0.2358,1.0272,0.1398
12.7600,-0.2358,1.0272,0.1398
12.7600,-0.2393,1.0321,0.1224
12.7880,-0.2393,1.0321,0.1224
12.7880,-0.2393,1.0321,0.1224
12.7880,-0.2393,1.0321,0.1224
12.7890,-0.2331,1.0196,0.1410
12.7900,-0.2265,1.0145,0.1564
12.8180,-0.2265,1.0145,0.1564
12.8180,-0.2265,1.0145,0.1564
12.8190,-0.2265,1.0145,0.1564
12.8200,-0.2319,1.0233,0.1444
12.8200,-0.2319,1.0233,0.1444
12.8390,-0.2319,1.0233,0.1444
12.8400,-0.2319,1.0233,0.1444
12.8400,-0.2319,1.0233,0.1444
12.8410,-0.2368,1.0247,0.1337
12.8440,-0.2368,1.0247,0.1337
12.8680,-0.2368,1.0247,0.1337
12.8680,-0.2368,1.0247,0.1337
12.8680,-0.2368,1.0247,0.1337
12.8690,-0.2287,1.0233,0.1422
12.8690,-0.2231,1.0296,0.1425
12.8980,-0.2231,1.0296,0.1425
12.8980,-0.2231,1.0296,0.1425
12.8990,-0.2231,1.0296,0.1425
12.9000,-0.2283,1.0289,0.1388
12.9070,-0.2283,1.0289,0.1388
12.9190,-0.2283,1.0289,0.1388
12.9200,-0.2283,1.0289,0.1388
12.9210,-0.2283,1.0289,0.1388
12.9210,-0.2302,1.0289,0.1378
12.9490,-0.2302,1.0289,0.1378
12.9490,-0.2302,1.0289,0.1378
12.9490,-0.2302,1.0289,0.1378
12.9490,-0.2248,1.0296,0.1386
12.9500,-0.2192,1.0245,0.1461
12.9780,-0.2192,1.0245,0.1461
12.9790,-0.2192,1.0245,0.1461
12.9790,-0.2192,1.0245,0.1461
12.9810,-0.2253,1.0250,0.1449
12.9810,-0.2253,1.0250,0.1449
12.9980,-0.2253,1.0250,0.1449
12.9990,-0.2253,1.0250,0.1449
12.9990,-0.2253,1.0250,0.1449
12.9990,-0.2278,1.0316,0.1442
13.0280,-0.2278,1.0316,0.1442
13.0280,-0.2278,1.0316,0.1442
13.0280,-0.2278,1.0316,0.1442
13.0290,-0.2290,1.0255,0.1395
13.0290,-0.2292,1.0179,0.1364
13.0450,-0.2292,1.0179,0.1364
13.0630,-0.2292,1.0179,0.1364
13.0630,-0.2292,1.0179,0.1364
13.0640,-0.2292,1.0179,0.1364
13.0640,-0.2285,1.0169,0.1442
13.0640,-0.2285,1.0169,0.1442
13.0780,-0.2285,1.0169,0.1442
13.0800,-0.2285,1.0169,0.1442
13.0800,-0.2285,1.0169,0.1442
13.0810,-0.2334,1.0294,0.1420
13.1080,-0.2334,1.0294,0.1420
13.1080,-0.2334,1.0294,0.1420
13.1090,-0.2334,1.0294,0.1420
13.1090,-0.2344,1.0289,0.1417
13.1090,-0.2204,1.0225,0.1393
13.1390,-0.2204,1.0225,0.1393
13.1390,-0.2204,1.0225,0.1393
13.1390,-0.2204,1.0225,0.1393
13.1400,-0.2121,1.0255,0.1439
13.1400,-0.2121,1.0255,0.1439
13.1590,-0.2121,1.0255,0.1439
13.1600,-0.2121,1.0255,0.1439
13.1600,-0.2121,1.0255,0.1439
13.1600,-0.2141,1.0313,0.1393
13.1880,-0.2141,1.0313,0.1393
13.1890,-0.2141,1.0313,0.1393
13.1890,-0.2141,1.0313,0.1393
13.1890,-0.2241,1.0272,0.1408
13.1900,-0.2305,1.0208,0.1454
13.2190,-0.2305,1.0208,0.1454
13.2190,-0.2305,1.0208,0.1454
13.2190,-0.2305,1.0208,0.1454
13.2200,-0.2327,1.0235,0.1486
13.2200,-0.2327,1.0235,0.1486
13.2390,-0.2327,1.0235,0.1486
13.2400,-0.2327,1.0235,0.1486
13.2400,-0.2327,1.0235,0.1486
13.2400,-0.2295,1.0299,0.1415
13.2430,-0.2295,1.0299,0.1415
13.2680,-0.2295,1.0299,0.1415
13.2690,-0.2295,1.0299,0.1415
13.2690,-0.2295,1.0299,0.1415
13.2690,-0.2300,1.0233,0.1459
13.2690,-0.2334,1.0191,0.1505
13.2990,-0.2334,1.0191,0.1505
13.3000,-0.2334,1.0191,0.1505
13.3000,-0.2334,1.0191,0.1505
13.3000,-0.2314,1.0242,0.1349
13.3000,-0.2314,1.0242,0.1349
13.3190,-0.2314,1.0242,0.1349
13.3200,-0.2314,1.0242,0.1349
13.3210,-0.2314,1.0242,0.1349
13.3210,-0.2273,1.0255,0.1378
13.3490,-0.2273,1.0255,0.1378
13.3490,-0.2273,1.0255,0.1378
13.3490,-0.2273,1.0255,0.1378
13.3490,-0.2246,1.0220,0.1503
13.3500,-0.2285,1.0203,0.1425
13.3790,-0.2285,1.0203,0.1425
13.3790,-0.2285,1.0203,0.1425
13.3790,-0.2285,1.0203,0.1425
13.3800,-0.2278,1.0208,0.1447
13.3800,-0.2278,1.0208,0.1447
13.4000,-0.2278,1.0208,0.1447
13.4000,-0.2278,1.0208,0.1447
13.4010,-0.2278,1.0208,0.1447
13.4010,-0.2268,1.0230,0.1464
13.4280,-0.2268,1.0230,0.1464
13.4290,-0.2268,1.0230,0.1464
13.4290,-0.2268,1.0230,0.1464
13.4290,-0.2314,1.0259,0.1400
13.4300,-0.2368,1.0203,0.1349
13.4470,-0.2368,1.0203,0.1349
13.4470,-0.2368,1.0203,0.1349
13.4590,-0.2368,1.0203,0.1349
13.4600,-0.2368,1.0203,0.1349
13.4650,-0.2368,1.0203,0.1349
13.4660,-0.2285,1.0247,0.1366
13.4660,-0.2285,1.0247,0.1366
13.4790,-0.2285,1.0247,0.1366
13.4810,-0.2285,1.0247,0.1366
13.4810,-0.2285,1.0247,0.1366
13.4820,-0.2160,1.0225,0.1464
13.5090,-0.2160,1.0225,0.1464
13.5100,-0.2160,1.0225,0.1464
13.5100,-0.2160,1.0225,0.1464
13.5100,-0.2153,1.0174,0.1488
13.5110,-0.2234,1.0203,0.1459
13.5390,-0.2234,1.0203,0.1459
13.5390,-0.2234,1.0203,0.1459
13.5390,-0.2234,1.0203,0.1459
13.5410,-0.2302,1.0242,0.1354
13.5420,-0.2302,1.0242,0.1354
13.5610,-0.2302,1.0242,0.1354
13.5620,-0.2302,1.0242,0.1354
13.5620,-0.2302,1.0242,0.1354
13.5620,-0.2339,1.0335,0.1361
13.5900,-0.2339,1.0335,0.1361
13.5900,-0.2339,1.0335,0.1361
13.5900,-0.2339,1.0335,0.1361
13.5900,-0.2309,1.0284,0.1493
13.5900,-0.2285,1.0228,0.1454
13.6200,-0.2285,1.0228,0.1454
13.6200,-0.2285,1.0228,0.1454
13.6200,-0.2285,1.0228,0.1454
13.6210,-0.2305,1.0233,0.1415
13.6210,-0.2305,1.0233,0.1415
13.6410,-0.2305,1.0233,0.1415
13.6410,-0.2305,1.0233,0.1415
13.6410,-0.2305,1.0233,0.1415
13.6410,-0.2295,1.0289,0.1410
13.6460,-0.2295,1.0289,0.1410
13.6480,-0.2295,1.0289,0.1410
13.6700,-0.2295,1.0289,0.1410
13.6700,-0.2295,1.0289,0.1410
13.6700,-0.2295,1.0289,0.1410
13.6700,-0.2251,1.0252,0.1452
13.6710,-0.2197,1.0230,0.1461
13.7000,-0.2197,1.0230,0.1461
13.7000,-0.2197,1.0230,0.1461
13.7000,-0.2197,1.0230,0.1461
13.7010,-0.2173,1.0281,0.1471
13.7020,-0.2173,1.0281,0.1471
13.7240,-0.2173,1.0281,0.1471
13.7250,-0.2173,1.0281,0.1471
13.7270,-0.2173,1.0281,0.1471
13.7280,-0.2241,1.0323,0.1435
13.7530,-0.2241,1.0323,0.1435
13.7530,-0.2241,1.0323,0.1435
13.7540,-0.2241,1.0323,0.1435
13.7540,-0.2261,1.0308,0.1454
13.7550,-0.2219,1.0230,0.1464
13.7820,-0.2219,1.0230,0.1464
13.7830,-0.2219,1.0230,0.1464
13.7840,-0.2219,1.0230,0.1464
13.7840,-0.2297,1.0223,0.1476
13.7850,-0.2297,1.0223,0.1476
13.8030,-0.2297,1.0223,0.1476
13.8040,-0.2297,1.0223,0.1476
13.8040,-0.2297,1.0223,0.1476
13.8050,-0.2375,1.0306,0.1400
13.8320,-0.2375,1.0306,0.1400
13.8340,-0.2375,1.0306,0.1400
13.8340,-0.2375,1.0306,0.1400
13.8350,-0.2366,1.0313,0.1239
13.8360,-0.2385,1.0220,0.1327
13.8470,-0.2385,1.0220,0.1327
13.8660,-0.2385,1.0220,0.1327
13.8680,-0.2385,1.0220,0.1327
13.8690,-0.2385,1.0220,0.1327
13.8700,-0.2297,1.0145,0.1603
13.8700,-0.2297,1.0145,0.1603
13.8850,-0.2297,1.0145,0.1603
13.8860,-0.2297,1.0145,0.1603
13.8870,-0.2297,1.0145,0.1603
13.8880,-0.2287,1.0186,0.1515
13.9120,-0.2287,1.0186,0.1515
13.9120,-0.2287,1.0186,0.1515
13.9130,-0.2287,1.0186,0.1515
13.9130,-0.2243,1.0225,0.1369
13.9130,-0.2287,1.0257,0.1452
13.9430,-0.2287,1.0257,0.1452
13.9430,-0.2287,1.0257,0.1452
13.9430,-0.2287,1.0257,0.1452
13.9440,-0.2275,1.0323,0.1439
13.9440,-0.2275,1.0323,0.1439
13.9610,-0.2275,1.0323,0.1439
13.9610,-0.2275,1.0323,0.1439
13.9610,-0.2275,1.0323,0.1439
13.9610,-0.2253,1.0389,0.1227
13.9900,-0.2253,1.0389,0.1227
13.9900,-0.2253,1.0389,0.1227
13.9900,-0.2253,1.0389,0.1227
13.9900,-0.2243,1.0281,0.1354
13.9910,-0.2219,1.0198,0.1579
14.0210,-0.2219,1.0198,0.1579
14.0320,-0.2219,1.0198,0.1579
14.0320,-0.2219,1.0198,0.1579
14.0320,-0.2187,1.0228,0.1508
14.0320,-0.2187,1.0228,0.1508
14.0420,-0.2187,1.0228,0.1508
14.0420,-0.2187,1.0228,0.1508
14.0430,-0.2187,1.0228,0.1508
14.0430,-0.2182,1.0269,0.1391
14.0440,-0.2182,1.0269,0.1391
14.0480,-0.2182,1.0269,0.1391
14.0710,-0.2182,1.0269,0.1391
14.0720,-0.2182,1.0269,0.1391
14.0720,-0.2182,1.0269,0.1391
14.0720,-0.2248,1.0328,0.1413
14.0720,-0.2151,1.0274,0.1479
14.1000,-0.2151,1.0274,0.1479
14.1010,-0.2151,1.0274,0.1479
14.1010,-0.2151,1.0274,0.1479
14.1010,-0.2222,1.0167,0.1457
14.1010,-0.2222,1.0167,0.1457
14.1210,-0.2222,1.0167,0.1457
14.1210,-0.2222,1.0167,0.1457
14.1220,-0.2222,1.0167,0.1457
14.1230,-0.2366,1.0164,0.1532
14.1510,-0.2366,1.0164,0.1532
14.1510,-0.2366,1.0164,0.1532
14.1520,-0.2366,1.0164,0.1532
14.1520,-0.2485,1.0338,0.1312
14.1520,-0.2393,1.0352,0.1222
14.1850,-0.2393,1.0352,0.1222
14.1860,-0.2393,1.0352,0.1222
14.1870,-0.2393,1.0352,0.1222
14.1870,-0.2246,1.0208,0.1425
14.1880,-0.2246,1.0208,0.1425
14.2030,-0.2246,1.0208,0.1425
14.2030,-0.2246,1.0208,0.1425
14.2040,-0.2246,1.0208,0.1425
14.2040,-0.2190,1.0118,0.1532
14.2320,-0.2190,1.0118,0.1532
14.2330,-0.2190,1.0118,0.1532
14.2340,-0.2190,1.0118,0.1532
14.2340,-0.2209,1.0132,0.1569
14.2350,-0.2356,1.0372,0.1339
14.2470,-0.2356,1.0372,0.1339
14.2500,-0.2356,1.0372,0.1339
14.2640,-0.2356,1.0372,0.1339
14.2640,-0.2356,1.0372,0.1339
14.2650,-0.2356,1.0372,0.1339
14.2660,-0.2331,1.0406,0.1195
14.2660,-0.2331,1.0406,0.1195
14.2860,-0.2331,1.0406,0.1195
14.2870,-0.2331,1.0406,0.1195
14.2890,-0.2331,1.0406,0.1195
14.2910,-0.2202,1.0189,0.1427
14.3130,-0.2202,1.0189,0.1427
14.3130,-0.2202,1.0189,0.1427
14.3140,-0.2202,1.0189,0.1427
14.3140,-0.2170,1.0191,0.1537
14.3140,-0.2209,1.0235,0.1513
14.3420,-0.2209,1.0235,0.1513
14.3430,-0.2209,1.0235,0.1513
14.3430,-0.2209,1.0235,0.1513
14.3440,-0.2243,1.0294,0.1439
14.3440,-0.2243,1.0294,0.1439
14.3620,-0.2243,1.0294,0.1439
14.3620,-0.2243,1.0294,0.1439
14.3630,-0.2243,1.0294,0.1439
14.3630,-0.2287,1.0445,0.1327
14.3910,-0.2287,1.0445,0.1327
14.3910,-0.2287,1.0445,0.1327
14.3920,-0.2287,1.0445,0.1327
14.3920,-0.2243,1.0286,0.1334
14.3920,-0.2195,1.0184,0.1574
14.3930,-0.2195,1.0184,0.1574
14.4210,-0.2195,1.0184,0.1574
14.4210,-0.2195,1.0184,0.1574
14.4210,-0.2195,1.0184,0.1574
14.4220,-0.2278,1.0223,0.1439
14.4420,-0.2278,1.0223,0.1439
14.4430,-0.2278,1.0223,0.1439
14.4430,-0.2278,1.0223,0.1439
14.4440,-0.2305,1.0233,0.1449
14.4440,-0.2305,1.0233,0.1449
14.4700,-0.2305,1.0233,0.1449
14.4700,-0.2305,1.0233,0.1449
14.4710,-0.2305,1.0233,0.1449
14.4720,-0.2322,1.0267,0.1493
14.4720,-0.2353,1.0250,0.1439
14.4720,-0.2353,1.0250,0.1439
14.5010,-0.2353,1.0250,0.1439
14.5010,-0.2353,1.0250,0.1439
14.5020,-0.2353,1.0250,0.1439
14.5020,-0.2331,1.0079,0.1405
14.5200,-0.2331,1.0079,0.1405
14.5220,-0.2331,1.0079,0.1405
14.5220,-0.2331,1.0079,0.1405
14.5220,-0.2278,1.0247,0.1342
14.5500,-0.2278,1.0247,0.1342
14.5510,-0.2278,1.0247,0.1342
14.5510,-0.2278,1.0247,0.1342
14.5570,-0.2226,1.0519,0.1097
14.5580,-0.2263,1.0418,0.1464
14.5580,-0.2263,1.0418,0.1464
14.5810,-0.2263,1.0418,0.1464
14.5810,-0.2263,1.0418,0.1464
14.5810,-0.2263,1.0418,0.1464
14.5820,-0.2273,1.0140,0.1650
