
time,AccelerometerX,AccelerometerY,AccelerometerZ
0.0220,-0.2234,1.0311,0.1369
0.0230,-0.2234,1.0311,0.1369
0.0230,-0.2234,1.0311,0.1369
0.0230,-0.2305,1.0206,0.1173
0.0240,-0.2290,1.0401,0.0892
0.0520,-0.2290,1.0401,0.0892
0.0530,-0.2290,1.0401,0.0892
0.0530,-0.2290,1.0401,0.0892
0.0530,-0.2336,1.0259,0.1408
0.0530,-0.2336,1.0259,0.1408
0.0730,-0.2336,1.0259,0.1408
0.0730,-0.2336,1.0259,0.1408
0.0740,-0.2336,1.0259,0.1408
0.0740,-0.2427,1.0179,0.1872
0.1040,-0.2427,1.0179,0.1872
0.1040,-0.2427,1.0179,0.1872
0.1040,-0.2427,1.0179,0.1872
0.1040,-0.2341,1.0169,0.1405
0.1040,-0.2312,1.0069,0.1488
0.1230,-0.2312,1.0069,0.1488
0.1230,-0.2312,1.0069,0.1488
0.1230,-0.2312,1.0069,0.1488
0.1240,-0.2500,1.0086,0.1415
0.1240,-0.2500,1.0086,0.1415
0.1530,-0.2500,1.0086,0.1415
0.1530,-0.2500,1.0086,0.1415
0.1530,-0.2500,1.0086,0.1415
0.1530,-0.2561,1.0328,0.1315
0.1830,-0.2561,1.0328,0.1315
0.1830,-0.2561,1.0328,0.1315
0.1840,-0.2561,1.0328,0.1315
0.1840,-0.2407,1.0431,0.1246
0.1840,-0.2261,1.0237,0.1435
0.1890,-0.2261,1.0237,0.1435
0.1900,-0.2261,1.0237,0.1435
0.2030,-0.2261,1.0237,0.1435
0.2030,-0.2261,1.0237,0.1435
0.2030,-0.2261,1.0237,0.1435
0.2040,-0.2256,1.0123,0.1545
0.2040,-0.2256,1.0123,0.1545
0.2320,-0.2256,1.0123,0.1545
0.2320,-0.2256,1.0123,0.1545
0.2330,-0.2256,1.0123,0.1545
0.2330,-0.2371,1.0296,0.1373
0.2630,-0.2371,1.0296,0.1373
0.2630,-0.2371,1.0296,0.1373
0.2630,-0.2371,1.0296,0.1373
0.2640,-0.2341,1.0382,0.1281
0.2640,-0.2217,1.0230,0.1398
0.2830,-0.2217,1.0230,0.1398
0.2840,-0.2217,1.0230,0.1398
0.2840,-0.2217,1.0230,0.1398
0.2840,-0.2217,1.0164,0.1525
0.2840,-0.2217,1.0164,0.1525
0.3130,-0.2217,1.0164,0.1525
0.3130,-0.2217,1.0164,0.1525
0.3130,-0.2217,1.0164,0.1525
0.3140,-0.2356,1.0240,0.1351
0.3440,-0.2356,1.0240,0.1351
0.3440,-0.2356,1.0240,0.1351
0.3440,-0.2356,1.0240,0.1351
0.3440,-0.2380,1.0330,0.1232
0.3450,-0.2275,1.0252,0.1378
0.3620,-0.2275,1.0252,0.1378
0.3630,-0.2275,1.0252,0.1378
0.3640,-0.2275,1.0252,0.1378
0.3640,-0.2236,1.0169,0.1474
0.3640,-0.2236,1.0169,0.1474
0.3850,-0.2236,1.0169,0.1474
0.3890,-0.2236,1.0169,0.1474
0.3940,-0.2236,1.0169,0.1474
0.3940,-0.2236,1.0169,0.1474
0.3950,-0.2236,1.0169,0.1474
0.3950,-0.2363,1.0215,0.1425
0.4230,-0.2363,1.0215,0.1425
0.4240,-0.2363,1.0215,0.1425
0.4240,-0.2363,1.0215,0.1425
0.4250,-0.2503,1.0406,0.1281
0.4250,-0.2490,1.0264,0.1332
0.4430,-0.2490,1.0264,0.1332
0.4440,-0.2490,1.0264,0.1332
0.4440,-0.2490,1.0264,0.1332
0.4440,-0.2419,1.0110,0.1545
0.4440,-0.2419,1.0110,0.1545
0.4730,-0.2419,1.0110,0.1545
0.4740,-0.2419,1.0110,0.1545
0.4740,-0.2419,1.0110,0.1545
0.4740,-0.2375,1.0201,0.1557
0.5030,-0.2375,1.0201,0.1557
0.5030,-0.2375,1.0201,0.1557
0.5030,-0.2375,1.0201,0.1557
0.5040,-0.2383,1.0347,0.1339
0.5040,-0.2375,1.0362,0.1285
0.5230,-0.2375,1.0362,0.1285
0.5240,-0.2375,1.0362,0.1285
0.5240,-0.2375,1.0362,0.1285
0.5250,-0.2283,1.0186,0.1403
0.5260,-0.2283,1.0186,0.1403
0.5530,-0.2283,1.0186,0.1403
0.5530,-0.2283,1.0186,0.1403
0.5530,-0.2283,1.0186,0.1403
0.5540,-0.2285,1.0137,0.1483
0.5860,-0.2285,1.0137,0.1483
0.5860,-0.2285,1.0137,0.1483
0.5860,-0.2285,1.0137,0.1483
0.5860,-0.2341,1.0235,0.1391
0.5870,-0.2397,1.0401,0.1298
0.5890,-0.2397,1.0401,0.1298
0.6030,-0.2397,1.0401,0.1298
0.6040,-0.2397,1.0401,0.1298
0.6040,-0.2397,1.0401,0.1298
0.6040,-0.2395,1.0325,0.1307
0.6050,-0.2395,1.0325,0.1307
0.6330,-0.2395,1.0325,0.1307
0.6340,-0.2395,1.0325,0.1307
0.6340,-0.2395,1.0325,0.1307
0.6340,-0.2395,1.0079,0.1474
0.6630,-0.2395,1.0079,0.1474
0.6630,-0.2395,1.0079,0.1474
0.6640,-0.2395,1.0079,0.1474
0.6640,-0.2449,1.0079,0.1562
0.6640,-0.2495,1.0230,0.1376
0.6840,-0.2495,1.0230,0.1376
0.6840,-0.2495,1.0230,0.1376
0.6850,-0.2495,1.0230,0.1376
0.6850,-0.2468,1.0291,0.1212
0.6850,-0.2468,1.0291,0.1212
0.7140,-0.2468,1.0291,0.1212
0.7150,-0.2468,1.0291,0.1212
0.7150,-0.2468,1.0291,0.1212
0.7160,-0.2312,1.0208,0.1403
0.7430,-0.2312,1.0208,0.1403
0.7430,-0.2312,1.0208,0.1403
0.7440,-0.2312,1.0208,0.1403
0.7440,-0.2300,1.0106,0.1564
0.7440,-0.2407,1.0206,0.1505
0.7640,-0.2407,1.0206,0.1505
0.7640,-0.2407,1.0206,0.1505
0.7640,-0.2407,1.0206,0.1505
0.7650,-0.2495,1.0257,0.1317
0.7650,-0.2495,1.0257,0.1317
0.7860,-0.2495,1.0257,0.1317
0.7880,-0.2495,1.0257,0.1317
0.7950,-0.2495,1.0257,0.1317
0.7960,-0.2495,1.0257,0.1317
0.7960,-0.2495,1.0257,0.1317
0.7960,-0.2375,1.0316,0.1310
0.8240,-0.2375,1.0316,0.1310
0.8240,-0.2375,1.0316,0.1310
0.8240,-0.2375,1.0316,0.1310
0.8240,-0.2285,1.0289,0.1395
0.8250,-0.2292,1.0213,0.1449
0.8440,-0.2292,1.0213,0.1449
0.8440,-0.2292,1.0213,0.1449
0.8450,-0.2292,1.0213,0.1449
0.8450,-0.2363,1.0201,0.1415
0.8450,-0.2363,1.0201,0.1415
0.8740,-0.2363,1.0201,0.1415
0.8740,-0.2363,1.0201,0.1415
0.8740,-0.2363,1.0201,0.1415
0.8750,-0.2454,1.0169,0.1386
0.9040,-0.2454,1.0169,0.1386
0.9040,-0.2454,1.0169,0.1386
0.9040,-0.2454,1.0169,0.1386
0.9040,-0.2463,1.0218,0.1444
0.9050,-0.2456,1.0350,0.1347
0.9240,-0.2456,1.0350,0.1347
0.9250,-0.2456,1.0350,0.1347
0.9250,-0.2456,1.0350,0.1347
0.9250,-0.2393,1.0274,0.1268
0.9260,-0.2393,1.0274,0.1268
0.9550,-0.2393,1.0274,0.1268
0.9550,-0.2393,1.0274,0.1268
0.9560,-0.2393,1.0274,0.1268
0.9560,-0.2322,1.0206,0.1457
0.9870,-0.2322,1.0206,0.1457
0.9870,-0.2322,1.0206,0.1457
0.9880,-0.2322,1.0206,0.1457
0.9880,-0.2361,1.0176,0.1491
0.9880,-0.2417,1.0191,0.1427
0.9890,-0.2417,1.0191,0.1427
0.9890,-0.2417,1.0191,0.1427
1.0050,-0.2417,1.0191,0.1427
1.0060,-0.2417,1.0191,0.1427
1.0060,-0.2417,1.0191,0.1427
1.0070,-0.2375,1.0255,0.1369
1.0070,-0.2375,1.0255,0.1369
1.0360,-0.2375,1.0255,0.1369
1.0360,-0.2375,1.0255,0.1369
1.0370,-0.2375,1.0255,0.1369
1.0370,-0.2341,1.0299,0.1310
1.0660,-0.2341,1.0299,0.1310
1.0670,-0.2341,1.0299,0.1310
1.0810,-0.2341,1.0299,0.1310
1.0810,-0.2349,1.0228,0.1349
1.0820,-0.2312,1.0191,0.1444
1.0840,-0.2312,1.0191,0.1444
1.0860,-0.2312,1.0191,0.1444
1.0860,-0.2312,1.0191,0.1444
1.0860,-0.2309,1.0193,0.1415
1.0870,-0.2309,1.0193,0.1415
1.1160,-0.2309,1.0193,0.1415
1.1160,-0.2309,1.0193,0.1415
1.1170,-0.2309,1.0193,0.1415
1.1170,-0.2361,1.0245,0.1422
1.1450,-0.2361,1.0245,0.1422
1.1460,-0.2361,1.0245,0.1422
1.1460,-0.2361,1.0245,0.1422
1.1460,-0.2383,1.0284,0.1378
1.1460,-0.2361,1.0233,0.1383
1.1650,-0.2361,1.0233,0.1383
1.1660,-0.2361,1.0233,0.1383
1.1660,-0.2361,1.0233,0.1383
1.1660,-0.2356,1.0259,0.1430
1.1660,-0.2356,1.0259,0.1430
1.1880,-0.2356,1.0259,0.1430
1.1880,-0.2356,1.0259,0.1430
1.1970,-0.2356,1.0259,0.1430
1.1970,-0.2356,1.0259,0.1430
1.1970,-0.2356,1.0259,0.1430
1.1980,-0.2331,1.0242,0.1403
1.2250,-0.2331,1.0242,0.1403
1.2250,-0.2331,1.0242,0.1403
1.2260,-0.2331,1.0242,0.1403
1.2260,-0.2229,1.0245,0.1457
1.2260,-0.2231,1.0247,0.1466
1.2470,-0.2231,1.0247,0.1466
1.2470,-0.2231,1.0247,0.1466
1.2480,-0.2231,1.0247,0.1466
1.2480,-0.2305,1.0262,0.1376
1.2490,-0.2305,1.0262,0.1376
1.2770,-0.2305,1.0262,0.1376
1.2780,-0.2305,1.0262,0.1376
1.2780,-0.2305,1.0262,0.1376
1.2780,-0.2314,1.0308,0.1268
1.3070,-0.2314,1.0308,0.1268
1.3070,-0.2314,1.0308,0.1268
1.3070,-0.2314,1.0308,0.1268
1.3080,-0.2258,1.0250,0.1347
1.3080,-0.2258,1.0208,0.1486
1.3270,-0.2258,1.0208,0.1486
1.3270,-0.2258,1.0208,0.1486
1.3280,-0.2258,1.0208,0.1486
1.3280,-0.2287,1.0230,0.1444
1.3290,-0.2287,1.0230,0.1444
1.3570,-0.2287,1.0230,0.1444
1.3570,-0.2287,1.0230,0.1444
1.3570,-0.2287,1.0230,0.1444
1.3570,-0.2368,1.0267,0.1388
1.3900,-0.2368,1.0267,0.1388
1.3900,-0.2368,1.0267,0.1388
1.3900,-0.2368,1.0267,0.1388
1.3910,-0.2439,1.0286,0.1349
1.3910,-0.2415,1.0369,0.1303
1.3910,-0.2415,1.0369,0.1303
1.3910,-0.2415,1.0369,0.1303
1.4070,-0.2415,1.0369,0.1303
1.4070,-0.2415,1.0369,0.1303
1.4080,-0.2415,1.0369,0.1303
1.4080,-0.2317,1.0372,0.1290
1.4080,-0.2317,1.0372,0.1290
1.4360,-0.2317,1.0372,0.1290
1.4370,-0.2317,1.0372,0.1290
1.4370,-0.2317,1.0372,0.1290
1.4380,-0.2251,1.0213,0.1422
1.4660,-0.2251,1.0213,0.1422
1.4660,-0.2251,1.0213,0.1422
1.4660,-0.2251,1.0213,0.1422
1.4670,-0.2285,1.0049,0.1537
1.4670,-0.2368,1.0174,0.1452
1.4870,-0.2368,1.0174,0.1452
1.4870,-0.2368,1.0174,0.1452
1.4870,-0.2368,1.0174,0.1452
1.4880,-0.2388,1.0401,0.1276
1.4880,-0.2388,1.0401,0.1276
1.5170,-0.2388,1.0401,0.1276
1.5180,-0.2388,1.0401,0.1276
1.5180,-0.2388,1.0401,0.1276
1.5190,-0.2322,1.0391,0.1239
1.5460,-0.2322,1.0391,0.1239
1.5460,-0.2322,1.0391,0.1239
1.5460,-0.2322,1.0391,0.1239
1.5460,-0.2263,1.0203,0.1488
1.5460,-0.2319,1.0128,0.1520
1.5660,-0.2319,1.0128,0.1520
1.5670,-0.2319,1.0128,0.1520
1.5670,-0.2319,1.0128,0.1520
1.5670,-0.2395,1.0237,0.1427
1.5670,-0.2395,1.0237,0.1427
1.5900,-0.2395,1.0237,0.1427
1.5970,-0.2395,1.0237,0.1427
1.5970,-0.2395,1.0237,0.1427
1.5970,-0.2395,1.0237,0.1427
1.6200,-0.2339,1.0413,0.1320
1.6250,-0.2339,1.0413,0.1320
1.6250,-0.2339,1.0413,0.1320
1.6260,-0.2339,1.0413,0.1320
1.6260,-0.2200,1.0404,0.1393
1.6260,-0.2222,1.0225,0.1518
1.6460,-0.2222,1.0225,0.1518
1.6460,-0.2222,1.0225,0.1518
1.6460,-0.2222,1.0225,0.1518
1.6470,-0.2368,1.0157,0.1449
1.6470,-0.2368,1.0157,0.1449
1.6760,-0.2368,1.0157,0.1449
1.6770,-0.2368,1.0157,0.1449
1.6780,-0.2368,1.0157,0.1449
1.6790,-0.2481,1.0211,0.1337
1.7060,-0.2481,1.0211,0.1337
1.7070,-0.2481,1.0211,0.1337
1.7080,-0.2481,1.0211,0.1337
1.7090,-0.2446,1.0240,0.1386
1.7100,-0.2375,1.0233,0.1444
1.7260,-0.2375,1.0233,0.1444
1.7290,-0.2375,1.0233,0.1444
1.7300,-0.2375,1.0233,0.1444
1.7310,-0.2334,1.0169,0.1393
1.7320,-0.2334,1.0169,0.1393
1.7570,-0.2334,1.0169,0.1393
1.7590,-0.2334,1.0169,0.1393
1.7600,-0.2334,1.0169,0.1393
1.7610,-0.2324,1.0220,0.1420
1.7890,-0.2324,1.0220,0.1420
1.7890,-0.2324,1.0220,0.1420
1.7900,-0.2324,1.0220,0.1420
1.7910,-0.2283,1.0230,0.1386
1.7910,-0.2329,1.0184,0.1452
1.7920,-0.2329,1.0184,0.1452
1.8100,-0.2329,1.0184,0.1452
1.8100,-0.2329,1.0184,0.1452
1.8110,-0.2329,1.0184,0.1452
1.8120,-0.2427,1.0267,0.1430
1.8120,-0.2427,1.0267,0.1430
1.8380,-0.2427,1.0267,0.1430
1.8390,-0.2427,1.0267,0.1430
1.8400,-0.2427,1.0267,0.1430
1.8410,-0.2375,1.0272,0.1320
1.8690,-0.2375,1.0272,0.1320
1.8700,-0.2375,1.0272,0.1320
1.8710,-0.2375,1.0272,0.1320
1.8720,-0.2358,1.0213,0.1393
1.8760,-0.2319,1.0311,0.1464
1.8890,-0.2319,1.0311,0.1464
1.8900,-0.2319,1.0311,0.1464
1.8900,-0.2319,1.0311,0.1464
1.8910,-0.2256,1.0418,0.1381
1.8920,-0.2256,1.0418,0.1381
1.9200,-0.2256,1.0418,0.1381
1.9220,-0.2256,1.0418,0.1381
1.9230,-0.2256,1.0418,0.1381
1.9240,-0.2236,1.0206,0.1337
1.9480,-0.2236,1.0206,0.1337
1.9490,-0.2236,1.0206,0.1337
1.9490,-0.2236,1.0206,0.1337
1.9500,-0.2331,1.0076,0.1518
1.9500,-0.2380,1.0172,0.1466
1.9680,-0.2380,1.0172,0.1466
1.9690,-0.2380,1.0172,0.1466
1.9700,-0.2380,1.0172,0.1466
1.9710,-0.2427,1.0301,0.1364
1.9720,-0.2427,1.0301,0.1364
1.9920,-0.2427,1.0301,0.1364
1.9970,-0.2427,1.0301,0.1364
1.9980,-0.2427,1.0301,0.1364
1.9990,-0.2427,1.0301,0.1364
2.0000,-0.2402,1.0264,0.1361
2.0280,-0.2402,1.0264,0.1361
2.0280,-0.2402,1.0264,0.1361
2.0290,-0.2402,1.0264,0.1361
2.0290,-0.2419,1.0189,0.1432
2.0290,-0.2427,1.0213,0.1461
2.0530,-0.2427,1.0213,0.1461
2.0560,-0.2427,1.0213,0.1461
2.0570,-0.2427,1.0213,0.1461
2.0590,-0.2341,1.0252,0.1422
2.0600,-0.2341,1.0252,0.1422
2.0790,-0.2341,1.0252,0.1422
2.0790,-0.2341,1.0252,0.1422
2.0800,-0.2341,1.0252,0.1422
2.0800,-0.2234,1.0228,0.1393
2.1060,-0.2234,1.0228,0.1393
2.1060,-0.2234,1.0228,0.1393
2.1070,-0.2234,1.0228,0.1393
2.1070,-0.2214,1.0172,0.1474
2.1080,-0.2219,1.0203,0.1540
2.1300,-0.2219,1.0203,0.1540
2.1310,-0.2219,1.0203,0.1540
2.1320,-0.2219,1.0203,0.1540
2.1340,-0.2204,1.0230,0.1439
2.1370,-0.2204,1.0230,0.1439
2.1580,-0.2204,1.0230,0.1439
2.1590,-0.2204,1.0230,0.1439
2.1600,-0.2204,1.0230,0.1439
2.1820,-0.2236,1.0264,0.1329
2.1900,-0.2236,1.0264,0.1329
2.1910,-0.2236,1.0264,0.1329
2.1920,-0.2236,1.0264,0.1329
2.1930,-0.2361,1.0211,0.1491
2.1940,-0.2439,1.0262,0.1459
2.1940,-0.2439,1.0262,0.1459
2.2060,-0.2439,1.0262,0.1459
2.2070,-0.2439,1.0262,0.1459
2.2080,-0.2439,1.0262,0.1459
2.2080,-0.2400,1.0328,0.1310
2.2080,-0.2400,1.0328,0.1310
2.2380,-0.2400,1.0328,0.1310
2.2390,-0.2400,1.0328,0.1310
2.2400,-0.2400,1.0328,0.1310
2.2410,-0.2341,1.0230,0.1437
2.2670,-0.2341,1.0230,0.1437
2.2690,-0.2341,1.0230,0.1437
2.2700,-0.2341,1.0230,0.1437
2.2710,-0.2300,1.0128,0.1527
2.2720,-0.2317,1.0193,0.1442
2.2890,-0.2317,1.0193,0.1442
2.2900,-0.2317,1.0193,0.1442
2.2910,-0.2317,1.0193,0.1442
2.2920,-0.2258,1.0374,0.1361
2.2930,-0.2258,1.0374,0.1361
2.3200,-0.2258,1.0374,0.1361
2.3210,-0.2258,1.0374,0.1361
2.3220,-0.2258,1.0374,0.1361
2.3220,-0.2197,1.0365,0.1439
2.3460,-0.2197,1.0365,0.1439
2.3470,-0.2197,1.0365,0.1439
2.3480,-0.2197,1.0365,0.1439
2.3480,-0.2190,1.0247,0.1501
2.3490,-0.2187,1.0206,0.1386
2.3680,-0.2187,1.0206,0.1386
2.3690,-0.2187,1.0206,0.1386
2.3700,-0.2187,1.0206,0.1386
2.3700,-0.2195,1.0311,0.1366
2.3710,-0.2195,1.0311,0.1366
2.3900,-0.2195,1.0311,0.1366
2.3980,-0.2195,1.0311,0.1366
2.3990,-0.2195,1.0311,0.1366
2.4000,-0.2195,1.0311,0.1366
2.4000,-0.2217,1.0406,0.1364
2.4270,-0.2217,1.0406,0.1364
2.4270,-0.2217,1.0406,0.1364
2.4280,-0.2217,1.0406,0.1364
2.4290,-0.2202,1.0269,0.1469
2.4290,-0.2224,1.0167,0.1493
2.4480,-0.2224,1.0167,0.1493
2.4490,-0.2224,1.0167,0.1493
2.4490,-0.2224,1.0167,0.1493
2.4500,-0.2314,1.0245,0.1383
2.4510,-0.2314,1.0245,0.1383
2.4800,-0.2314,1.0245,0.1383
2.4810,-0.2314,1.0245,0.1383
2.4820,-0.2314,1.0245,0.1383
2.4840,-0.2375,1.0286,0.1388
2.5070,-0.2375,1.0286,0.1388
2.5080,-0.2375,1.0286,0.1388
2.5090,-0.2375,1.0286,0.1388
2.5090,-0.2375,1.0233,0.1471
2.5100,-0.2312,1.0215,0.1501
2.5280,-0.2312,1.0215,0.1501
2.5290,-0.2312,1.0215,0.1501
2.5290,-0.2312,1.0215,0.1501
2.5300,-0.2268,1.0272,0.1454
2.5300,-0.2268,1.0272,0.1454
2.5580,-0.2268,1.0272,0.1454
2.5590,-0.2268,1.0272,0.1454
2.5590,-0.2268,1.0272,0.1454
2.5600,-0.2214,1.0262,0.1325
2.5900,-0.2214,1.0262,0.1325
2.5910,-0.2214,1.0262,0.1325
2.5920,-0.2214,1.0262,0.1325
2.5920,-0.2197,1.0220,0.1415
2.5930,-0.2209,1.0281,0.1525
2.5930,-0.2209,1.0281,0.1525
2.6080,-0.2209,1.0281,0.1525
2.6090,-0.2209,1.0281,0.1525
2.6100,-0.2209,1.0281,0.1525
2.6100,-0.2202,1.0347,0.1432
2.6110,-0.2202,1.0347,0.1432
2.6390,-0.2202,1.0347,0.1432
2.6400,-0.2202,1.0347,0.1432
2.6410,-0.2202,1.0347,0.1432
2.6420,-0.2214,1.0257,0.1420
2.6690,-0.2214,1.0257,0.1420
2.6700,-0.2214,1.0257,0.1420
2.6710,-0.2214,1.0257,0.1420
2.6750,-0.2334,1.0223,0.1552
2.6770,-0.2395,1.0296,0.1493
2.6900,-0.2395,1.0296,0.1493
2.6900,-0.2395,1.0296,0.1493
2.6910,-0.2395,1.0296,0.1493
2.6920,-0.2307,1.0316,0.1405
2.6920,-0.2307,1.0316,0.1405
2.7220,-0.2307,1.0316,0.1405
2.7230,-0.2307,1.0316,0.1405
2.7500,-0.2307,1.0316,0.1405
2.7540,-0.2222,1.0277,0.1442
2.7550,-0.2222,1.0277,0.1442
2.7550,-0.2222,1.0277,0.1442
2.7560,-0.2222,1.0277,0.1442
2.7560,-0.2165,1.0279,0.1437
2.7570,-0.2119,1.0323,0.1501
2.7660,-0.2119,1.0323,0.1501
2.7670,-0.2119,1.0323,0.1501
2.7670,-0.2119,1.0323,0.1501
2.7680,-0.2138,1.0259,0.1417
2.7680,-0.2138,1.0259,0.1417
2.7900,-0.2138,1.0259,0.1417
2.7970,-0.2138,1.0259,0.1417
2.7980,-0.2138,1.0259,0.1417
2.7980,-0.2138,1.0259,0.1417
2.7990,-0.2278,1.0164,0.1427
2.8270,-0.2278,1.0164,0.1427
2.8270,-0.2278,1.0164,0.1427
2.8280,-0.2278,1.0164,0.1427
2.8280,-0.2375,1.0228,0.1391
2.8290,-0.2344,1.0323,0.1327
2.8470,-0.2344,1.0323,0.1327
2.8480,-0.2344,1.0323,0.1327
2.8490,-0.2344,1.0323,0.1327
2.8490,-0.2319,1.0255,0.1373
2.8500,-0.2319,1.0255,0.1373
2.8780,-0.2319,1.0255,0.1373
2.8790,-0.2319,1.0255,0.1373
2.8790,-0.2319,1.0255,0.1373
2.8800,-0.2309,1.0167,0.1432
2.9090,-0.2309,1.0167,0.1432
2.9100,-0.2309,1.0167,0.1432
2.9100,-0.2309,1.0167,0.1432
2.9110,-0.2341,1.0201,0.1417
2.9110,-0.2302,1.0321,0.1400
2.9290,-0.2302,1.0321,0.1400
2.9300,-0.2302,1.0321,0.1400
2.9300,-0.2302,1.0321,0.1400
2.9310,-0.2222,1.0328,0.1457
2.9310,-0.2222,1.0328,0.1457
2.9590,-0.2222,1.0328,0.1457
2.9590,-0.2222,1.0328,0.1457
2.9610,-0.2222,1.0328,0.1457
2.9620,-0.2214,1.0184,0.1513
2.9910,-0.2214,1.0184,0.1513
2.9920,-0.2214,1.0184,0.1513
2.9920,-0.2214,1.0184,0.1513
2.9930,-0.2283,1.0162,0.1474
2.9930,-0.2356,1.0321,0.1288
2.9930,-0.2356,1.0321,0.1288
3.0090,-0.2356,1.0321,0.1288
3.0100,-0.2356,1.0321,0.1288
3.0110,-0.2356,1.0321,0.1288
3.0120,-0.2307,1.0313,0.1403
3.0130,-0.2307,1.0313,0.1403
3.0390,-0.2307,1.0313,0.1403
3.0400,-0.2307,1.0313,0.1403
3.0400,-0.2307,1.0313,0.1403
3.0410,-0.2229,1.0247,0.1596
3.0690,-0.2229,1.0247,0.1596
3.0700,-0.2229,1.0247,0.1596
3.0710,-0.2229,1.0247,0.1596
3.0730,-0.2209,1.0269,0.1515
3.0740,-0.2231,1.0228,0.1329
3.0890,-0.2231,1.0228,0.1329
3.0900,-0.2231,1.0228,0.1329
3.0910,-0.2231,1.0228,0.1329
3.0920,-0.2251,1.0233,0.1488
3.0930,-0.2251,1.0233,0.1488
3.1200,-0.2251,1.0233,0.1488
3.1210,-0.2251,1.0233,0.1488
3.1210,-0.2251,1.0233,0.1488
3.1220,-0.2297,1.0220,0.1496
3.1490,-0.2297,1.0220,0.1496
3.1510,-0.2297,1.0220,0.1496
3.1520,-0.2297,1.0220,0.1496
3.1530,-0.2341,1.0228,0.1403
3.1550,-0.2336,1.0237,0.1351
3.1700,-0.2336,1.0237,0.1351
3.1710,-0.2336,1.0237,0.1351
3.1720,-0.2336,1.0237,0.1351
3.1730,-0.2292,1.0201,0.1373
3.1770,-0.2292,1.0201,0.1373
3.1920,-0.2292,1.0201,0.1373
3.2000,-0.2292,1.0201,0.1373
3.2000,-0.2292,1.0201,0.1373
3.2010,-0.2292,1.0201,0.1373
3.2030,-0.2202,1.0350,0.1505
3.2290,-0.2202,1.0350,0.1505
3.2300,-0.2202,1.0350,0.1505
3.2320,-0.2202,1.0350,0.1505
3.2330,-0.2143,1.0257,0.1435
3.2340,-0.2200,1.0174,0.1373
3.2490,-0.2200,1.0174,0.1373
3.2500,-0.2200,1.0174,0.1373
3.2510,-0.2200,1.0174,0.1373
3.2520,-0.2239,1.0252,0.1400
3.2520,-0.2239,1.0252,0.1400
3.2790,-0.2239,1.0252,0.1400
3.2980,-0.2239,1.0252,0.1400
3.2990,-0.2239,1.0252,0.1400
3.2990,-0.2234,1.0362,0.1400
3.3090,-0.2234,1.0362,0.1400
3.3100,-0.2234,1.0362,0.1400
3.3100,-0.2234,1.0362,0.1400
3.3110,-0.2243,1.0311,0.1422
3.3120,-0.2280,1.0176,0.1501
3.3290,-0.2280,1.0176,0.1501
3.3300,-0.2280,1.0176,0.1501
3.3310,-0.2280,1.0176,0.1501
3.3320,-0.2371,1.0193,0.1493
3.3340,-0.2371,1.0193,0.1493
3.3580,-0.2371,1.0193,0.1493
3.3590,-0.2371,1.0193,0.1493
3.3600,-0.2371,1.0193,0.1493
3.3600,-0.2407,1.0325,0.1354
3.3910,-0.2407,1.0325,0.1354
3.3910,-0.2407,1.0325,0.1354
3.3920,-0.2407,1.0325,0.1354
3.3930,-0.2356,1.0365,0.1354
3.3930,-0.2305,1.0218,0.1530
3.3940,-0.2305,1.0218,0.1530
3.4140,-0.2305,1.0218,0.1530
3.4150,-0.2305,1.0218,0.1530
3.4150,-0.2305,1.0218,0.1530
3.4170,-0.2297,1.0125,0.1530
3.4170,-0.2297,1.0125,0.1530
3.4390,-0.2297,1.0125,0.1530
3.4400,-0.2297,1.0125,0.1530
3.4400,-0.2297,1.0125,0.1530
3.4410,-0.2278,1.0252,0.1444
3.4720,-0.2278,1.0252,0.1444
3.4730,-0.2278,1.0252,0.1444
3.4730,-0.2278,1.0252,0.1444
3.4740,-0.2204,1.0355,0.1408
3.4750,-0.2175,1.0279,0.1437
3.4960,-0.2175,1.0279,0.1437
3.4970,-0.2175,1.0279,0.1437
3.4980,-0.2175,1.0279,0.1437
3.5010,-0.2258,1.0172,0.1447
3.5020,-0.2258,1.0172,0.1447
3.5240,-0.2258,1.0172,0.1447
3.5250,-0.2258,1.0172,0.1447
3.5260,-0.2258,1.0172,0.1447
3.5260,-0.2319,1.0225,0.1413
3.5470,-0.2319,1.0225,0.1413
3.5480,-0.2319,1.0225,0.1413
3.5480,-0.2319,1.0225,0.1413
3.5480,-0.2295,1.0306,0.1369
3.5490,-0.2236,1.0355,0.1427
3.5670,-0.2236,1.0355,0.1427
3.5680,-0.2236,1.0355,0.1427
3.5680,-0.2236,1.0355,0.1427
3.5680,-0.2265,1.0269,0.1457
3.5680,-0.2265,1.0269,0.1457
3.5870,-0.2265,1.0269,0.1457
3.5880,-0.2265,1.0269,0.1457
3.5980,-0.2265,1.0269,0.1457
3.5980,-0.2265,1.0269,0.1457
3.5980,-0.2265,1.0269,0.1457
3.5980,-0.2322,1.0128,0.1444
3.6270,-0.2322,1.0128,0.1444
3.6270,-0.2322,1.0128,0.1444
3.6280,-0.2322,1.0128,0.1444
3.6280,-0.2339,1.0220,0.1417
3.6280,-0.2312,1.0372,0.1425
3.6490,-0.2312,1.0372,0.1425
3.6490,-0.2312,1.0372,0.1425
3.6490,-0.2312,1.0372,0.1425
3.6500,-0.2231,1.0318,0.1369
3.6510,-0.2231,1.0318,0.1369
3.6790,-0.2231,1.0318,0.1369
3.6790,-0.2231,1.0318,0.1369
3.6800,-0.2231,1.0318,0.1369
3.6800,-0.2219,1.0191,0.1420
3.7090,-0.2219,1.0191,0.1420
3.7100,-0.2219,1.0191,0.1420
3.7100,-0.2219,1.0191,0.1420
3.7100,-0.2246,1.0211,0.1510
3.7110,-0.2261,1.0333,0.1376
3.7310,-0.2261,1.0333,0.1376
3.7340,-0.2261,1.0333,0.1376
3.7350,-0.2261,1.0333,0.1376
3.7360,-0.2302,1.0277,0.1371
3.7370,-0.2302,1.0277,0.1371
3.7590,-0.2302,1.0277,0.1371
3.7600,-0.2302,1.0277,0.1371
3.7600,-0.2302,1.0277,0.1371
3.7610,-0.2283,1.0245,0.1503
3.7910,-0.2283,1.0245,0.1503
3.7920,-0.2283,1.0245,0.1503
3.7920,-0.2283,1.0245,0.1503
3.7930,-0.2202,1.0294,0.1505
3.8010,-0.2241,1.0269,0.1427
3.8020,-0.2241,1.0269,0.1427
3.8100,-0.2241,1.0269,0.1427
3.8100,-0.2241,1.0269,0.1427
3.8110,-0.2241,1.0269,0.1427
3.8120,-0.2322,1.0242,0.1417
3.8350,-0.2322,1.0242,0.1417
3.8400,-0.2322,1.0242,0.1417
3.8410,-0.2322,1.0242,0.1417
3.8420,-0.2322,1.0242,0.1417
3.8420,-0.2371,1.0237,0.1420
3.8670,-0.2371,1.0237,0.1420
3.8670,-0.2371,1.0237,0.1420
3.8680,-0.2371,1.0237,0.1420
3.8680,-0.2395,1.0213,0.1420
3.8680,-0.2368,1.0257,0.1376
3.8880,-0.2368,1.0257,0.1376
3.8880,-0.2368,1.0257,0.1376
3.8890,-0.2368,1.0257,0.1376
3.8890,-0.2344,1.0286,0.1383
3.8900,-0.2344,1.0286,0.1383
3.9190,-0.2344,1.0286,0.1383
3.9190,-0.2344,1.0286,0.1383
3.9200,-0.2344,1.0286,0.1383
3.9200,-0.2322,1.0259,0.1471
3.9480,-0.2322,1.0259,0.1471
3.9490,-0.2322,1.0259,0.1471
3.9490,-0.2322,1.0259,0.1471
3.9500,-0.2275,1.0245,0.1486
3.9500,-0.2270,1.0321,0.1344
3.9690,-0.2270,1.0321,0.1344
3.9690,-0.2270,1.0321,0.1344
3.9700,-0.2270,1.0321,0.1344
3.9710,-0.2265,1.0274,0.1290
3.9720,-0.2265,1.0274,0.1290
3.9900,-0.2265,1.0274,0.1290
4.0000,-0.2265,1.0274,0.1290
4.0010,-0.2265,1.0274,0.1290
4.0020,-0.2265,1.0274,0.1290
4.0020,-0.2280,1.0176,0.1503
4.0290,-0.2280,1.0176,0.1503
4.0290,-0.2280,1.0176,0.1503
4.0300,-0.2280,1.0176,0.1503
4.0310,-0.2351,1.0215,0.1530
4.0310,-0.2378,1.0316,0.1420
4.0570,-0.2378,1.0316,0.1420
4.0580,-0.2378,1.0316,0.1420
4.0620,-0.2378,1.0316,0.1420
4.0630,-0.2300,1.0242,0.1388
4.0650,-0.2300,1.0242,0.1388
4.0780,-0.2300,1.0242,0.1388
4.0790,-0.2300,1.0242,0.1388
4.0790,-0.2300,1.0242,0.1388
4.0820,-0.2263,1.0174,0.1508
4.1110,-0.2263,1.0174,0.1508
4.1110,-0.2263,1.0174,0.1508
4.1120,-0.2263,1.0174,0.1508
4.1120,-0.2339,1.0206,0.1457
4.1120,-0.2412,1.0321,0.1369
4.1310,-0.2412,1.0321,0.1369
4.1310,-0.2412,1.0321,0.1369
4.1320,-0.2412,1.0321,0.1369
4.1350,-0.2400,1.0237,0.1425
4.1350,-0.2400,1.0237,0.1425
4.1610,-0.2400,1.0237,0.1425
4.1610,-0.2400,1.0237,0.1425
4.1610,-0.2400,1.0237,0.1425
4.1620,-0.2285,1.0150,0.1483
4.1930,-0.2285,1.0150,0.1483
4.1940,-0.2285,1.0150,0.1483
4.1940,-0.2285,1.0150,0.1483
4.1940,-0.2275,1.0176,0.1537
4.1950,-0.2339,1.0262,0.1422
4.1960,-0.2339,1.0262,0.1422
4.2130,-0.2339,1.0262,0.1422
4.2130,-0.2339,1.0262,0.1422
4.2130,-0.2339,1.0262,0.1422
4.2160,-0.2353,1.0228,0.1354
4.2160,-0.2353,1.0228,0.1354
4.2410,-0.2353,1.0228,0.1354
4.2420,-0.2353,1.0228,0.1354
4.2420,-0.2353,1.0228,0.1354
4.2420,-0.2351,1.0191,0.1435
4.2730,-0.2351,1.0191,0.1435
4.2730,-0.2351,1.0191,0.1435
4.2730,-0.2351,1.0191,0.1435
4.2730,-0.2327,1.0267,0.1444
4.2740,-0.2312,1.0338,0.1427
4.2920,-0.2312,1.0338,0.1427
4.2930,-0.2312,1.0338,0.1427
4.2930,-0.2312,1.0338,0.1427
4.2940,-0.2207,1.0269,0.1486
4.2950,-0.2207,1.0269,0.1486
4.3200,-0.2207,1.0269,0.1486
4.3210,-0.2207,1.0269,0.1486
4.3210,-0.2207,1.0269,0.1486
4.3220,-0.2134,1.0162,0.1532
4.3530,-0.2134,1.0162,0.1532
4.3530,-0.2134,1.0162,0.1532
4.3530,-0.2134,1.0162,0.1532
4.3540,-0.2270,1.0184,0.1515
4.3540,-0.2432,1.0357,0.1305
4.3740,-0.2432,1.0357,0.1305
4.3740,-0.2432,1.0357,0.1305
4.3740,-0.2432,1.0357,0.1305
4.3760,-0.2441,1.0365,0.1283
4.3890,-0.2441,1.0365,0.1283
4.3910,-0.2441,1.0365,0.1283
4.4000,-0.2441,1.0365,0.1283
4.4010,-0.2441,1.0365,0.1283
4.4010,-0.2441,1.0365,0.1283
4.4010,-0.2331,1.0299,0.1520
4.4310,-0.2331,1.0299,0.1520
4.4320,-0.2331,1.0299,0.1520
4.4320,-0.2331,1.0299,0.1520
4.4320,-0.2258,1.0198,0.1501
4.4320,-0.2222,1.0176,0.1442
4.4520,-0.2222,1.0176,0.1442
4.4530,-0.2222,1.0176,0.1442
4.4530,-0.2222,1.0176,0.1442
4.4560,-0.2212,1.0267,0.1430
4.4560,-0.2212,1.0267,0.1430
4.4810,-0.2212,1.0267,0.1430
4.4810,-0.2212,1.0267,0.1430
4.4810,-0.2212,1.0267,0.1430
4.4810,-0.2195,1.0328,0.1349
4.5120,-0.2195,1.0328,0.1349
4.5120,-0.2195,1.0328,0.1349
4.5120,-0.2195,1.0328,0.1349
4.5120,-0.2173,1.0328,0.1354
4.5130,-0.2212,1.0255,0.1417
4.5320,-0.2212,1.0255,0.1417
4.5320,-0.2212,1.0255,0.1417
4.5320,-0.2212,1.0255,0.1417
4.5350,-0.2202,1.0225,0.1410
4.5360,-0.2202,1.0225,0.1410
4.5620,-0.2202,1.0225,0.1410
4.5620,-0.2202,1.0225,0.1410
4.5620,-0.2202,1.0225,0.1410
4.5630,-0.2239,1.0240,0.1510
4.5920,-0.2239,1.0240,0.1510
4.5920,-0.2239,1.0240,0.1510
4.5920,-0.2239,1.0240,0.1510
4.5930,-0.2305,1.0284,0.1483
4.5930,-0.2329,1.0289,0.1437
4.5940,-0.2329,1.0289,0.1437
4.6130,-0.2329,1.0289,0.1437
4.6130,-0.2329,1.0289,0.1437
4.6140,-0.2329,1.0289,0.1437
4.6160,-0.2300,1.0235,0.1447
4.6160,-0.2300,1.0235,0.1447
4.6420,-0.2300,1.0235,0.1447
4.6420,-0.2300,1.0235,0.1447
4.6430,-0.2300,1.0235,0.1447
4.6430,-0.2305,1.0277,0.1491
4.6740,-0.2305,1.0277,0.1491
4.6740,-0.2305,1.0277,0.1491
4.6750,-0.2305,1.0277,0.1491
4.6750,-0.2329,1.0225,0.1471
4.6760,-0.2371,1.0259,0.1461
4.6940,-0.2371,1.0259,0.1461
4.6940,-0.2371,1.0259,0.1461
4.6950,-0.2371,1.0259,0.1461
4.6950,-0.2322,1.0347,0.1447
4.6960,-0.2322,1.0347,0.1447
4.7220,-0.2322,1.0347,0.1447
4.7230,-0.2322,1.0347,0.1447
4.7230,-0.2322,1.0347,0.1447
4.7240,-0.2265,1.0294,0.1400
4.7530,-0.2265,1.0294,0.1400
4.7540,-0.2265,1.0294,0.1400
4.7540,-0.2265,1.0294,0.1400
4.7540,-0.2212,1.0208,0.1439
4.7540,-0.2187,1.0259,0.1403
4.7740,-0.2187,1.0259,0.1403
4.7750,-0.2187,1.0259,0.1403
4.7750,-0.2187,1.0259,0.1403
4.7790,-0.2195,1.0284,0.1464
4.7790,-0.2195,1.0284,0.1464
4.7940,-0.2195,1.0284,0.1464
4.8030,-0.2195,1.0284,0.1464
4.8030,-0.2195,1.0284,0.1464
4.8030,-0.2195,1.0284,0.1464
4.8040,-0.2241,1.0264,0.1486
4.8330,-0.2241,1.0264,0.1486
4.8330,-0.2241,1.0264,0.1486
4.8340,-0.2241,1.0264,0.1486
4.8340,-0.2222,1.0277,0.1393
4.8340,-0.2253,1.0291,0.1351
4.8540,-0.2253,1.0291,0.1351
4.8550,-0.2253,1.0291,0.1351
4.8550,-0.2253,1.0291,0.1351
4.8580,-0.2261,1.0233,0.1337
4.8590,-0.2261,1.0233,0.1337
4.8840,-0.2261,1.0233,0.1337
4.8850,-0.2261,1.0233,0.1337
4.8850,-0.2261,1.0233,0.1337
4.8860,-0.2192,1.0274,0.1430
4.9130,-0.2192,1.0274,0.1430
4.9140,-0.2192,1.0274,0.1430
4.9140,-0.2192,1.0274,0.1430
4.9140,-0.2148,1.0264,0.1493
4.9150,-0.2209,1.0255,0.1403
4.9340,-0.2209,1.0255,0.1403
4.9340,-0.2209,1.0255,0.1403
4.9350,-0.2209,1.0255,0.1403
4.9470,-0.2217,1.0250,0.1420
4.9470,-0.2217,1.0250,0.1420
4.9620,-0.2217,1.0250,0.1420
4.9620,-0.2217,1.0250,0.1420
4.9620,-0.2217,1.0250,0.1420
4.9650,-0.2182,1.0281,0.1408
4.9920,-0.2182,1.0281,0.1408
4.9950,-0.2182,1.0281,0.1408
4.9950,-0.2182,1.0281,0.1408
4.9950,-0.2182,1.0281,0.1408
4.9960,-0.2119,1.0306,0.1415
4.9960,-0.2143,1.0255,0.1427
5.0120,-0.2143,1.0255,0.1427
5.0120,-0.2143,1.0255,0.1427
5.0130,-0.2143,1.0255,0.1427
5.0160,-0.2224,1.0279,0.1457
5.0160,-0.2224,1.0279,0.1457
5.0420,-0.2224,1.0279,0.1457
5.0420,-0.2224,1.0279,0.1457
5.0420,-0.2224,1.0279,0.1457
5.0440,-0.2209,1.0306,0.1452
5.0730,-0.2209,1.0306,0.1452
5.0730,-0.2209,1.0306,0.1452
5.0740,-0.2209,1.0306,0.1452
5.0740,-0.2212,1.0228,0.1503
5.0750,-0.2182,1.0235,0.1469
5.0900,-0.2182,1.0235,0.1469
5.0900,-0.2182,1.0235,0.1469
5.0900,-0.2182,1.0235,0.1469
5.0910,-0.2226,1.0259,0.1405
5.0910,-0.2226,1.0259,0.1405
5.1200,-0.2226,1.0259,0.1405
5.1210,-0.2226,1.0259,0.1405
5.1210,-0.2226,1.0259,0.1405
5.1220,-0.2331,1.0252,0.1469
5.1500,-0.2331,1.0252,0.1469
5.1500,-0.2331,1.0252,0.1469
5.1510,-0.2331,1.0252,0.1469
5.1510,-0.2378,1.0206,0.1581
5.1510,-0.2366,1.0218,0.1537
5.1700,-0.2366,1.0218,0.1537
5.1700,-0.2366,1.0218,0.1537
5.1700,-0.2366,1.0218,0.1537
5.1710,-0.2349,1.0257,0.1488
5.1710,-0.2349,1.0257,0.1488
5.1880,-0.2349,1.0257,0.1488
5.2000,-0.2349,1.0257,0.1488
5.2000,-0.2349,1.0257,0.1488
5.2000,-0.2349,1.0257,0.1488
5.2010,-0.2275,1.0318,0.1366
5.2300,-0.2275,1.0318,0.1366
5.2300,-0.2275,1.0318,0.1366
5.2300,-0.2275,1.0318,0.1366
5.2310,-0.2219,1.0333,0.1361
5.2310,-0.2197,1.0259,0.1427
5.2500,-0.2197,1.0259,0.1427
5.2500,-0.2197,1.0259,0.1427
5.2500,-0.2197,1.0259,0.1427
5.2510,-0.2202,1.0247,0.1496
5.2510,-0.2202,1.0247,0.1496
5.2810,-0.2202,1.0247,0.1496
5.2810,-0.2202,1.0247,0.1496
5.2810,-0.2202,1.0247,0.1496
5.2820,-0.2285,1.0321,0.1466
5.3120,-0.2285,1.0321,0.1466
5.3120,-0.2285,1.0321,0.1466
5.3120,-0.2285,1.0321,0.1466
5.3130,-0.2307,1.0308,0.1479
5.3130,-0.2261,1.0269,0.1508
5.3320,-0.2261,1.0269,0.1508
5.3320,-0.2261,1.0269,0.1508
5.3330,-0.2261,1.0269,0.1508
5.3330,-0.2239,1.0247,0.1393
5.3340,-0.2239,1.0247,0.1393
5.3620,-0.2239,1.0247,0.1393
5.3630,-0.2239,1.0247,0.1393
5.3630,-0.2239,1.0247,0.1393
5.3630,-0.2295,1.0230,0.1361
5.3910,-0.2295,1.0230,0.1361
5.3920,-0.2295,1.0230,0.1361
5.3920,-0.2295,1.0230,0.1361
5.3920,-0.2295,1.0230,0.1361
5.3930,-0.2292,1.0277,0.1457
5.3940,-0.2248,1.0264,0.1430
5.4110,-0.2248,1.0264,0.1430
5.4120,-0.2248,1.0264,0.1430
5.4120,-0.2248,1.0264,0.1430
5.4130,-0.2263,1.0191,0.1432
5.4140,-0.2263,1.0191,0.1432
5.4400,-0.2263,1.0191,0.1432
5.4400,-0.2263,1.0191,0.1432
5.4410,-0.2263,1.0191,0.1432
5.4410,-0.2246,1.0228,0.1442
5.4710,-0.2246,1.0228,0.1442
5.4710,-0.2246,1.0228,0.1442
5.4710,-0.2246,1.0228,0.1442
5.4720,-0.2204,1.0311,0.1452
5.4720,-0.2224,1.0333,0.1476
5.4920,-0.2224,1.0333,0.1476
5.4920,-0.2224,1.0333,0.1476
5.5060,-0.2224,1.0333,0.1476
5.5070,-0.2300,1.0220,0.1417
5.5070,-0.2300,1.0220,0.1417
5.5210,-0.2300,1.0220,0.1417
5.5210,-0.2300,1.0220,0.1417
5.5220,-0.2300,1.0220,0.1417
5.5220,-0.2361,1.0172,0.1378
5.5500,-0.2361,1.0172,0.1378
5.5500,-0.2361,1.0172,0.1378
5.5500,-0.2361,1.0172,0.1378
5.5500,-0.2449,1.0264,0.1415
5.5510,-0.2427,1.0362,0.1413
5.5710,-0.2427,1.0362,0.1413
5.5740,-0.2427,1.0362,0.1413
5.5750,-0.2427,1.0362,0.1413
5.5760,-0.2309,1.0228,0.1491
5.5760,-0.2309,1.0228,0.1491
5.5890,-0.2309,1.0228,0.1491
5.6010,-0.2309,1.0228,0.1491
5.6020,-0.2309,1.0228,0.1491
5.6020,-0.2309,1.0228,0.1491
5.6020,-0.2197,1.0145,0.1488
5.6310,-0.2197,1.0145,0.1488
5.6310,-0.2197,1.0145,0.1488
5.6310,-0.2197,1.0145,0.1488
5.6310,-0.2222,1.0247,0.1444
5.6320,-0.2248,1.0272,0.1393
5.6530,-0.2248,1.0272,0.1393
5.6540,-0.2248,1.0272,0.1393
5.6540,-0.2248,1.0272,0.1393
5.6540,-0.2209,1.0252,0.1439
5.6540,-0.2209,1.0252,0.1439
5.6810,-0.2209,1.0252,0.1439
5.6810,-0.2209,1.0252,0.1439
5.6810,-0.2209,1.0252,0.1439
5.6820,-0.2126,1.0262,0.1523
5.7120,-0.2126,1.0262,0.1523
5.7130,-0.2126,1.0262,0.1523
5.7140,-0.2126,1.0262,0.1523
5.7150,-0.2187,1.0306,0.1454
5.7160,-0.2297,1.0325,0.1366
5.7320,-0.2297,1.0325,0.1366
5.7330,-0.2297,1.0325,0.1366
5.7340,-0.2297,1.0325,0.1366
5.7350,-0.2375,1.0228,0.1386
5.7350,-0.2375,1.0228,0.1386
5.7620,-0.2375,1.0228,0.1386
5.7630,-0.2375,1.0228,0.1386
5.7630,-0.2375,1.0228,0.1386
5.7630,-0.2371,1.0211,0.1503
5.7870,-0.2371,1.0211,0.1503
5.7910,-0.2371,1.0211,0.1503
5.7910,-0.2371,1.0211,0.1503
5.7920,-0.2371,1.0211,0.1503
5.7940,-0.2371,1.0211,0.1503
5.7950,-0.2353,1.0284,0.1554
5.7960,-0.2334,1.0272,0.1410
5.8120,-0.2334,1.0272,0.1410
5.8120,-0.2334,1.0272,0.1410
5.8130,-0.2334,1.0272,0.1410
5.8190,-0.2248,1.0257,0.1395
5.8200,-0.2248,1.0257,0.1395
5.8410,-0.2248,1.0257,0.1395
5.8420,-0.2248,1.0257,0.1395
5.8430,-0.2248,1.0257,0.1395
5.8430,-0.2143,1.0257,0.1435
5.8730,-0.2143,1.0257,0.1435
5.8740,-0.2143,1.0257,0.1435
5.8750,-0.2143,1.0257,0.1435
5.8760,-0.2175,1.0279,0.1469
5.8770,-0.2207,1.0323,0.1457
5.8920,-0.2207,1.0323,0.1457
5.8950,-0.2207,1.0323,0.1457
5.9000,-0.2207,1.0323,0.1457
5.9030,-0.2197,1.0242,0.1447
5.9030,-0.2197,1.0242,0.1447
5.9220,-0.2197,1.0242,0.1447
5.9230,-0.2197,1.0242,0.1447
5.9240,-0.2197,1.0242,0.1447
5.9250,-0.2207,1.0215,0.1503
5.9520,-0.2207,1.0215,0.1503
5.9550,-0.2207,1.0215,0.1503
5.9560,-0.2207,1.0215,0.1503
5.9560,-0.2253,1.0338,0.1444
5.9570,-0.2246,1.0340,0.1312
5.9730,-0.2246,1.0340,0.1312
5.9740,-0.2246,1.0340,0.1312
5.9750,-0.2246,1.0340,0.1312
5.9790,-0.2251,1.0193,0.1366
5.9800,-0.2251,1.0193,0.1366
5.9940,-0.2251,1.0193,0.1366
6.0030,-0.2251,1.0193,0.1366
6.0040,-0.2251,1.0193,0.1366
6.0040,-0.2251,1.0193,0.1366
6.0050,-0.2302,1.0176,0.1545
6.0330,-0.2302,1.0176,0.1545
6.0340,-0.2302,1.0176,0.1545
6.0350,-0.2302,1.0176,0.1545
6.0380,-0.2314,1.0296,0.1530
6.0390,-0.2295,1.0281,0.1386
6.0720,-0.2295,1.0281,0.1386
6.0720,-0.2295,1.0281,0.1386
6.0720,-0.2295,1.0281,0.1386
6.0720,-0.2200,1.0218,0.1408
6.0730,-0.2200,1.0218,0.1408
6.0810,-0.2200,1.0218,0.1408
6.0820,-0.2200,1.0218,0.1408
6.0820,-0.2200,1.0218,0.1408
6.0820,-0.2112,1.0235,0.1508
6.1110,-0.2112,1.0235,0.1508
6.1110,-0.2112,1.0235,0.1508
6.1120,-0.2112,1.0235,0.1508
6.1120,-0.2180,1.0316,0.1498
6.1120,-0.2319,1.0323,0.1378
6.1320,-0.2319,1.0323,0.1378
6.1320,-0.2319,1.0323,0.1378
6.1320,-0.2319,1.0323,0.1378
6.1330,-0.2368,1.0230,0.1359
6.1330,-0.2368,1.0230,0.1359
6.1610,-0.2368,1.0230,0.1359
6.1620,-0.2368,1.0230,0.1359
6.1620,-0.2368,1.0230,0.1359
6.1620,-0.2251,1.0279,0.1425
6.1900,-0.2251,1.0279,0.1425
6.1930,-0.2251,1.0279,0.1425
6.1940,-0.2251,1.0279,0.1425
6.1950,-0.2251,1.0279,0.1425
6.1950,-0.2185,1.0299,0.1435
6.1960,-0.2231,1.0277,0.1505
6.2130,-0.2231,1.0277,0.1505
6.2140,-0.2231,1.0277,0.1505
6.2150,-0.2231,1.0277,0.1505
6.2160,-0.2300,1.0169,0.1537
6.2170,-0.2300,1.0169,0.1537
6.2420,-0.2300,1.0169,0.1537
6.2430,-0.2300,1.0169,0.1537
6.2440,-0.2300,1.0169,0.1537
6.2450,-0.2353,1.0172,0.1461
6.2760,-0.2353,1.0172,0.1461
6.2770,-0.2353,1.0172,0.1461
6.2770,-0.2353,1.0172,0.1461
6.2790,-0.2334,1.0350,0.1383
6.2800,-0.2258,1.0379,0.1369
6.2920,-0.2258,1.0379,0.1369
6.2940,-0.2258,1.0379,0.1369
6.2950,-0.2258,1.0379,0.1369
6.2960,-0.2224,1.0257,0.1442
6.2970,-0.2224,1.0257,0.1442
6.3230,-0.2224,1.0257,0.1442
6.3240,-0.2224,1.0257,0.1442
6.3240,-0.2224,1.0257,0.1442
6.3250,-0.2214,1.0186,0.1493
6.3530,-0.2214,1.0186,0.1493
6.3540,-0.2214,1.0186,0.1493
6.3550,-0.2214,1.0186,0.1493
6.3560,-0.2241,1.0245,0.1464
6.3560,-0.2265,1.0299,0.1391
6.3730,-0.2265,1.0299,0.1391
6.3740,-0.2265,1.0299,0.1391
6.3750,-0.2265,1.0299,0.1391
6.3770,-0.2287,1.0255,0.1349
6.3770,-0.2287,1.0255,0.1349
6.3910,-0.2287,1.0255,0.1349
6.4060,-0.2287,1.0255,0.1349
6.4070,-0.2287,1.0255,0.1349
6.4080,-0.2287,1.0255,0.1349
6.4090,-0.2327,1.0228,0.1400
6.4330,-0.2327,1.0228,0.1400
6.4330,-0.2327,1.0228,0.1400
6.4340,-0.2327,1.0228,0.1400
6.4350,-0.2385,1.0281,0.1461
6.4360,-0.2417,1.0355,0.1364
6.4540,-0.2417,1.0355,0.1364
6.4550,-0.2417,1.0355,0.1364
6.4560,-0.2417,1.0355,0.1364
6.4570,-0.2292,1.0237,0.1278
6.4570,-0.2292,1.0237,0.1278
6.4820,-0.2292,1.0237,0.1278
6.4830,-0.2292,1.0237,0.1278
6.4840,-0.2292,1.0237,0.1278
6.4850,-0.2197,1.0130,0.1442
6.5170,-0.2197,1.0130,0.1442
6.5180,-0.2197,1.0130,0.1442
6.5220,-0.2197,1.0130,0.1442
6.5230,-0.2268,1.0125,0.1662
6.5230,-0.2305,1.0198,0.1452
6.5360,-0.2305,1.0198,0.1452
6.5370,-0.2305,1.0198,0.1452
6.5380,-0.2305,1.0198,0.1452
6.5390,-0.2273,1.0203,0.1413
6.5400,-0.2273,1.0203,0.1413
6.5630,-0.2273,1.0203,0.1413
6.5640,-0.2273,1.0203,0.1413
6.5650,-0.2273,1.0203,0.1413
6.5660,-0.2226,1.0220,0.1564
6.5910,-0.2226,1.0220,0.1564
6.5930,-0.2226,1.0220,0.1564
6.5940,-0.2226,1.0220,0.1564
6.5950,-0.2226,1.0220,0.1564
6.5960,-0.2212,1.0357,0.1454
6.6180,-0.2239,1.0296,0.1356
6.6190,-0.2239,1.0296,0.1356
6.6190,-0.2239,1.0296,0.1356
6.6200,-0.2239,1.0296,0.1356
6.6200,-0.2322,1.0142,0.1483
6.6210,-0.2322,1.0142,0.1483
6.6420,-0.2322,1.0142,0.1483
6.6430,-0.2322,1.0142,0.1483
6.6430,-0.2322,1.0142,0.1483
6.6440,-0.2388,1.0196,0.1540
6.6710,-0.2388,1.0196,0.1540
6.6710,-0.2388,1.0196,0.1540
6.6720,-0.2388,1.0196,0.1540
6.6720,-0.2437,1.0281,0.1508
6.6720,-0.2400,1.0257,0.1400
6.6910,-0.2400,1.0257,0.1400
6.6920,-0.2400,1.0257,0.1400
6.6930,-0.2400,1.0257,0.1400
6.6930,-0.2317,1.0262,0.1481
6.6930,-0.2317,1.0262,0.1481
6.7250,-0.2317,1.0262,0.1481
6.7260,-0.2317,1.0262,0.1481
6.7260,-0.2317,1.0262,0.1481
6.7270,-0.2207,1.0284,0.1549
6.7560,-0.2207,1.0284,0.1549
6.7560,-0.2207,1.0284,0.1549
6.7570,-0.2207,1.0284,0.1549
6.7580,-0.2182,1.0274,0.1444
6.7580,-0.2222,1.0191,0.1466
6.7730,-0.2222,1.0191,0.1466
6.7740,-0.2222,1.0191,0.1466
6.7750,-0.2222,1.0191,0.1466
6.7760,-0.2231,1.0198,0.1457
6.7770,-0.2231,1.0198,0.1457
6.7910,-0.2231,1.0198,0.1457
6.8040,-0.2231,1.0198,0.1457
6.8060,-0.2231,1.0198,0.1457
6.8070,-0.2231,1.0198,0.1457
6.8080,-0.2168,1.0303,0.1415
6.8350,-0.2168,1.0303,0.1415
6.8370,-0.2168,1.0303,0.1415
6.8390,-0.2168,1.0303,0.1415
6.8400,-0.2200,1.0289,0.1398
6.8410,-0.2258,1.0230,0.1420
6.8560,-0.2258,1.0230,0.1420
6.8580,-0.2258,1.0230,0.1420
6.8600,-0.2258,1.0230,0.1420
6.8600,-0.2263,1.0272,0.1513
6.8610,-0.2263,1.0272,0.1513
6.8850,-0.2263,1.0272,0.1513
6.8860,-0.2263,1.0272,0.1513
6.8870,-0.2263,1.0272,0.1513
6.8880,-0.2305,1.0289,0.1435
6.9150,-0.2305,1.0289,0.1435
6.9160,-0.2305,1.0289,0.1435
6.9170,-0.2305,1.0289,0.1435
6.9180,-0.2302,1.0306,0.1342
6.9190,-0.2231,1.0286,0.1430
6.9350,-0.2231,1.0286,0.1430
6.9360,-0.2231,1.0286,0.1430
6.9360,-0.2231,1.0286,0.1430
6.9370,-0.2182,1.0311,0.1525
6.9370,-0.2182,1.0311,0.1525
6.9650,-0.2182,1.0311,0.1525
6.9660,-0.2182,1.0311,0.1525
6.9660,-0.2182,1.0311,0.1525
6.9690,-0.2195,1.0289,0.1449
6.9900,-0.2195,1.0289,0.1449
6.9930,-0.2195,1.0289,0.1449
6.9940,-0.2195,1.0289,0.1449
6.9950,-0.2195,1.0289,0.1449
6.9960,-0.2297,1.0230,0.1381
6.9970,-0.2339,1.0203,0.1400
7.0150,-0.2339,1.0203,0.1400
7.0160,-0.2339,1.0203,0.1400
7.0160,-0.2339,1.0203,0.1400
7.0170,-0.2329,1.0196,0.1513
7.0180,-0.2329,1.0196,0.1513
7.0440,-0.2329,1.0196,0.1513
7.0440,-0.2329,1.0196,0.1513
7.0450,-0.2329,1.0196,0.1513
7.0460,-0.2285,1.0257,0.1442
7.0740,-0.2285,1.0257,0.1442
7.0750,-0.2285,1.0257,0.1442
7.0750,-0.2285,1.0257,0.1442
7.0790,-0.2297,1.0252,0.1327
7.0790,-0.2329,1.0218,0.1422
7.0940,-0.2329,1.0218,0.1422
7.0950,-0.2329,1.0218,0.1422
7.0960,-0.2329,1.0218,0.1422
7.0970,-0.2265,1.0184,0.1520
7.0970,-0.2265,1.0184,0.1520
7.1240,-0.2265,1.0184,0.1520
7.1250,-0.2265,1.0184,0.1520
7.1260,-0.2265,1.0184,0.1520
7.1270,-0.2219,1.0211,0.1589
7.1560,-0.2219,1.0211,0.1589
7.1580,-0.2219,1.0211,0.1589
7.1590,-0.2219,1.0211,0.1589
7.1610,-0.2275,1.0313,0.1493
7.1850,-0.2297,1.0335,0.1398
7.1860,-0.2297,1.0335,0.1398
7.1860,-0.2297,1.0335,0.1398
7.1870,-0.2297,1.0335,0.1398
7.1870,-0.2324,1.0193,0.1476
7.1880,-0.2324,1.0193,0.1476
7.1880,-0.2324,1.0193,0.1476
7.1890,-0.2324,1.0193,0.1476
7.2010,-0.2324,1.0193,0.1476
7.2020,-0.2324,1.0193,0.1476
7.2020,-0.2324,1.0193,0.1476
7.2030,-0.2361,1.0193,0.1523
7.2320,-0.2361,1.0193,0.1523
7.2320,-0.2361,1.0193,0.1523
7.2320,-0.2361,1.0193,0.1523
7.2320,-0.2366,1.0347,0.1415
7.2330,-0.2380,1.0338,0.1430
7.2550,-0.2380,1.0338,0.1430
7.2570,-0.2380,1.0338,0.1430
7.2580,-0.2380,1.0338,0.1430
7.2600,-0.2346,1.0191,0.1510
7.2600,-0.2346,1.0191,0.1510
7.2830,-0.2346,1.0191,0.1510
7.2840,-0.2346,1.0191,0.1510
7.2840,-0.2346,1.0191,0.1510
7.2840,-0.2363,1.0154,0.1518
7.3170,-0.2363,1.0154,0.1518
7.3180,-0.2363,1.0154,0.1518
7.3200,-0.2363,1.0154,0.1518
7.3210,-0.2405,1.0176,0.1420
7.3220,-0.2344,1.0250,0.1376
7.3370,-0.2344,1.0250,0.1376
7.3390,-0.2344,1.0250,0.1376
7.3400,-0.2344,1.0250,0.1376
7.3410,-0.2243,1.0311,0.1437
7.3420,-0.2243,1.0311,0.1437
7.3640,-0.2243,1.0311,0.1437
7.3640,-0.2243,1.0311,0.1437
7.3650,-0.2243,1.0311,0.1437
7.3660,-0.2178,1.0237,0.1432
7.3860,-0.2178,1.0237,0.1432
7.3900,-0.2178,1.0237,0.1432
7.3920,-0.2178,1.0237,0.1432
7.3930,-0.2178,1.0237,0.1432
7.3940,-0.2178,1.0237,0.1432
7.3960,-0.2131,1.0252,0.1469
7.3970,-0.2160,1.0267,0.1444
7.4150,-0.2160,1.0267,0.1444
7.4170,-0.2160,1.0267,0.1444
7.4180,-0.2160,1.0267,0.1444
7.4190,-0.2222,1.0223,0.1437
7.4200,-0.2222,1.0223,0.1437
7.4440,-0.2222,1.0223,0.1437
7.4450,-0.2222,1.0223,0.1437
7.4450,-0.2222,1.0223,0.1437
7.4460,-0.2265,1.0274,0.1503
7.4750,-0.2265,1.0274,0.1503
7.4760,-0.2265,1.0274,0.1503
7.4770,-0.2265,1.0274,0.1503
7.4780,-0.2314,1.0340,0.1408
7.4790,-0.2366,1.0299,0.1337
7.4970,-0.2366,1.0299,0.1337
7.4980,-0.2366,1.0299,0.1337
7.4980,-0.2366,1.0299,0.1337
7.4990,-0.2366,1.0228,0.1464
7.5000,-0.2366,1.0228,0.1464
7.5240,-0.2366,1.0228,0.1464
7.5250,-0.2366,1.0228,0.1464
7.5260,-0.2366,1.0228,0.1464
7.5260,-0.2305,1.0294,0.1559
7.5540,-0.2305,1.0294,0.1559
7.5550,-0.2305,1.0294,0.1559
7.5560,-0.2305,1.0294,0.1559
7.5560,-0.2241,1.0306,0.1444
7.5570,-0.2251,1.0291,0.1442
7.5740,-0.2251,1.0291,0.1442
7.5750,-0.2251,1.0291,0.1442
7.5760,-0.2251,1.0291,0.1442
7.5770,-0.2261,1.0247,0.1452
7.5770,-0.2261,1.0247,0.1452
7.5900,-0.2261,1.0247,0.1452
7.6050,-0.2261,1.0247,0.1452
7.6060,-0.2261,1.0247,0.1452
7.6070,-0.2261,1.0247,0.1452
7.6080,-0.2273,1.0257,0.1457
7.6360,-0.2273,1.0257,0.1457
7.6370,-0.2273,1.0257,0.1457
7.6380,-0.2273,1.0257,0.1457
7.6390,-0.2275,1.0291,0.1332
7.6400,-0.2224,1.0269,0.1408
7.6550,-0.2224,1.0269,0.1408
7.6560,-0.2224,1.0269,0.1408
7.6570,-0.2224,1.0269,0.1408
7.6590,-0.2185,1.0235,0.1535
7.6600,-0.2185,1.0235,0.1535
7.6850,-0.2185,1.0235,0.1535
7.6860,-0.2185,1.0235,0.1535
7.6870,-0.2185,1.0235,0.1535
7.6870,-0.2265,1.0203,0.1505
7.7150,-0.2265,1.0203,0.1505
7.7390,-0.2265,1.0203,0.1505
7.7390,-0.2265,1.0203,0.1505
7.7390,-0.2388,1.0262,0.1378
7.7400,-0.2366,1.0277,0.1371
7.7400,-0.2366,1.0277,0.1371
7.7400,-0.2366,1.0277,0.1371
7.7400,-0.2366,1.0277,0.1371
7.7410,-0.2290,1.0208,0.1486
7.7410,-0.2290,1.0208,0.1486
7.7630,-0.2290,1.0208,0.1486
7.7640,-0.2290,1.0208,0.1486
7.7640,-0.2290,1.0208,0.1486
7.7640,-0.2317,1.0193,0.1483
7.7890,-0.2317,1.0193,0.1483
7.7900,-0.2317,1.0193,0.1483
7.7960,-0.2317,1.0193,0.1483
7.7970,-0.2317,1.0193,0.1483
7.7980,-0.2317,1.0193,0.1483
7.7980,-0.2368,1.0198,0.1400
7.7990,-0.2317,1.0242,0.1405
7.8160,-0.2317,1.0242,0.1405
7.8160,-0.2317,1.0242,0.1405
7.8170,-0.2317,1.0242,0.1405
7.8170,-0.2283,1.0269,0.1466
7.8180,-0.2283,1.0269,0.1466
7.8440,-0.2283,1.0269,0.1466
7.8450,-0.2283,1.0269,0.1466
7.8460,-0.2283,1.0269,0.1466
7.8470,-0.2275,1.0220,0.1498
7.8750,-0.2275,1.0220,0.1498
7.8760,-0.2275,1.0220,0.1498
7.8770,-0.2275,1.0220,0.1498
7.8780,-0.2280,1.0267,0.1464
7.8780,-0.2241,1.0330,0.1415
7.9000,-0.2241,1.0330,0.1415
7.9010,-0.2241,1.0330,0.1415
7.9020,-0.2241,1.0330,0.1415
7.9020,-0.2229,1.0269,0.1471
7.9030,-0.2229,1.0269,0.1471
7.9260,-0.2229,1.0269,0.1471
7.9260,-0.2229,1.0269,0.1471
7.9270,-0.2229,1.0269,0.1471
7.9280,-0.2231,1.0235,0.1479
7.9540,-0.2231,1.0235,0.1479
7.9550,-0.2231,1.0235,0.1479
7.9570,-0.2231,1.0235,0.1479
7.9580,-0.2297,1.0213,0.1496
7.9600,-0.2361,1.0213,0.1400
7.9770,-0.2361,1.0213,0.1400
7.9770,-0.2361,1.0213,0.1400
7.9780,-0.2361,1.0213,0.1400
7.9790,-0.2358,1.0311,0.1364
7.9790,-0.2358,1.0311,0.1364
7.9910,-0.2358,1.0311,0.1364
8.0050,-0.2358,1.0311,0.1364
8.0060,-0.2358,1.0311,0.1364
8.0060,-0.2358,1.0311,0.1364
8.0070,-0.2265,1.0318,0.1488
8.0350,-0.2265,1.0318,0.1488
8.0360,-0.2265,1.0318,0.1488
8.0370,-0.2265,1.0318,0.1488
8.0370,-0.2175,1.0230,0.1457
8.0380,-0.2243,1.0230,0.1493
8.0550,-0.2243,1.0230,0.1493
8.0560,-0.2243,1.0230,0.1493
8.0570,-0.2243,1.0230,0.1493
8.0590,-0.2339,1.0281,0.1398
8.0600,-0.2339,1.0281,0.1398
8.0850,-0.2339,1.0281,0.1398
8.0860,-0.2339,1.0281,0.1398
8.0870,-0.2339,1.0281,0.1398
8.0880,-0.2339,1.0330,0.1305
8.1180,-0.2339,1.0330,0.1305
8.1200,-0.2339,1.0330,0.1305
8.1210,-0.2339,1.0330,0.1305
8.1210,-0.2285,1.0250,0.1405
8.1220,-0.2263,1.0189,0.1459
8.1360,-0.2263,1.0189,0.1459
8.1360,-0.2263,1.0189,0.1459
8.1370,-0.2263,1.0189,0.1459
8.1380,-0.2226,1.0225,0.1461
8.1390,-0.2226,1.0225,0.1461
8.1650,-0.2226,1.0225,0.1461
8.1660,-0.2226,1.0225,0.1461
8.1670,-0.2226,1.0225,0.1461
8.1670,-0.2200,1.0272,0.1459
8.1870,-0.2200,1.0272,0.1459
8.1900,-0.2200,1.0272,0.1459
8.1950,-0.2200,1.0272,0.1459
8.1970,-0.2200,1.0272,0.1459
8.1970,-0.2200,1.0272,0.1459
8.1990,-0.2231,1.0269,0.1501
8.2000,-0.2297,1.0303,0.1483
8.2160,-0.2297,1.0303,0.1483
8.2170,-0.2297,1.0303,0.1483
8.2180,-0.2297,1.0303,0.1483
8.2190,-0.2307,1.0286,0.1427
8.2190,-0.2307,1.0286,0.1427
8.2470,-0.2307,1.0286,0.1427
8.2480,-0.2307,1.0286,0.1427
8.2680,-0.2307,1.0286,0.1427
8.2690,-0.2285,1.0313,0.1430
8.2740,-0.2285,1.0313,0.1430
8.2740,-0.2285,1.0313,0.1430
8.2750,-0.2285,1.0313,0.1430
8.2750,-0.2202,1.0245,0.1476
8.2760,-0.2190,1.0259,0.1498
8.2940,-0.2190,1.0259,0.1498
8.2950,-0.2190,1.0259,0.1498
8.2950,-0.2190,1.0259,0.1498
8.2980,-0.2295,1.0289,0.1476
8.2990,-0.2295,1.0289,0.1476
8.3250,-0.2295,1.0289,0.1476
8.3250,-0.2295,1.0289,0.1476
8.3260,-0.2295,1.0289,0.1476
8.3260,-0.2371,1.0250,0.1444
8.3550,-0.2371,1.0250,0.1444
8.3560,-0.2371,1.0250,0.1444
8.3560,-0.2371,1.0250,0.1444
8.3570,-0.2363,1.0206,0.1378
8.3570,-0.2351,1.0213,0.1452
8.3790,-0.2351,1.0213,0.1452
8.3800,-0.2351,1.0213,0.1452
8.3800,-0.2351,1.0213,0.1452
8.3810,-0.2251,1.0223,0.1449
8.3820,-0.2251,1.0223,0.1449
8.3870,-0.2251,1.0223,0.1449
8.3900,-0.2251,1.0223,0.1449
8.4040,-0.2251,1.0223,0.1449
8.4050,-0.2251,1.0223,0.1449
8.4060,-0.2251,1.0223,0.1449
8.4060,-0.2192,1.0240,0.1378
8.4360,-0.2192,1.0240,0.1378
8.4370,-0.2192,1.0240,0.1378
8.4390,-0.2192,1.0240,0.1378
8.4400,-0.2261,1.0191,0.1432
8.4400,-0.2322,1.0233,0.1471
8.4550,-0.2322,1.0233,0.1471
8.4560,-0.2322,1.0233,0.1471
8.4570,-0.2322,1.0233,0.1471
8.4570,-0.2280,1.0291,0.1373
8.4580,-0.2280,1.0291,0.1373
8.4860,-0.2280,1.0291,0.1373
8.4860,-0.2280,1.0291,0.1373
8.4870,-0.2280,1.0291,0.1373
8.4870,-0.2185,1.0262,0.1425
8.5170,-0.2185,1.0262,0.1425
8.5180,-0.2185,1.0262,0.1425
8.5190,-0.2185,1.0262,0.1425
8.5210,-0.2168,1.0218,0.1569
8.5220,-0.2248,1.0250,0.1535
8.5370,-0.2248,1.0250,0.1535
8.5390,-0.2248,1.0250,0.1535
8.5410,-0.2248,1.0250,0.1535
8.5420,-0.2361,1.0279,0.1420
8.5430,-0.2361,1.0279,0.1420
8.5660,-0.2361,1.0279,0.1420
8.5670,-0.2361,1.0279,0.1420
8.5680,-0.2361,1.0279,0.1420
8.5680,-0.2393,1.0272,0.1452
8.5890,-0.2393,1.0272,0.1452
8.5900,-0.2393,1.0272,0.1452
8.5970,-0.2393,1.0272,0.1452
8.5980,-0.2393,1.0272,0.1452
8.5990,-0.2393,1.0272,0.1452
8.5990,-0.2371,1.0277,0.1461
8.6000,-0.2334,1.0277,0.1476
8.6170,-0.2334,1.0277,0.1476
8.6180,-0.2334,1.0277,0.1476
8.6180,-0.2334,1.0277,0.1476
8.6190,-0.2331,1.0186,0.1518
8.6200,-0.2331,1.0186,0.1518
8.6480,-0.2331,1.0186,0.1518
8.6490,-0.2331,1.0186,0.1518
8.6500,-0.2331,1.0186,0.1518
8.6500,-0.2314,1.0150,0.1540
8.6790,-0.2314,1.0150,0.1540
8.6800,-0.2314,1.0150,0.1540
8.6800,-0.2314,1.0150,0.1540
8.6810,-0.2256,1.0259,0.1420
8.6810,-0.2202,1.0333,0.1371
8.6990,-0.2202,1.0333,0.1371
8.6990,-0.2202,1.0333,0.1371
8.7000,-0.2202,1.0333,0.1371
8.7010,-0.2200,1.0264,0.1408
8.7020,-0.2200,1.0264,0.1408
8.7260,-0.2200,1.0264,0.1408
8.7270,-0.2200,1.0264,0.1408
8.7270,-0.2200,1.0264,0.1408
8.7280,-0.2192,1.0208,0.1523
8.7560,-0.2192,1.0208,0.1523
8.7560,-0.2192,1.0208,0.1523
8.7570,-0.2192,1.0208,0.1523
8.7580,-0.2231,1.0235,0.1508
8.7580,-0.2268,1.0289,0.1398
8.7760,-0.2268,1.0289,0.1398
8.7760,-0.2268,1.0289,0.1398
8.7770,-0.2268,1.0289,0.1398
8.7780,-0.2263,1.0264,0.1415
8.7790,-0.2263,1.0264,0.1415
8.7950,-0.2263,1.0264,0.1415
8.8050,-0.2263,1.0264,0.1415
8.8060,-0.2263,1.0264,0.1415
8.8070,-0.2263,1.0264,0.1415
8.8070,-0.2353,1.0189,0.1283
8.8360,-0.2353,1.0189,0.1283
8.8370,-0.2353,1.0189,0.1283
8.8370,-0.2353,1.0189,0.1283
8.8380,-0.2471,1.0259,0.1329
8.8390,-0.2368,1.0186,0.1613
8.8570,-0.2368,1.0186,0.1613
8.8570,-0.2368,1.0186,0.1613
8.8580,-0.2368,1.0186,0.1613
8.8590,-0.2329,1.0198,0.1584
8.8590,-0.2329,1.0198,0.1584
8.8860,-0.2329,1.0198,0.1584
8.8870,-0.2329,1.0198,0.1584
8.8880,-0.2329,1.0198,0.1584
8.8890,-0.2317,1.0201,0.1562
8.9160,-0.2317,1.0201,0.1562
8.9180,-0.2317,1.0201,0.1562
8.9180,-0.2317,1.0201,0.1562
8.9190,-0.2327,1.0269,0.1457
8.9200,-0.2273,1.0330,0.1246
8.9400,-0.2273,1.0330,0.1246
8.9410,-0.2273,1.0330,0.1246
8.9430,-0.2273,1.0330,0.1246
8.9440,-0.2243,1.0338,0.1202
8.9450,-0.2243,1.0338,0.1202
8.9680,-0.2243,1.0338,0.1202
8.9690,-0.2243,1.0338,0.1202
8.9700,-0.2243,1.0338,0.1202
8.9710,-0.2234,1.0325,0.1518
8.9930,-0.2234,1.0325,0.1518
8.9970,-0.2234,1.0325,0.1518
8.9980,-0.2234,1.0325,0.1518
8.9990,-0.2234,1.0325,0.1518
9.0000,-0.2207,1.0176,0.1752
9.0010,-0.2336,1.0169,0.1501
9.0170,-0.2336,1.0169,0.1501
9.0180,-0.2336,1.0169,0.1501
9.0190,-0.2336,1.0169,0.1501
9.0190,-0.2358,1.0299,0.1405
9.0200,-0.2358,1.0299,0.1405
9.0470,-0.2358,1.0299,0.1405
9.0490,-0.2358,1.0299,0.1405
9.0490,-0.2358,1.0299,0.1405
9.0500,-0.2283,1.0347,0.1474
9.0800,-0.2283,1.0347,0.1474
9.0810,-0.2283,1.0347,0.1474
9.0820,-0.2283,1.0347,0.1474
9.0830,-0.2256,1.0247,0.1329
9.0840,-0.2302,1.0206,0.1278
9.0990,-0.2302,1.0206,0.1278
9.1000,-0.2302,1.0206,0.1278
9.1010,-0.2302,1.0206,0.1278
9.1010,-0.2422,1.0306,0.1447
9.1020,-0.2422,1.0306,0.1447
9.1270,-0.2422,1.0306,0.1447
9.1290,-0.2422,1.0306,0.1447
9.1300,-0.2422,1.0306,0.1447
9.1310,-0.2410,1.0316,0.1459
9.1560,-0.2410,1.0316,0.1459
9.1570,-0.2410,1.0316,0.1459
9.1580,-0.2410,1.0316,0.1459
9.1590,-0.2314,1.0245,0.1393
9.1600,-0.2148,1.0169,0.1361
9.1800,-0.2148,1.0169,0.1361
9.1810,-0.2148,1.0169,0.1361
9.1820,-0.2148,1.0169,0.1361
9.1830,-0.2129,1.0130,0.1535
9.1830,-0.2129,1.0130,0.1535
9.1920,-0.2129,1.0130,0.1535
9.1920,-0.2129,1.0130,0.1535
9.2060,-0.2129,1.0130,0.1535
9.2070,-0.2129,1.0130,0.1535
9.2080,-0.2129,1.0130,0.1535
9.2090,-0.2121,1.0132,0.1564
9.2370,-0.2121,1.0132,0.1564
9.2370,-0.2121,1.0132,0.1564
9.2390,-0.2121,1.0132,0.1564
9.2390,-0.2207,1.0245,0.1444
9.2400,-0.2375,1.0311,0.1344
9.2570,-0.2375,1.0311,0.1344
9.2570,-0.2375,1.0311,0.1344
9.2590,-0.2375,1.0311,0.1344
9.2600,-0.2439,1.0335,0.1329
9.2610,-0.2439,1.0335,0.1329
9.2870,-0.2439,1.0335,0.1329
9.2890,-0.2439,1.0335,0.1329
9.2900,-0.2439,1.0335,0.1329
9.2910,-0.2378,1.0335,0.1525
9.3160,-0.2378,1.0335,0.1525
9.3160,-0.2378,1.0335,0.1525
9.3170,-0.2378,1.0335,0.1525
9.3170,-0.2219,1.0323,0.1545
9.3170,-0.2163,1.0235,0.1329
9.3360,-0.2163,1.0235,0.1329
9.3370,-0.2163,1.0235,0.1329
9.3370,-0.2163,1.0235,0.1329
9.3520,-0.2349,1.0267,0.1413
9.3540,-0.2349,1.0267,0.1413
9.3660,-0.2349,1.0267,0.1413
9.3660,-0.2349,1.0267,0.1413
9.3660,-0.2349,1.0267,0.1413
9.3660,-0.2444,1.0472,0.1366
