
time,AccelerometerX,AccelerometerY,AccelerometerZ
0.0270,-0.4382,0.8986,0.3109
0.0270,-0.4382,0.8986,0.3109
0.0270,-0.4382,0.8986,0.3109
0.0280,-0.4399,0.9025,0.3084
0.0680,-0.4399,0.9025,0.3084
0.0680,-0.4399,0.9025,0.3084
0.0680,-0.4399,0.9025,0.3084
0.0690,-0.4389,0.8974,0.3258
0.0690,-0.4389,0.8974,0.3258
0.0690,-0.4389,0.8974,0.3258
0.0760,-0.4389,0.8974,0.3258
0.0760,-0.4389,0.8974,0.3258
0.0770,-0.4389,0.8974,0.3258
0.0770,-0.4389,0.8974,0.3258
0.0780,-0.4458,0.9042,0.3602
0.0780,-0.4514,0.9130,0.3084
0.1040,-0.4514,0.9130,0.3084
0.1040,-0.4514,0.9130,0.3084
0.1050,-0.4514,0.9130,0.3084
0.1050,-0.4436,0.8972,0.3094
0.1240,-0.4436,0.8972,0.3094
0.1260,-0.4436,0.8972,0.3094
0.1260,-0.4436,0.8972,0.3094
0.1260,-0.4331,0.8815,0.3365
0.1260,-0.4331,0.8815,0.3365
0.1540,-0.4331,0.8815,0.3365
0.1550,-0.4331,0.8815,0.3365
0.1550,-0.4331,0.8815,0.3365
0.1550,-0.4355,0.8774,0.3402
0.1560,-0.4475,0.8906,0.3270
0.1840,-0.4475,0.8906,0.3270
0.1840,-0.4475,0.8906,0.3270
0.1840,-0.4475,0.8906,0.3270
0.1850,-0.4577,0.8994,0.3167
0.2050,-0.4577,0.8994,0.3167
0.2050,-0.4577,0.8994,0.3167
0.2060,-0.4577,0.8994,0.3167
0.2060,-0.4553,0.8913,0.3219
0.2070,-0.4553,0.8913,0.3219
0.2340,-0.4553,0.8913,0.3219
0.2340,-0.4553,0.8913,0.3219
0.2340,-0.4553,0.8913,0.3219
0.2350,-0.4541,0.8742,0.3148
0.2350,-0.4538,0.8725,0.3370
0.2640,-0.4538,0.8725,0.3370
0.2650,-0.4538,0.8725,0.3370
0.2650,-0.4538,0.8725,0.3370
0.2650,-0.4541,0.8871,0.3480
0.2740,-0.4541,0.8871,0.3480
0.2850,-0.4541,0.8871,0.3480
0.2850,-0.4541,0.8871,0.3480
0.2850,-0.4541,0.8871,0.3480
0.2860,-0.4485,0.9082,0.3370
0.2860,-0.4485,0.9082,0.3370
0.3140,-0.4485,0.9082,0.3370
0.3140,-0.4485,0.9082,0.3370
0.3150,-0.4485,0.9082,0.3370
0.3150,-0.4406,0.9297,0.3158
0.3150,-0.4338,0.9275,0.2991
0.3440,-0.4338,0.9275,0.2991
0.3450,-0.4338,0.9275,0.2991
0.3450,-0.4338,0.9275,0.2991
0.3450,-0.4204,0.9130,0.3123
0.3650,-0.4204,0.9130,0.3123
0.3660,-0.4204,0.9130,0.3123
0.3660,-0.4204,0.9130,0.3123
0.3660,-0.4294,0.8972,0.3121
0.3670,-0.4294,0.8972,0.3121
0.3940,-0.4294,0.8972,0.3121
0.3940,-0.4294,0.8972,0.3121
0.3950,-0.4294,0.8972,0.3121
0.3950,-0.4487,0.8837,0.3211
0.3950,-0.4521,0.8818,0.3282
0.4250,-0.4521,0.8818,0.3282
0.4250,-0.4521,0.8818,0.3282
0.4250,-0.4521,0.8818,0.3282
0.4250,-0.4416,0.8896,0.3226
0.4450,-0.4416,0.8896,0.3226
0.4460,-0.4416,0.8896,0.3226
0.4460,-0.4416,0.8896,0.3226
0.4460,-0.4533,0.8915,0.3096
0.4460,-0.4533,0.8915,0.3096
0.4700,-0.4533,0.8915,0.3096
0.4740,-0.4533,0.8915,0.3096
0.4760,-0.4533,0.8915,0.3096
0.4770,-0.4533,0.8915,0.3096
0.4770,-0.4533,0.8915,0.3096
0.4770,-0.4553,0.8852,0.3302
0.4780,-0.4438,0.8898,0.3385
0.5050,-0.4438,0.8898,0.3385
0.5060,-0.4438,0.8898,0.3385
0.5060,-0.4438,0.8898,0.3385
0.5070,-0.4389,0.9042,0.3123
0.5250,-0.4389,0.9042,0.3123
0.5360,-0.4389,0.9042,0.3123
0.5370,-0.4389,0.9042,0.3123
0.5370,-0.4328,0.9003,0.3216
0.5370,-0.4328,0.9003,0.3216
0.5550,-0.4328,0.9003,0.3216
0.5550,-0.4328,0.9003,0.3216
0.5560,-0.4328,0.9003,0.3216
0.5560,-0.4343,0.8989,0.3365
0.5570,-0.4387,0.9016,0.3355
0.5850,-0.4387,0.9016,0.3355
0.5850,-0.4387,0.9016,0.3355
0.5860,-0.4387,0.9016,0.3355
0.5860,-0.4431,0.8994,0.3199
0.6050,-0.4431,0.8994,0.3199
0.6070,-0.4431,0.8994,0.3199
0.6070,-0.4431,0.8994,0.3199
0.6080,-0.4345,0.8945,0.3250
0.6080,-0.4345,0.8945,0.3250
0.6360,-0.4345,0.8945,0.3250
0.6360,-0.4345,0.8945,0.3250
0.6370,-0.4345,0.8945,0.3250
0.6370,-0.4294,0.8957,0.3456
0.6380,-0.4309,0.9057,0.3485
0.6650,-0.4309,0.9057,0.3485
0.6660,-0.4309,0.9057,0.3485
0.6660,-0.4309,0.9057,0.3485
0.6660,-0.4262,0.9111,0.3414
0.6740,-0.4262,0.9111,0.3414
0.6740,-0.4262,0.9111,0.3414
0.6860,-0.4262,0.9111,0.3414
0.6870,-0.4262,0.9111,0.3414
0.6870,-0.4262,0.9111,0.3414
0.6880,-0.4282,0.9121,0.3272
0.6880,-0.4282,0.9121,0.3272
0.7150,-0.4282,0.9121,0.3272
0.7160,-0.4282,0.9121,0.3272
0.7160,-0.4282,0.9121,0.3272
0.7160,-0.4331,0.9055,0.3211
0.7170,-0.4340,0.8915,0.3324
0.7460,-0.4340,0.8915,0.3324
0.7460,-0.4340,0.8915,0.3324
0.7460,-0.4340,0.8915,0.3324
0.7470,-0.4470,0.8857,0.3253
0.7670,-0.4470,0.8857,0.3253
0.7670,-0.4470,0.8857,0.3253
0.7670,-0.4470,0.8857,0.3253
0.7680,-0.4543,0.8923,0.3277
0.7680,-0.4543,0.8923,0.3277
0.7950,-0.4543,0.8923,0.3277
0.7960,-0.4543,0.8923,0.3277
0.7960,-0.4543,0.8923,0.3277
0.7970,-0.4590,0.9020,0.3294
0.7970,-0.4536,0.8967,0.3341
0.8250,-0.4536,0.8967,0.3341
0.8260,-0.4536,0.8967,0.3341
0.8260,-0.4536,0.8967,0.3341
0.8270,-0.4421,0.8918,0.3487
0.8460,-0.4421,0.8918,0.3487
0.8470,-0.4421,0.8918,0.3487
0.8470,-0.4421,0.8918,0.3487
0.8470,-0.4357,0.9008,0.3399
0.8480,-0.4357,0.9008,0.3399
0.8710,-0.4357,0.9008,0.3399
0.8740,-0.4357,0.9008,0.3399
0.8760,-0.4357,0.9008,0.3399
0.8760,-0.4357,0.9008,0.3399
0.8770,-0.4357,0.9008,0.3399
0.8770,-0.4245,0.9040,0.3148
0.8770,-0.4204,0.8940,0.3118
0.9060,-0.4204,0.8940,0.3118
0.9070,-0.4204,0.8940,0.3118
0.9070,-0.4204,0.8940,0.3118
0.9070,-0.4291,0.8920,0.3311
0.9270,-0.4291,0.8920,0.3311
0.9280,-0.4291,0.8920,0.3311
0.9280,-0.4291,0.8920,0.3311
0.9290,-0.4475,0.9008,0.3414
0.9290,-0.4475,0.9008,0.3414
0.9560,-0.4475,0.9008,0.3414
0.9560,-0.4475,0.9008,0.3414
0.9570,-0.4475,0.9008,0.3414
0.9570,-0.4570,0.9069,0.3216
0.9580,-0.4533,0.9003,0.3194
0.9860,-0.4533,0.9003,0.3194
0.9870,-0.4533,0.9003,0.3194
0.9880,-0.4533,0.9003,0.3194
0.9880,-0.4384,0.8866,0.3265
1.0070,-0.4384,0.8866,0.3265
1.0070,-0.4384,0.8866,0.3265
1.0080,-0.4384,0.8866,0.3265
1.0080,-0.4233,0.8840,0.3373
1.0080,-0.4233,0.8840,0.3373
1.0350,-0.4233,0.8840,0.3373
1.0360,-0.4233,0.8840,0.3373
1.0360,-0.4233,0.8840,0.3373
1.0360,-0.4243,0.8918,0.3319
1.0360,-0.4311,0.9060,0.3048
1.0670,-0.4311,0.9060,0.3048
1.0670,-0.4311,0.9060,0.3048
1.0670,-0.4311,0.9060,0.3048
1.0860,-0.4443,0.9155,0.3160
1.0860,-0.4443,0.9155,0.3160
1.0860,-0.4443,0.9155,0.3160
1.0860,-0.4443,0.9155,0.3160
1.0880,-0.4443,0.9155,0.3160
1.0890,-0.4443,0.9155,0.3160
1.0890,-0.4375,0.9077,0.3358
1.0900,-0.4375,0.9077,0.3358
1.1160,-0.4375,0.9077,0.3358
1.1160,-0.4375,0.9077,0.3358
1.1160,-0.4375,0.9077,0.3358
1.1170,-0.4265,0.8984,0.3175
1.1170,-0.4269,0.8959,0.3136
1.1460,-0.4269,0.8959,0.3136
1.1460,-0.4269,0.8959,0.3136
1.1470,-0.4269,0.8959,0.3136
1.1470,-0.4335,0.9023,0.3206
1.1660,-0.4335,0.9023,0.3206
1.1660,-0.4335,0.9023,0.3206
1.1670,-0.4335,0.9023,0.3206
1.1670,-0.4294,0.9086,0.3180
1.1670,-0.4294,0.9086,0.3180
1.1960,-0.4294,0.9086,0.3180
1.1960,-0.4294,0.9086,0.3180
1.1960,-0.4294,0.9086,0.3180
1.1960,-0.4345,0.9086,0.3072
1.1970,-0.4372,0.9047,0.3304
1.2260,-0.4372,0.9047,0.3304
1.2260,-0.4372,0.9047,0.3304
1.2260,-0.4372,0.9047,0.3304
1.2270,-0.4306,0.9135,0.3463
1.2470,-0.4306,0.9135,0.3463
1.2470,-0.4306,0.9135,0.3463
1.2480,-0.4306,0.9135,0.3463
1.2480,-0.4106,0.9287,0.3192
1.2480,-0.4106,0.9287,0.3192
1.2700,-0.4106,0.9287,0.3192
1.2740,-0.4106,0.9287,0.3192
1.2770,-0.4106,0.9287,0.3192
1.2780,-0.4106,0.9287,0.3192
1.2780,-0.4106,0.9287,0.3192
1.2780,-0.3966,0.9341,0.3060
1.2780,-0.4157,0.9235,0.3250
1.3060,-0.4157,0.9235,0.3250
1.3060,-0.4157,0.9235,0.3250
1.3060,-0.4157,0.9235,0.3250
1.3070,-0.4326,0.9013,0.3302
1.3270,-0.4326,0.9013,0.3302
1.3280,-0.4326,0.9013,0.3302
1.3280,-0.4326,0.9013,0.3302
1.3280,-0.4221,0.8852,0.3101
1.3300,-0.4221,0.8852,0.3101
1.3570,-0.4221,0.8852,0.3101
1.3580,-0.4221,0.8852,0.3101
1.3580,-0.4221,0.8852,0.3101
1.3580,-0.4086,0.8710,0.3253
1.3580,-0.4164,0.8803,0.3583
1.3870,-0.4164,0.8803,0.3583
1.3880,-0.4164,0.8803,0.3583
1.3880,-0.4164,0.8803,0.3583
1.3880,-0.4172,0.9018,0.3556
1.4070,-0.4172,0.9018,0.3556
1.4080,-0.4172,0.9018,0.3556
1.4080,-0.4172,0.9018,0.3556
1.4080,-0.4294,0.9265,0.3304
1.4090,-0.4294,0.9265,0.3304
1.4370,-0.4294,0.9265,0.3304
1.4380,-0.4294,0.9265,0.3304
1.4380,-0.4294,0.9265,0.3304
1.4380,-0.4516,0.9277,0.3236
1.4390,-0.4526,0.9126,0.3399
1.4670,-0.4526,0.9126,0.3399
1.4670,-0.4526,0.9126,0.3399
1.4680,-0.4526,0.9126,0.3399
1.4680,-0.4291,0.8996,0.3402
1.4740,-0.4291,0.8996,0.3402
1.4740,-0.4291,0.8996,0.3402
1.4880,-0.4291,0.8996,0.3402
1.4890,-0.4291,0.8996,0.3402
1.4890,-0.4291,0.8996,0.3402
1.4890,-0.4142,0.8976,0.3348
1.4890,-0.4142,0.8976,0.3348
1.5190,-0.4142,0.8976,0.3348
1.5210,-0.4142,0.8976,0.3348
1.5220,-0.4142,0.8976,0.3348
1.5230,-0.4108,0.8991,0.3143
1.5240,-0.4018,0.9030,0.2933
1.5500,-0.4018,0.9030,0.2933
1.5520,-0.4018,0.9030,0.2933
1.5540,-0.4018,0.9030,0.2933
1.5560,-0.3957,0.9096,0.3167
1.5690,-0.3957,0.9096,0.3167
1.5710,-0.3957,0.9096,0.3167
1.5720,-0.3957,0.9096,0.3167
1.5730,-0.4028,0.9216,0.3380
1.5750,-0.4028,0.9216,0.3380
1.5980,-0.4028,0.9216,0.3380
1.5990,-0.4028,0.9216,0.3380
1.6000,-0.4028,0.9216,0.3380
1.6030,-0.4140,0.9309,0.3101
1.6240,-0.4116,0.9099,0.3084
1.6290,-0.4116,0.9099,0.3084
1.6300,-0.4116,0.9099,0.3084
1.6310,-0.4116,0.9099,0.3084
1.6310,-0.4015,0.8915,0.3346
1.6480,-0.4015,0.8915,0.3346
1.6480,-0.4015,0.8915,0.3346
1.6490,-0.4015,0.8915,0.3346
1.6500,-0.4069,0.9067,0.3456
1.6500,-0.4069,0.9067,0.3456
1.6710,-0.4069,0.9067,0.3456
1.6760,-0.4069,0.9067,0.3456
1.6790,-0.4069,0.9067,0.3456
1.6790,-0.4069,0.9067,0.3456
1.6800,-0.4069,0.9067,0.3456
1.6810,-0.4155,0.9348,0.3277
1.6810,-0.4343,0.9421,0.3392
1.7080,-0.4343,0.9421,0.3392
1.7090,-0.4343,0.9421,0.3392
1.7090,-0.4343,0.9421,0.3392
1.7100,-0.4328,0.9262,0.3558
1.7290,-0.4328,0.9262,0.3558
1.7310,-0.4328,0.9262,0.3558
1.7330,-0.4328,0.9262,0.3558
1.7340,-0.4155,0.9111,0.3463
1.7350,-0.4155,0.9111,0.3463
1.7590,-0.4155,0.9111,0.3463
1.7600,-0.4155,0.9111,0.3463
1.7610,-0.4155,0.9111,0.3463
1.7620,-0.4074,0.9126,0.3245
1.7630,-0.4106,0.9138,0.3109
1.7890,-0.4106,0.9138,0.3109
1.7910,-0.4106,0.9138,0.3109
1.7920,-0.4106,0.9138,0.3109
1.7930,-0.4284,0.9030,0.3204
1.8090,-0.4284,0.9030,0.3204
1.8100,-0.4284,0.9030,0.3204
1.8110,-0.4284,0.9030,0.3204
1.8120,-0.4460,0.9006,0.3439
1.8130,-0.4460,0.9006,0.3439
1.8390,-0.4460,0.9006,0.3439
1.8400,-0.4460,0.9006,0.3439
1.8410,-0.4460,0.9006,0.3439
1.8420,-0.4436,0.8984,0.3419
1.8420,-0.4301,0.8967,0.3289
1.8700,-0.4301,0.8967,0.3289
1.8710,-0.4301,0.8967,0.3289
1.8720,-0.4301,0.8967,0.3289
1.8730,-0.4120,0.9062,0.3087
1.8740,-0.4120,0.9062,0.3087
1.8750,-0.4120,0.9062,0.3087
1.8890,-0.4120,0.9062,0.3087
1.8900,-0.4120,0.9062,0.3087
1.8930,-0.4120,0.9062,0.3087
1.8940,-0.4050,0.9145,0.3050
1.8950,-0.4050,0.9145,0.3050
1.9190,-0.4050,0.9145,0.3050
1.9200,-0.4050,0.9145,0.3050
1.9210,-0.4050,0.9145,0.3050
1.9210,-0.4247,0.8976,0.3162
1.9220,-0.4304,0.8871,0.3292
1.9510,-0.4304,0.8871,0.3292
1.9520,-0.4304,0.8871,0.3292
1.9550,-0.4304,0.8871,0.3292
1.9570,-0.4316,0.8994,0.3326
1.9700,-0.4316,0.8994,0.3326
1.9720,-0.4316,0.8994,0.3326
1.9730,-0.4316,0.8994,0.3326
1.9740,-0.4294,0.9155,0.3170
1.9750,-0.4294,0.9155,0.3170
2.0010,-0.4294,0.9155,0.3170
2.0030,-0.4294,0.9155,0.3170
2.0040,-0.4294,0.9155,0.3170
2.0050,-0.4340,0.9160,0.3094
2.0060,-0.4377,0.8967,0.3341
2.0300,-0.4377,0.8967,0.3341
2.0320,-0.4377,0.8967,0.3341
2.0320,-0.4377,0.8967,0.3341
2.0340,-0.4392,0.8871,0.3456
2.0510,-0.4392,0.8871,0.3456
2.0520,-0.4392,0.8871,0.3456
2.0530,-0.4392,0.8871,0.3456
2.0570,-0.4333,0.9025,0.3255
2.0580,-0.4333,0.9025,0.3255
2.0770,-0.4333,0.9025,0.3255
2.0810,-0.4333,0.9025,0.3255
2.0810,-0.4333,0.9025,0.3255
2.0820,-0.4333,0.9025,0.3255
2.0840,-0.4221,0.9133,0.3111
2.0850,-0.4113,0.9091,0.3189
2.1090,-0.4113,0.9091,0.3189
2.1110,-0.4113,0.9091,0.3189
2.1110,-0.4113,0.9091,0.3189
2.1120,-0.4089,0.9050,0.3338
2.1290,-0.4089,0.9050,0.3338
2.1300,-0.4089,0.9050,0.3338
2.1310,-0.4089,0.9050,0.3338
2.1320,-0.4155,0.9089,0.3287
2.1330,-0.4155,0.9089,0.3287
2.1580,-0.4155,0.9089,0.3287
2.1820,-0.4155,0.9089,0.3287
2.1830,-0.4155,0.9089,0.3287
2.1840,-0.4145,0.9165,0.3263
2.1840,-0.4274,0.9204,0.2979
2.1930,-0.4274,0.9204,0.2979
2.1940,-0.4274,0.9204,0.2979
2.1940,-0.4274,0.9204,0.2979
2.1950,-0.4291,0.9082,0.3004
2.2080,-0.4291,0.9082,0.3004
2.2090,-0.4291,0.9082,0.3004
2.2090,-0.4291,0.9082,0.3004
2.2100,-0.4130,0.8920,0.3321
2.2100,-0.4130,0.8920,0.3321
2.2380,-0.4130,0.8920,0.3321
2.2390,-0.4130,0.8920,0.3321
2.2400,-0.4130,0.8920,0.3321
2.2410,-0.4140,0.8884,0.3514
2.2420,-0.4269,0.9018,0.3529
2.2680,-0.4269,0.9018,0.3529
2.2690,-0.4269,0.9018,0.3529
2.2700,-0.4269,0.9018,0.3529
2.2710,-0.4465,0.9113,0.3341
2.2750,-0.4465,0.9113,0.3341
2.2920,-0.4465,0.9113,0.3341
2.2950,-0.4465,0.9113,0.3341
2.2960,-0.4465,0.9113,0.3341
2.2970,-0.4492,0.9123,0.3038
2.2990,-0.4492,0.9123,0.3038
2.3190,-0.4492,0.9123,0.3038
2.3200,-0.4492,0.9123,0.3038
2.3210,-0.4492,0.9123,0.3038
2.3220,-0.4269,0.9150,0.3043
2.3230,-0.4047,0.9162,0.3111
2.3520,-0.4047,0.9162,0.3111
2.3530,-0.4047,0.9162,0.3111
2.3540,-0.4047,0.9162,0.3111
2.3550,-0.4008,0.9135,0.3131
2.3710,-0.4008,0.9135,0.3131
2.3720,-0.4008,0.9135,0.3131
2.3740,-0.4008,0.9135,0.3131
2.3750,-0.4108,0.9003,0.3197
2.3760,-0.4108,0.9003,0.3197
2.3990,-0.4108,0.9003,0.3197
2.4000,-0.4108,0.9003,0.3197
2.4010,-0.4108,0.9003,0.3197
2.4020,-0.4375,0.8864,0.3299
2.4030,-0.4443,0.8915,0.3382
2.4290,-0.4443,0.8915,0.3382
2.4320,-0.4443,0.8915,0.3382
2.4350,-0.4443,0.8915,0.3382
2.4360,-0.4382,0.9091,0.3236
2.4500,-0.4382,0.9091,0.3236
2.4510,-0.4382,0.9091,0.3236
2.4520,-0.4382,0.9091,0.3236
2.4530,-0.4345,0.9184,0.3048
2.4540,-0.4345,0.9184,0.3048
2.4760,-0.4345,0.9184,0.3048
2.4780,-0.4345,0.9184,0.3048
2.4800,-0.4345,0.9184,0.3048
2.4820,-0.4345,0.9184,0.3048
2.4830,-0.4401,0.9011,0.3289
2.4850,-0.4362,0.8832,0.3480
2.5100,-0.4362,0.8832,0.3480
2.5110,-0.4362,0.8832,0.3480
2.5120,-0.4362,0.8832,0.3480
2.5130,-0.4287,0.8964,0.3385
2.5340,-0.4287,0.8964,0.3385
2.5360,-0.4287,0.8964,0.3385
2.5370,-0.4287,0.8964,0.3385
2.5380,-0.4255,0.9138,0.3138
2.5390,-0.4255,0.9138,0.3138
2.5590,-0.4255,0.9138,0.3138
2.5600,-0.4255,0.9138,0.3138
2.5610,-0.4255,0.9138,0.3138
2.5620,-0.4367,0.9184,0.3101
2.5630,-0.4489,0.8959,0.3116
2.5890,-0.4489,0.8959,0.3116
2.5900,-0.4489,0.8959,0.3116
2.5910,-0.4489,0.8959,0.3116
2.5930,-0.4485,0.8769,0.3233
2.6130,-0.4485,0.8769,0.3233
2.6140,-0.4485,0.8769,0.3233
2.6150,-0.4485,0.8769,0.3233
2.6150,-0.4382,0.8788,0.3399
2.6190,-0.4382,0.8788,0.3399
2.6400,-0.4382,0.8788,0.3399
2.6410,-0.4382,0.8788,0.3399
2.6420,-0.4382,0.8788,0.3399
2.6430,-0.4296,0.9028,0.3399
2.6430,-0.4194,0.9226,0.3094
2.6700,-0.4194,0.9226,0.3094
2.6720,-0.4194,0.9226,0.3094
2.6720,-0.4194,0.9226,0.3094
2.6740,-0.4230,0.9160,0.3033
2.6780,-0.4230,0.9160,0.3033
2.6900,-0.4230,0.9160,0.3033
2.6910,-0.4230,0.9160,0.3033
2.6910,-0.4230,0.9160,0.3033
2.6920,-0.4367,0.9042,0.3250
2.6930,-0.4367,0.9042,0.3250
2.7180,-0.4367,0.9042,0.3250
2.7190,-0.4367,0.9042,0.3250
2.7190,-0.4367,0.9042,0.3250
2.7190,-0.4340,0.9028,0.3485
2.7200,-0.4362,0.9099,0.3314
2.7490,-0.4362,0.9099,0.3314
2.7490,-0.4362,0.9099,0.3314
2.7500,-0.4362,0.9099,0.3314
2.7500,-0.4436,0.9094,0.3219
2.7690,-0.4436,0.9094,0.3219
2.7690,-0.4436,0.9094,0.3219
2.7700,-0.4436,0.9094,0.3219
2.7710,-0.4526,0.8935,0.3214
2.7710,-0.4526,0.8935,0.3214
2.8000,-0.4526,0.8935,0.3214
2.8010,-0.4526,0.8935,0.3214
2.8020,-0.4526,0.8935,0.3214
2.8030,-0.4379,0.8854,0.3358
2.8040,-0.4272,0.8952,0.3502
2.8330,-0.4272,0.8952,0.3502
2.8340,-0.4272,0.8952,0.3502
2.8350,-0.4272,0.8952,0.3502
2.8360,-0.4250,0.9055,0.3280
2.8510,-0.4250,0.9055,0.3280
2.8520,-0.4250,0.9055,0.3280
2.8530,-0.4250,0.9055,0.3280
2.8540,-0.4245,0.9064,0.3219
2.8550,-0.4245,0.9064,0.3219
2.8770,-0.4245,0.9064,0.3219
2.8800,-0.4245,0.9064,0.3219
2.8850,-0.4245,0.9064,0.3219
2.8860,-0.4245,0.9064,0.3219
2.8860,-0.4345,0.9052,0.3309
2.8880,-0.4335,0.8981,0.3226
2.9100,-0.4335,0.8981,0.3226
2.9120,-0.4335,0.8981,0.3226
2.9180,-0.4335,0.8981,0.3226
2.9190,-0.4213,0.8969,0.3170
2.9320,-0.4213,0.8969,0.3170
2.9330,-0.4213,0.8969,0.3170
2.9340,-0.4213,0.8969,0.3170
2.9350,-0.4164,0.9062,0.3390
2.9360,-0.4164,0.9062,0.3390
2.9600,-0.4164,0.9062,0.3390
2.9610,-0.4164,0.9062,0.3390
2.9620,-0.4164,0.9062,0.3390
2.9640,-0.4252,0.9074,0.3551
2.9650,-0.4404,0.9011,0.3346
2.9920,-0.4404,0.9011,0.3346
2.9930,-0.4404,0.9011,0.3346
2.9940,-0.4404,0.9011,0.3346
2.9950,-0.4428,0.8994,0.3194
3.0120,-0.4428,0.8994,0.3194
3.0150,-0.4428,0.8994,0.3194
3.0160,-0.4428,0.8994,0.3194
3.0170,-0.4445,0.9030,0.3136
3.0180,-0.4445,0.9030,0.3136
3.0400,-0.4445,0.9030,0.3136
3.0410,-0.4445,0.9030,0.3136
3.0420,-0.4445,0.9030,0.3136
3.0420,-0.4419,0.9013,0.3150
3.0430,-0.4335,0.8908,0.3441
3.0730,-0.4335,0.8908,0.3441
3.0740,-0.4335,0.8908,0.3441
3.0750,-0.4335,0.8908,0.3441
3.0750,-0.4294,0.8837,0.3485
3.0780,-0.4294,0.8837,0.3485
3.0930,-0.4294,0.8837,0.3485
3.0940,-0.4294,0.8837,0.3485
3.0950,-0.4294,0.8837,0.3485
3.0980,-0.4138,0.9074,0.3153
3.0990,-0.4138,0.9074,0.3153
3.1210,-0.4138,0.9074,0.3153
3.1220,-0.4138,0.9074,0.3153
3.1230,-0.4138,0.9074,0.3153
3.1240,-0.3986,0.9277,0.2774
3.1250,-0.4135,0.9209,0.2793
3.1510,-0.4135,0.9209,0.2793
3.1530,-0.4135,0.9209,0.2793
3.1540,-0.4135,0.9209,0.2793
3.1550,-0.4475,0.9099,0.3309
3.1710,-0.4475,0.9099,0.3309
3.1720,-0.4475,0.9099,0.3309
3.1730,-0.4475,0.9099,0.3309
3.1740,-0.4695,0.8981,0.3661
3.1740,-0.4695,0.8981,0.3661
3.2020,-0.4695,0.8981,0.3661
3.2030,-0.4695,0.8981,0.3661
3.2040,-0.4695,0.8981,0.3661
3.2050,-0.4700,0.8857,0.3544
3.2060,-0.4514,0.8874,0.3436
3.2290,-0.4514,0.8874,0.3436
3.2290,-0.4514,0.8874,0.3436
3.2300,-0.4514,0.8874,0.3436
3.2320,-0.4426,0.8852,0.2996
3.2490,-0.4426,0.8852,0.2996
3.2490,-0.4426,0.8852,0.2996
3.2500,-0.4426,0.8852,0.2996
3.2500,-0.4411,0.8827,0.2984
3.2500,-0.4411,0.8827,0.2984
3.2720,-0.4411,0.8827,0.2984
3.2770,-0.4411,0.8827,0.2984
3.2770,-0.4411,0.8827,0.2984
3.2780,-0.4411,0.8827,0.2984
3.2780,-0.4465,0.8879,0.3377
3.2780,-0.4279,0.9023,0.3456
3.3070,-0.4279,0.9023,0.3456
3.3080,-0.4279,0.9023,0.3456
3.3080,-0.4279,0.9023,0.3456
3.3080,-0.4084,0.9096,0.3333
3.3290,-0.4084,0.9096,0.3333
3.3290,-0.4084,0.9096,0.3333
3.3300,-0.4084,0.9096,0.3333
3.3300,-0.4130,0.9050,0.3399
3.3300,-0.4130,0.9050,0.3399
3.3580,-0.4130,0.9050,0.3399
3.3580,-0.4130,0.9050,0.3399
3.3580,-0.4130,0.9050,0.3399
3.3590,-0.4296,0.9106,0.3336
3.3590,-0.4306,0.9130,0.3216
3.3870,-0.4306,0.9130,0.3216
3.3880,-0.4306,0.9130,0.3216
3.3880,-0.4306,0.9130,0.3216
3.3880,-0.4353,0.9106,0.3307
3.4090,-0.4353,0.9106,0.3307
3.4090,-0.4353,0.9106,0.3307
3.4090,-0.4353,0.9106,0.3307
3.4100,-0.4296,0.9094,0.3228
3.4110,-0.4296,0.9094,0.3228
3.4390,-0.4296,0.9094,0.3228
3.4390,-0.4296,0.9094,0.3228
3.4390,-0.4296,0.9094,0.3228
3.4400,-0.4306,0.9020,0.3158
3.4400,-0.4401,0.8945,0.3329
3.4750,-0.4401,0.8945,0.3329
3.4760,-0.4401,0.8945,0.3329
3.4770,-0.4401,0.8945,0.3329
3.4780,-0.4423,0.8937,0.3478
3.4790,-0.4423,0.8937,0.3478
3.4950,-0.4423,0.8937,0.3478
3.4950,-0.4423,0.8937,0.3478
3.4960,-0.4423,0.8937,0.3478
3.4970,-0.4416,0.8976,0.3443
3.4980,-0.4416,0.8976,0.3443
3.5220,-0.4416,0.8976,0.3443
3.5240,-0.4416,0.8976,0.3443
3.5240,-0.4416,0.8976,0.3443
3.5250,-0.4155,0.9050,0.3245
3.5260,-0.4133,0.9121,0.2982
3.5490,-0.4133,0.9121,0.2982
3.5500,-0.4133,0.9121,0.2982
3.5510,-0.4133,0.9121,0.2982
3.5520,-0.4353,0.9064,0.3160
3.5700,-0.4353,0.9064,0.3160
3.5710,-0.4353,0.9064,0.3160
3.5710,-0.4353,0.9064,0.3160
3.5720,-0.4421,0.9003,0.3446
3.5730,-0.4421,0.9003,0.3446
3.6000,-0.4421,0.9003,0.3446
3.6010,-0.4421,0.9003,0.3446
3.6020,-0.4421,0.9003,0.3446
3.6020,-0.4265,0.9035,0.3297
3.6030,-0.4289,0.9072,0.3204
3.6330,-0.4289,0.9072,0.3204
3.6340,-0.4289,0.9072,0.3204
3.6350,-0.4289,0.9072,0.3204
3.6350,-0.4284,0.8972,0.3360
3.6510,-0.4284,0.8972,0.3360
3.6520,-0.4284,0.8972,0.3360
3.6520,-0.4284,0.8972,0.3360
3.6530,-0.4267,0.8891,0.3380
3.6530,-0.4267,0.8891,0.3380
3.6740,-0.4267,0.8891,0.3380
3.6800,-0.4267,0.8891,0.3380
3.6810,-0.4267,0.8891,0.3380
3.6820,-0.4267,0.8891,0.3380
3.6820,-0.4328,0.8954,0.3426
3.6830,-0.4282,0.9116,0.3314
3.7110,-0.4282,0.9116,0.3314
3.7120,-0.4282,0.9116,0.3314
3.7120,-0.4282,0.9116,0.3314
3.7130,-0.4238,0.9143,0.3062
3.7340,-0.4238,0.9143,0.3062
3.7340,-0.4238,0.9143,0.3062
3.7350,-0.4238,0.9143,0.3062
3.7360,-0.4252,0.8989,0.3057
3.7360,-0.4252,0.8989,0.3057
3.7580,-0.4252,0.8989,0.3057
3.7590,-0.4252,0.8989,0.3057
3.7590,-0.4252,0.8989,0.3057
3.7600,-0.4245,0.8884,0.3475
3.7620,-0.4362,0.8998,0.3470
3.7890,-0.4362,0.8998,0.3470
3.7890,-0.4362,0.8998,0.3470
3.7890,-0.4362,0.8998,0.3470
3.7900,-0.4345,0.9038,0.3351
3.8090,-0.4345,0.9038,0.3351
3.8100,-0.4345,0.9038,0.3351
3.8100,-0.4345,0.9038,0.3351
3.8100,-0.4155,0.9091,0.3414
3.8160,-0.4155,0.9091,0.3414
3.8380,-0.4155,0.9091,0.3414
3.8390,-0.4155,0.9091,0.3414
3.8390,-0.4155,0.9091,0.3414
3.8390,-0.4208,0.9174,0.3307
3.8400,-0.4326,0.9133,0.3087
3.8690,-0.4326,0.9133,0.3087
3.8700,-0.4326,0.9133,0.3087
3.8700,-0.4326,0.9133,0.3087
3.8700,-0.4333,0.9025,0.3336
3.8730,-0.4333,0.9025,0.3336
3.8890,-0.4333,0.9025,0.3336
3.8900,-0.4333,0.9025,0.3336
3.8900,-0.4333,0.9025,0.3336
3.8900,-0.4289,0.8952,0.3585
3.8910,-0.4289,0.8952,0.3585
3.9190,-0.4289,0.8952,0.3585
3.9200,-0.4289,0.8952,0.3585
3.9210,-0.4289,0.8952,0.3585
3.9210,-0.4225,0.9006,0.3507
3.9220,-0.4316,0.9069,0.3248
3.9490,-0.4316,0.9069,0.3248
3.9490,-0.4316,0.9069,0.3248
3.9490,-0.4316,0.9069,0.3248
3.9520,-0.4326,0.9030,0.3206
3.9690,-0.4326,0.9030,0.3206
3.9700,-0.4326,0.9030,0.3206
3.9700,-0.4326,0.9030,0.3206
3.9700,-0.4201,0.9016,0.3390
3.9710,-0.4201,0.9016,0.3390
3.9990,-0.4201,0.9016,0.3390
3.9990,-0.4201,0.9016,0.3390
4.0000,-0.4201,0.9016,0.3390
4.0000,-0.4235,0.9047,0.3272
4.0000,-0.4328,0.9069,0.3121
4.0280,-0.4328,0.9069,0.3121
4.0290,-0.4328,0.9069,0.3121
4.0290,-0.4328,0.9069,0.3121
4.0290,-0.4397,0.8962,0.3167
4.0490,-0.4397,0.8962,0.3167
4.0500,-0.4397,0.8962,0.3167
4.0500,-0.4397,0.8962,0.3167
4.0500,-0.4392,0.8862,0.3245
4.0500,-0.4392,0.8862,0.3245
4.0730,-0.4392,0.8862,0.3245
4.0790,-0.4392,0.8862,0.3245
4.0790,-0.4392,0.8862,0.3245
4.0790,-0.4392,0.8862,0.3245
4.0800,-0.4370,0.8908,0.3355
4.0800,-0.4392,0.9038,0.3363
4.1090,-0.4392,0.9038,0.3363
4.1090,-0.4392,0.9038,0.3363
4.1090,-0.4392,0.9038,0.3363
4.1100,-0.4272,0.9077,0.3202
4.1290,-0.4272,0.9077,0.3202
4.1330,-0.4272,0.9077,0.3202
4.1330,-0.4272,0.9077,0.3202
4.1340,-0.4194,0.9096,0.3182
4.1340,-0.4194,0.9096,0.3182
4.1600,-0.4194,0.9096,0.3182
4.1600,-0.4194,0.9096,0.3182
4.1600,-0.4194,0.9096,0.3182
4.1610,-0.4318,0.9130,0.3209
4.1610,-0.4328,0.9135,0.3089
4.1910,-0.4328,0.9135,0.3089
4.1910,-0.4328,0.9135,0.3089
4.1920,-0.4328,0.9135,0.3089
4.1920,-0.4287,0.9001,0.3194
4.2100,-0.4287,0.9001,0.3194
4.2110,-0.4287,0.9001,0.3194
4.2110,-0.4287,0.9001,0.3194
4.2110,-0.4328,0.8906,0.3226
4.2110,-0.4328,0.8906,0.3226
4.2410,-0.4328,0.8906,0.3226
4.2420,-0.4328,0.8906,0.3226
4.2420,-0.4328,0.8906,0.3226
4.2420,-0.4443,0.8844,0.3162
4.2430,-0.4565,0.8761,0.3197
4.2730,-0.4565,0.8761,0.3197
4.2730,-0.4565,0.8761,0.3197
4.2740,-0.4565,0.8761,0.3197
4.2740,-0.4406,0.8722,0.3182
4.2750,-0.4406,0.8722,0.3182
4.2920,-0.4406,0.8722,0.3182
4.2920,-0.4406,0.8722,0.3182
4.2930,-0.4406,0.8722,0.3182
4.2930,-0.4255,0.8859,0.3358
4.2930,-0.4255,0.8859,0.3358
4.3220,-0.4255,0.8859,0.3358
4.3220,-0.4255,0.8859,0.3358
4.3230,-0.4255,0.8859,0.3358
4.3230,-0.4213,0.9194,0.3302
4.3230,-0.4045,0.9443,0.3052
4.3510,-0.4045,0.9443,0.3052
4.3510,-0.4045,0.9443,0.3052
4.3520,-0.4045,0.9443,0.3052
4.3520,-0.4245,0.9482,0.3177
4.3720,-0.4245,0.9482,0.3177
4.3720,-0.4245,0.9482,0.3177
4.3730,-0.4245,0.9482,0.3177
4.3860,-0.4255,0.9257,0.3500
4.3860,-0.4255,0.9257,0.3500
4.3990,-0.4255,0.9257,0.3500
4.4000,-0.4255,0.9257,0.3500
4.4000,-0.4255,0.9257,0.3500
4.4000,-0.4079,0.9082,0.3424
4.4010,-0.4084,0.9062,0.3478
4.4300,-0.4084,0.9062,0.3478
4.4300,-0.4084,0.9062,0.3478
4.4300,-0.4084,0.9062,0.3478
4.4310,-0.4316,0.9069,0.3580
4.4510,-0.4316,0.9069,0.3580
4.4520,-0.4316,0.9069,0.3580
4.4520,-0.4316,0.9069,0.3580
4.4520,-0.4482,0.9079,0.3424
4.4520,-0.4482,0.9079,0.3424
4.4730,-0.4482,0.9079,0.3424
4.4800,-0.4482,0.9079,0.3424
4.4800,-0.4482,0.9079,0.3424
4.4810,-0.4482,0.9079,0.3424
4.4810,-0.4450,0.9057,0.3175
4.4810,-0.4316,0.9016,0.3087
4.5100,-0.4316,0.9016,0.3087
4.5100,-0.4316,0.9016,0.3087
4.5110,-0.4316,0.9016,0.3087
4.5110,-0.4211,0.8998,0.3109
4.5310,-0.4211,0.8998,0.3109
4.5310,-0.4211,0.8998,0.3109
4.5310,-0.4211,0.8998,0.3109
4.5310,-0.4228,0.8901,0.3109
4.5320,-0.4228,0.8901,0.3109
4.5610,-0.4228,0.8901,0.3109
4.5610,-0.4228,0.8901,0.3109
4.5610,-0.4228,0.8901,0.3109
4.5620,-0.4272,0.8906,0.3253
4.5620,-0.4296,0.8969,0.3314
4.5900,-0.4296,0.8969,0.3314
4.5910,-0.4296,0.8969,0.3314
4.5910,-0.4296,0.8969,0.3314
4.5910,-0.4377,0.9067,0.3260
4.6110,-0.4377,0.9067,0.3260
4.6110,-0.4377,0.9067,0.3260
4.6120,-0.4377,0.9067,0.3260
4.6120,-0.4384,0.9096,0.3302
4.6120,-0.4384,0.9096,0.3302
4.6400,-0.4384,0.9096,0.3302
4.6410,-0.4384,0.9096,0.3302
4.6410,-0.4384,0.9096,0.3302
4.6410,-0.4394,0.9020,0.3294
4.6420,-0.4384,0.8962,0.3377
4.6710,-0.4384,0.8962,0.3377
4.6720,-0.4384,0.8962,0.3377
4.6720,-0.4384,0.8962,0.3377
4.6730,-0.4350,0.8962,0.3326
4.6740,-0.4350,0.8962,0.3326
4.6900,-0.4350,0.8962,0.3326
4.6910,-0.4350,0.8962,0.3326
4.6910,-0.4350,0.8962,0.3326
4.6920,-0.4360,0.8972,0.3140
4.6920,-0.4360,0.8972,0.3140
4.7200,-0.4360,0.8972,0.3140
4.7200,-0.4360,0.8972,0.3140
4.7200,-0.4360,0.8972,0.3140
4.7210,-0.4257,0.8996,0.3241
4.7210,-0.4296,0.9069,0.3336
4.7510,-0.4296,0.9069,0.3336
4.7510,-0.4296,0.9069,0.3336
4.7520,-0.4296,0.9069,0.3336
4.7520,-0.4318,0.9118,0.3358
4.7710,-0.4318,0.9118,0.3358
4.7720,-0.4318,0.9118,0.3358
4.7720,-0.4318,0.9118,0.3358
4.7720,-0.4463,0.9101,0.3219
4.7730,-0.4463,0.9101,0.3219
4.8000,-0.4463,0.9101,0.3219
4.8010,-0.4463,0.9101,0.3219
4.8010,-0.4463,0.9101,0.3219
4.8010,-0.4480,0.8981,0.3123
4.8010,-0.4267,0.8989,0.3382
4.8310,-0.4267,0.8989,0.3382
4.8310,-0.4267,0.8989,0.3382
4.8320,-0.4267,0.8989,0.3382
4.8320,-0.4072,0.9101,0.3336
4.8520,-0.4072,0.9101,0.3336
4.8520,-0.4072,0.9101,0.3336
4.8520,-0.4072,0.9101,0.3336
4.8530,-0.4177,0.9094,0.3104
4.8530,-0.4177,0.9094,0.3104
4.8740,-0.4177,0.9094,0.3104
4.8810,-0.4177,0.9094,0.3104
4.8810,-0.4177,0.9094,0.3104
4.8820,-0.4177,0.9094,0.3104
4.8820,-0.4333,0.8937,0.3260
4.8830,-0.4397,0.8893,0.3536
4.9110,-0.4397,0.8893,0.3536
4.9110,-0.4397,0.8893,0.3536
4.9120,-0.4397,0.8893,0.3536
4.9120,-0.4377,0.9013,0.3448
4.9320,-0.4377,0.9013,0.3448
4.9320,-0.4377,0.9013,0.3448
4.9420,-0.4377,0.9013,0.3448
4.9420,-0.4375,0.9135,0.3096
4.9430,-0.4375,0.9135,0.3096
4.9610,-0.4375,0.9135,0.3096
4.9620,-0.4375,0.9135,0.3096
4.9620,-0.4375,0.9135,0.3096
4.9620,-0.4355,0.9038,0.2991
4.9630,-0.4387,0.8871,0.3294
4.9910,-0.4387,0.8871,0.3294
4.9910,-0.4387,0.8871,0.3294
4.9920,-0.4387,0.8871,0.3294
4.9920,-0.4345,0.8881,0.3316
5.0120,-0.4345,0.8881,0.3316
5.0130,-0.4345,0.8881,0.3316
5.0130,-0.4345,0.8881,0.3316
5.0140,-0.4348,0.8996,0.3094
5.0140,-0.4348,0.8996,0.3094
5.0420,-0.4348,0.8996,0.3094
5.0420,-0.4348,0.8996,0.3094
5.0430,-0.4348,0.8996,0.3094
5.0430,-0.4428,0.9052,0.3123
5.0440,-0.4389,0.8937,0.3329
5.0740,-0.4389,0.8937,0.3329
5.0740,-0.4389,0.8937,0.3329
5.0740,-0.4389,0.8937,0.3329
5.0750,-0.4274,0.8954,0.3409
5.0750,-0.4274,0.8954,0.3409
5.0920,-0.4274,0.8954,0.3409
5.0930,-0.4274,0.8954,0.3409
5.0930,-0.4274,0.8954,0.3409
5.0930,-0.4240,0.9074,0.3233
5.0940,-0.4240,0.9074,0.3233
5.1200,-0.4240,0.9074,0.3233
5.1200,-0.4240,0.9074,0.3233
5.1210,-0.4240,0.9074,0.3233
5.1210,-0.4299,0.9113,0.3057
5.1210,-0.4323,0.9023,0.3260
5.1510,-0.4323,0.9023,0.3260
5.1510,-0.4323,0.9023,0.3260
5.1510,-0.4323,0.9023,0.3260
5.1520,-0.4372,0.9006,0.3426
5.1710,-0.4372,0.9006,0.3426
5.1730,-0.4372,0.9006,0.3426
5.1740,-0.4372,0.9006,0.3426
5.1740,-0.4423,0.9099,0.3324
5.1740,-0.4423,0.9099,0.3324
5.2010,-0.4423,0.9099,0.3324
5.2010,-0.4423,0.9099,0.3324
5.2020,-0.4423,0.9099,0.3324
5.2020,-0.4433,0.9096,0.3187
5.2030,-0.4409,0.8991,0.3326
5.2330,-0.4409,0.8991,0.3326
5.2330,-0.4409,0.8991,0.3326
5.2330,-0.4409,0.8991,0.3326
5.2340,-0.4311,0.8932,0.3299
5.2550,-0.4311,0.8932,0.3299
5.2550,-0.4311,0.8932,0.3299
5.2550,-0.4311,0.8932,0.3299
5.2560,-0.4323,0.8908,0.3307
5.2560,-0.4323,0.8908,0.3307
5.2750,-0.4323,0.8908,0.3307
5.2820,-0.4323,0.8908,0.3307
5.2830,-0.4323,0.8908,0.3307
5.2830,-0.4323,0.8908,0.3307
5.2830,-0.4362,0.8925,0.3258
5.2830,-0.4223,0.9064,0.3245
5.3130,-0.4223,0.9064,0.3245
5.3140,-0.4223,0.9064,0.3245
5.3140,-0.4223,0.9064,0.3245
5.3150,-0.4157,0.9157,0.3143
5.3340,-0.4157,0.9157,0.3143
5.3350,-0.4157,0.9157,0.3143
5.3350,-0.4157,0.9157,0.3143
5.3350,-0.4182,0.9155,0.3329
5.3360,-0.4182,0.9155,0.3329
5.3630,-0.4182,0.9155,0.3329
5.3630,-0.4182,0.9155,0.3329
5.3640,-0.4182,0.9155,0.3329
5.3640,-0.4162,0.9111,0.3409
5.3640,-0.4230,0.9118,0.3228
5.3930,-0.4230,0.9118,0.3228
5.3940,-0.4230,0.9118,0.3228
5.3940,-0.4230,0.9118,0.3228
5.3950,-0.4379,0.9030,0.3316
5.4160,-0.4379,0.9030,0.3316
5.4180,-0.4379,0.9030,0.3316
5.4190,-0.4379,0.9030,0.3316
5.4190,-0.4460,0.8964,0.3314
5.4190,-0.4460,0.8964,0.3314
5.4420,-0.4460,0.8964,0.3314
5.4430,-0.4460,0.8964,0.3314
5.4430,-0.4460,0.8964,0.3314
5.4430,-0.4313,0.8998,0.3199
5.4440,-0.4013,0.9020,0.2735
5.4750,-0.4013,0.9020,0.2735
5.4760,-0.4013,0.9020,0.2735
5.4760,-0.4013,0.9020,0.2735
5.4770,-0.4108,0.9069,0.2591
5.4770,-0.4108,0.9069,0.2591
5.4970,-0.4108,0.9069,0.2591
5.5100,-0.4108,0.9069,0.2591
5.5110,-0.4108,0.9069,0.2591
5.5110,-0.4548,0.8979,0.3619
5.5110,-0.4548,0.8979,0.3619
5.5280,-0.4548,0.8979,0.3619
5.5300,-0.4548,0.8979,0.3619
5.5300,-0.4548,0.8979,0.3619
5.5300,-0.4746,0.8871,0.4516
5.5300,-0.5088,0.9023,0.3947
5.5520,-0.5088,0.9023,0.3947
5.5520,-0.5088,0.9023,0.3947
5.5520,-0.5088,0.9023,0.3947
5.5530,-0.4949,0.8896,0.3685
5.5720,-0.4949,0.8896,0.3685
5.5720,-0.4949,0.8896,0.3685
5.5730,-0.4949,0.8896,0.3685
5.5730,-0.4389,0.8681,0.3441
5.5740,-0.4389,0.8681,0.3441
5.6020,-0.4389,0.8681,0.3441
5.6020,-0.4389,0.8681,0.3441
5.6020,-0.4389,0.8681,0.3441
5.6030,-0.4250,0.8764,0.2906
5.6030,-0.4160,0.8908,0.2495
5.6320,-0.4160,0.8908,0.2495
5.6320,-0.4160,0.8908,0.2495
5.6330,-0.4160,0.8908,0.2495
5.6330,-0.4152,0.8989,0.2454
5.6550,-0.4152,0.8989,0.2454
5.6550,-0.4152,0.8989,0.2454
5.6560,-0.4152,0.8989,0.2454
5.6560,-0.4191,0.8876,0.3001
5.6560,-0.4191,0.8876,0.3001
5.6770,-0.4191,0.8876,0.3001
5.6830,-0.4191,0.8876,0.3001
5.6840,-0.4191,0.8876,0.3001
5.6840,-0.4191,0.8876,0.3001
5.6840,-0.4130,0.9113,0.3253
5.6850,-0.4362,0.9451,0.3270
5.7140,-0.4362,0.9451,0.3270
5.7150,-0.4362,0.9451,0.3270
5.7150,-0.4362,0.9451,0.3270
5.7150,-0.4560,0.9270,0.3795
5.7350,-0.4560,0.9270,0.3795
5.7360,-0.4560,0.9270,0.3795
5.7370,-0.4560,0.9270,0.3795
5.7370,-0.4541,0.8972,0.3883
5.7380,-0.4541,0.8972,0.3883
5.7630,-0.4541,0.8972,0.3883
5.7640,-0.4541,0.8972,0.3883
5.7640,-0.4541,0.8972,0.3883
5.7650,-0.4560,0.9011,0.3805
5.7650,-0.4431,0.9055,0.3727
5.7960,-0.4431,0.9055,0.3727
5.7980,-0.4431,0.9055,0.3727
5.7990,-0.4431,0.9055,0.3727
5.8000,-0.4128,0.8913,0.2686
5.8170,-0.4128,0.8913,0.2686
5.8180,-0.4128,0.8913,0.2686
5.8190,-0.4128,0.8913,0.2686
5.8200,-0.4120,0.8862,0.2312
5.8200,-0.4120,0.8862,0.2312
5.8430,-0.4120,0.8862,0.2312
5.8440,-0.4120,0.8862,0.2312
5.8450,-0.4120,0.8862,0.2312
5.8460,-0.4460,0.8756,0.2979
5.8470,-0.4714,0.8783,0.3492
5.8730,-0.4714,0.8783,0.3492
5.8750,-0.4714,0.8783,0.3492
5.8760,-0.4714,0.8783,0.3492
5.8790,-0.4714,0.8783,0.3492
5.8800,-0.4805,0.8974,0.3453
5.8810,-0.4805,0.8974,0.3453
5.8960,-0.4805,0.8974,0.3453
5.8970,-0.4805,0.8974,0.3453
5.8980,-0.4805,0.8974,0.3453
5.8990,-0.4521,0.9099,0.3365
5.9000,-0.4521,0.9099,0.3365
5.9240,-0.4521,0.9099,0.3365
5.9250,-0.4521,0.9099,0.3365
5.9260,-0.4521,0.9099,0.3365
5.9270,-0.4230,0.9123,0.3331
5.9280,-0.4140,0.9123,0.3162
5.9560,-0.4140,0.9123,0.3162
5.9560,-0.4140,0.9123,0.3162
5.9570,-0.4140,0.9123,0.3162
5.9580,-0.4108,0.9079,0.3111
5.9750,-0.4108,0.9079,0.3111
5.9760,-0.4108,0.9079,0.3111
5.9800,-0.4108,0.9079,0.3111
5.9820,-0.4208,0.9008,0.3299
5.9830,-0.4208,0.9008,0.3299
6.0050,-0.4208,0.9008,0.3299
6.0060,-0.4208,0.9008,0.3299
6.0070,-0.4208,0.9008,0.3299
6.0080,-0.4331,0.8967,0.3365
6.0090,-0.4399,0.8952,0.3387
6.0350,-0.4399,0.8952,0.3387
6.0360,-0.4399,0.8952,0.3387
6.0370,-0.4399,0.8952,0.3387
6.0380,-0.4411,0.8976,0.3348
6.0620,-0.4411,0.8976,0.3348
6.0630,-0.4411,0.8976,0.3348
6.0640,-0.4411,0.8976,0.3348
6.0640,-0.4463,0.9033,0.3219
6.0650,-0.4463,0.9033,0.3219
6.0750,-0.4463,0.9033,0.3219
6.0750,-0.4463,0.9033,0.3219
6.0840,-0.4463,0.9033,0.3219
6.0840,-0.4463,0.9033,0.3219
6.0850,-0.4463,0.9033,0.3219
6.0860,-0.4543,0.9047,0.3140
6.0860,-0.4514,0.8976,0.3292
6.1140,-0.4514,0.8976,0.3292
6.1150,-0.4514,0.8976,0.3292
6.1160,-0.4514,0.8976,0.3292
6.1170,-0.4367,0.8928,0.3380
6.1360,-0.4367,0.8928,0.3380
6.1370,-0.4367,0.8928,0.3380
6.1380,-0.4367,0.8928,0.3380
6.1380,-0.4274,0.8969,0.3148
6.1390,-0.4274,0.8969,0.3148
6.1650,-0.4274,0.8969,0.3148
6.1650,-0.4274,0.8969,0.3148
6.1660,-0.4274,0.8969,0.3148
6.1670,-0.4291,0.8998,0.3035
6.1680,-0.4345,0.8952,0.3172
6.1940,-0.4345,0.8952,0.3172
6.1950,-0.4345,0.8952,0.3172
6.1960,-0.4345,0.8952,0.3172
6.1970,-0.4360,0.8954,0.3285
6.2170,-0.4360,0.8954,0.3285
6.2170,-0.4360,0.8954,0.3285
6.2180,-0.4360,0.8954,0.3285
6.2180,-0.4294,0.9033,0.3299
6.2190,-0.4294,0.9033,0.3299
6.2450,-0.4294,0.9033,0.3299
6.2460,-0.4294,0.9033,0.3299
6.2460,-0.4294,0.9033,0.3299
6.2470,-0.4360,0.9069,0.3118
6.2480,-0.4394,0.9030,0.3143
6.2720,-0.4394,0.9030,0.3143
6.2770,-0.4394,0.9030,0.3143
6.2790,-0.4394,0.9030,0.3143
6.2800,-0.4394,0.9030,0.3143
6.2810,-0.4362,0.8986,0.3387
6.2820,-0.4362,0.8986,0.3387
6.2960,-0.4362,0.8986,0.3387
6.2980,-0.4362,0.8986,0.3387
6.2980,-0.4362,0.8986,0.3387
6.2990,-0.4265,0.8996,0.3304
6.3000,-0.4265,0.8996,0.3304
6.3240,-0.4265,0.8996,0.3304
6.3250,-0.4265,0.8996,0.3304
6.3250,-0.4265,0.8996,0.3304
6.3260,-0.4291,0.9050,0.3116
6.3260,-0.4348,0.9006,0.3255
6.3550,-0.4348,0.9006,0.3255
6.3560,-0.4348,0.9006,0.3255
6.3570,-0.4348,0.9006,0.3255
6.3570,-0.4382,0.9038,0.3270
6.3760,-0.4382,0.9038,0.3270
6.3770,-0.4382,0.9038,0.3270
6.3780,-0.4382,0.9038,0.3270
6.3790,-0.4472,0.9106,0.3209
6.3790,-0.4472,0.9106,0.3209
6.4050,-0.4472,0.9106,0.3209
6.4060,-0.4472,0.9106,0.3209
6.4070,-0.4472,0.9106,0.3209
6.4080,-0.4472,0.9096,0.3275
6.4080,-0.4406,0.9025,0.3184
6.4340,-0.4406,0.9025,0.3184
6.4350,-0.4406,0.9025,0.3184
6.4350,-0.4406,0.9025,0.3184
6.4370,-0.4382,0.8962,0.3148
6.4540,-0.4382,0.8962,0.3148
6.4550,-0.4382,0.8962,0.3148
6.4560,-0.4382,0.8962,0.3148
6.4560,-0.4338,0.8952,0.3275
6.4560,-0.4338,0.8952,0.3275
6.4840,-0.4338,0.8952,0.3275
6.4850,-0.4338,0.8952,0.3275
6.4860,-0.4338,0.8952,0.3275
6.4860,-0.4338,0.8952,0.3275
6.4870,-0.4282,0.9038,0.3248
6.4880,-0.4426,0.9104,0.3148
6.5140,-0.4426,0.9104,0.3148
6.5150,-0.4426,0.9104,0.3148
6.5160,-0.4426,0.9104,0.3148
6.5170,-0.4357,0.9006,0.3243
6.5360,-0.4357,0.9006,0.3243
6.5370,-0.4357,0.9006,0.3243
6.5380,-0.4357,0.9006,0.3243
6.5390,-0.4140,0.8928,0.3289
6.5400,-0.4140,0.8928,0.3289
6.5660,-0.4140,0.8928,0.3289
6.5680,-0.4140,0.8928,0.3289
6.5690,-0.4140,0.8928,0.3289
6.5700,-0.4179,0.8979,0.3184
6.5710,-0.4370,0.8981,0.3219
6.5960,-0.4370,0.8981,0.3219
6.6290,-0.4370,0.8981,0.3219
6.6450,-0.4370,0.8981,0.3219
6.6460,-0.4492,0.8906,0.3417
6.6460,-0.4492,0.8906,0.3417
6.6470,-0.4492,0.8906,0.3417
6.6480,-0.4492,0.8906,0.3417
6.6480,-0.4460,0.8910,0.3402
6.6490,-0.4460,0.8910,0.3402
6.6490,-0.4460,0.8910,0.3402
6.6500,-0.4460,0.8910,0.3402
6.6510,-0.4460,0.8910,0.3402
6.6520,-0.4313,0.8986,0.3143
6.6520,-0.4208,0.9025,0.3052
6.6740,-0.4208,0.9025,0.3052
6.6750,-0.4208,0.9025,0.3052
6.6750,-0.4208,0.9025,0.3052
6.6760,-0.4230,0.9055,0.3458
6.6770,-0.4230,0.9055,0.3458
6.6990,-0.4230,0.9055,0.3458
6.6990,-0.4230,0.9055,0.3458
6.7000,-0.4230,0.9055,0.3458
6.7010,-0.4265,0.9184,0.3568
6.7010,-0.4265,0.9184,0.3568
6.7240,-0.4265,0.9184,0.3568
6.7250,-0.4265,0.9184,0.3568
6.7250,-0.4265,0.9184,0.3568
6.7260,-0.4287,0.9253,0.3192
6.7270,-0.4282,0.9143,0.3140
6.7540,-0.4282,0.9143,0.3140
6.7550,-0.4282,0.9143,0.3140
6.7560,-0.4282,0.9143,0.3140
6.7560,-0.4304,0.8923,0.3473
6.7750,-0.4304,0.8923,0.3473
6.7760,-0.4304,0.8923,0.3473
6.7780,-0.4304,0.8923,0.3473
6.7790,-0.4182,0.8908,0.3419
6.7790,-0.4182,0.8908,0.3419
6.8050,-0.4182,0.8908,0.3419
6.8050,-0.4182,0.8908,0.3419
6.8060,-0.4182,0.8908,0.3419
6.8070,-0.4194,0.8998,0.3118
6.8070,-0.4345,0.8998,0.3082
6.8370,-0.4345,0.8998,0.3082
6.8380,-0.4345,0.8998,0.3082
6.8380,-0.4345,0.8998,0.3082
6.8390,-0.4472,0.8969,0.3104
6.8560,-0.4472,0.8969,0.3104
6.8580,-0.4472,0.8969,0.3104
6.8590,-0.4472,0.8969,0.3104
6.8600,-0.4568,0.8932,0.3055
6.8610,-0.4568,0.8932,0.3055
6.8750,-0.4568,0.8932,0.3055
6.8760,-0.4568,0.8932,0.3055
6.8860,-0.4568,0.8932,0.3055
6.8860,-0.4568,0.8932,0.3055
6.8870,-0.4568,0.8932,0.3055
6.8880,-0.4658,0.8798,0.3221
6.8880,-0.4785,0.8815,0.3568
6.9190,-0.4785,0.8815,0.3568
6.9200,-0.4785,0.8815,0.3568
6.9210,-0.4785,0.8815,0.3568
6.9220,-0.4707,0.8957,0.3646
6.9380,-0.4707,0.8957,0.3646
6.9390,-0.4707,0.8957,0.3646
6.9400,-0.4707,0.8957,0.3646
6.9410,-0.4568,0.9062,0.3431
6.9420,-0.4568,0.9062,0.3431
6.9660,-0.4568,0.9062,0.3431
6.9680,-0.4568,0.9062,0.3431
6.9690,-0.4568,0.9062,0.3431
6.9690,-0.4441,0.8979,0.3456
6.9710,-0.4162,0.8967,0.3404
6.9960,-0.4162,0.8967,0.3404
6.9980,-0.4162,0.8967,0.3404
6.9990,-0.4162,0.8967,0.3404
7.0000,-0.4223,0.9165,0.3202
7.0200,-0.4223,0.9165,0.3202
7.0210,-0.4223,0.9165,0.3202
7.0220,-0.4223,0.9165,0.3202
7.0230,-0.4370,0.9150,0.3175
7.0240,-0.4370,0.9150,0.3175
7.0460,-0.4370,0.9150,0.3175
7.0480,-0.4370,0.9150,0.3175
7.0490,-0.4370,0.9150,0.3175
7.0500,-0.4531,0.8886,0.3309
7.0510,-0.4467,0.8791,0.3556
7.0760,-0.4467,0.8791,0.3556
7.0780,-0.4467,0.8791,0.3556
7.0790,-0.4467,0.8791,0.3556
7.0800,-0.4467,0.8791,0.3556
7.0810,-0.4458,0.8847,0.3453
7.1010,-0.4458,0.8847,0.3453
7.1020,-0.4458,0.8847,0.3453
7.1040,-0.4458,0.8847,0.3453
7.1040,-0.4421,0.8945,0.3175
7.1050,-0.4421,0.8945,0.3175
7.1260,-0.4421,0.8945,0.3175
7.1270,-0.4421,0.8945,0.3175
7.1280,-0.4421,0.8945,0.3175
7.1290,-0.4453,0.9020,0.3136
7.1520,-0.4607,0.8972,0.3275
7.1550,-0.4607,0.8972,0.3275
7.1550,-0.4607,0.8972,0.3275
7.1560,-0.4607,0.8972,0.3275
7.1560,-0.4546,0.8771,0.3465
7.1760,-0.4546,0.8771,0.3465
7.1760,-0.4546,0.8771,0.3465
7.1760,-0.4546,0.8771,0.3465
7.1770,-0.4426,0.8742,0.3605
7.1770,-0.4426,0.8742,0.3605
7.2050,-0.4426,0.8742,0.3605
7.2060,-0.4426,0.8742,0.3605
7.2070,-0.4426,0.8742,0.3605
7.2080,-0.4345,0.8786,0.3568
7.2090,-0.4595,0.8800,0.3346
7.2350,-0.4595,0.8800,0.3346
7.2360,-0.4595,0.8800,0.3346
7.2370,-0.4595,0.8800,0.3346
7.2370,-0.4516,0.8901,0.3365
7.2560,-0.4516,0.8901,0.3365
7.2560,-0.4516,0.8901,0.3365
7.2570,-0.4516,0.8901,0.3365
7.2580,-0.4531,0.8876,0.3639
7.2590,-0.4531,0.8876,0.3639
7.2770,-0.4531,0.8876,0.3639
7.2850,-0.4531,0.8876,0.3639
7.2860,-0.4531,0.8876,0.3639
7.2870,-0.4531,0.8876,0.3639
7.2880,-0.4460,0.8798,0.3556
7.2890,-0.4416,0.8891,0.3155
7.3200,-0.4416,0.8891,0.3155
7.3210,-0.4416,0.8891,0.3155
7.3220,-0.4416,0.8891,0.3155
7.3230,-0.4404,0.9001,0.2942
7.3380,-0.4404,0.9001,0.2942
7.3390,-0.4404,0.9001,0.2942
7.3400,-0.4404,0.9001,0.2942
7.3410,-0.4646,0.8937,0.3243
7.3420,-0.4646,0.8937,0.3243
7.3670,-0.4646,0.8937,0.3243
7.3680,-0.4646,0.8937,0.3243
7.3690,-0.4646,0.8937,0.3243
7.3700,-0.4802,0.8862,0.3544
7.3710,-0.4680,0.8886,0.3654
7.3970,-0.4680,0.8886,0.3654
7.3990,-0.4680,0.8886,0.3654
7.4000,-0.4680,0.8886,0.3654
7.4010,-0.4458,0.8913,0.3602
7.4180,-0.4458,0.8913,0.3602
7.4190,-0.4458,0.8913,0.3602
7.4200,-0.4458,0.8913,0.3602
7.4210,-0.4382,0.8998,0.3216
7.4240,-0.4382,0.8998,0.3216
7.4460,-0.4382,0.8998,0.3216
7.4470,-0.4382,0.8998,0.3216
7.4470,-0.4382,0.8998,0.3216
7.4480,-0.4511,0.9018,0.3077
7.4490,-0.4590,0.8930,0.3270
7.4720,-0.4590,0.8930,0.3270
7.4750,-0.4590,0.8930,0.3270
7.4780,-0.4590,0.8930,0.3270
7.4790,-0.4590,0.8930,0.3270
7.4800,-0.4590,0.8930,0.3270
7.4810,-0.4507,0.8869,0.3321
7.4960,-0.4507,0.8869,0.3321
7.4970,-0.4507,0.8869,0.3321
7.4980,-0.4507,0.8869,0.3321
7.4990,-0.4397,0.8857,0.3221
7.5000,-0.4397,0.8857,0.3221
7.5260,-0.4397,0.8857,0.3221
7.5270,-0.4397,0.8857,0.3221
7.5280,-0.4397,0.8857,0.3221
7.5290,-0.4289,0.8791,0.3199
7.5300,-0.4201,0.8849,0.3439
7.5570,-0.4201,0.8849,0.3439
7.5580,-0.4201,0.8849,0.3439
7.5590,-0.4201,0.8849,0.3439
7.5600,-0.4186,0.8989,0.3355
7.5790,-0.4186,0.8989,0.3355
7.5800,-0.4186,0.8989,0.3355
7.5810,-0.4186,0.8989,0.3355
7.5820,-0.4389,0.9069,0.3138
7.5820,-0.4389,0.9069,0.3138
7.6070,-0.4389,0.9069,0.3138
7.6080,-0.4389,0.9069,0.3138
7.6090,-0.4389,0.9069,0.3138
7.6100,-0.4560,0.9016,0.3282
7.6110,-0.4602,0.8918,0.3495
7.6360,-0.4602,0.8918,0.3495
7.6360,-0.4602,0.8918,0.3495
7.6370,-0.4602,0.8918,0.3495
7.6380,-0.4492,0.8908,0.3495
7.6590,-0.4492,0.8908,0.3495
7.6600,-0.4492,0.8908,0.3495
7.6610,-0.4492,0.8908,0.3495
7.6620,-0.4375,0.9016,0.3289
7.6630,-0.4375,0.9016,0.3289
7.6740,-0.4375,0.9016,0.3289
7.6760,-0.4375,0.9016,0.3289
7.6860,-0.4375,0.9016,0.3289
7.7080,-0.4375,0.9016,0.3289
7.7090,-0.4375,0.9016,0.3289
7.7100,-0.4443,0.9013,0.3189
7.7110,-0.4541,0.8932,0.3404
7.7150,-0.4541,0.8932,0.3404
7.7180,-0.4541,0.8932,0.3404
7.7190,-0.4541,0.8932,0.3404
7.7190,-0.4475,0.8928,0.3363
7.7350,-0.4475,0.8928,0.3363
7.7350,-0.4475,0.8928,0.3363
7.7350,-0.4475,0.8928,0.3363
7.7360,-0.4345,0.8940,0.3187
7.7360,-0.4345,0.8940,0.3187
7.7640,-0.4345,0.8940,0.3187
7.7650,-0.4345,0.8940,0.3187
7.7650,-0.4345,0.8940,0.3187
7.7650,-0.4274,0.8813,0.3311
7.7660,-0.4416,0.8783,0.3282
7.7940,-0.4416,0.8783,0.3282
7.7960,-0.4416,0.8783,0.3282
7.7960,-0.4416,0.8783,0.3282
7.7970,-0.4465,0.9020,0.3167
7.8190,-0.4465,0.9020,0.3167
7.8200,-0.4465,0.9020,0.3167
7.8210,-0.4465,0.9020,0.3167
7.8220,-0.4463,0.9111,0.3138
7.8230,-0.4463,0.9111,0.3138
7.8460,-0.4463,0.9111,0.3138
7.8470,-0.4463,0.9111,0.3138
7.8480,-0.4463,0.9111,0.3138
7.8490,-0.4399,0.8964,0.3158
7.8500,-0.4467,0.8800,0.3412
7.8760,-0.4467,0.8800,0.3412
7.8770,-0.4467,0.8800,0.3412
7.8790,-0.4467,0.8800,0.3412
7.8810,-0.4467,0.8800,0.3412
7.8820,-0.4634,0.8786,0.3527
7.8990,-0.4634,0.8786,0.3527
7.9000,-0.4634,0.8786,0.3527
7.9010,-0.4634,0.8786,0.3527
7.9020,-0.4712,0.8788,0.3500
7.9030,-0.4712,0.8788,0.3500
7.9280,-0.4712,0.8788,0.3500
7.9290,-0.4712,0.8788,0.3500
7.9300,-0.4712,0.8788,0.3500
7.9310,-0.4641,0.8840,0.3446
7.9320,-0.4480,0.8915,0.3429
7.9570,-0.4480,0.8915,0.3429
7.9580,-0.4480,0.8915,0.3429
7.9590,-0.4480,0.8915,0.3429
7.9610,-0.4394,0.8945,0.3456
7.9810,-0.4394,0.8945,0.3456
7.9830,-0.4394,0.8945,0.3456
7.9840,-0.4394,0.8945,0.3456
7.9850,-0.4372,0.8998,0.3446
7.9860,-0.4372,0.8998,0.3446
8.0080,-0.4372,0.8998,0.3446
8.0090,-0.4372,0.8998,0.3446
8.0110,-0.4372,0.8998,0.3446
8.0120,-0.4472,0.9018,0.3385
8.0140,-0.4357,0.9086,0.3331
8.0360,-0.4357,0.9086,0.3331
8.0370,-0.4357,0.9086,0.3331
8.0380,-0.4357,0.9086,0.3331
8.0390,-0.4431,0.9052,0.3172
8.0580,-0.4431,0.9052,0.3172
8.0590,-0.4431,0.9052,0.3172
8.0600,-0.4431,0.9052,0.3172
8.0610,-0.4668,0.8840,0.3123
8.0620,-0.4668,0.8840,0.3123
8.0770,-0.4668,0.8840,0.3123
8.0880,-0.4668,0.8840,0.3123
8.0890,-0.4668,0.8840,0.3123
8.0900,-0.4668,0.8840,0.3123
8.0900,-0.4680,0.8573,0.3370
8.0910,-0.4587,0.8549,0.3641
8.1200,-0.4587,0.8549,0.3641
8.1210,-0.4587,0.8549,0.3641
8.1220,-0.4587,0.8549,0.3641
8.1230,-0.4577,0.8686,0.3737
8.1380,-0.4577,0.8686,0.3737
8.1390,-0.4577,0.8686,0.3737
8.1400,-0.4577,0.8686,0.3737
8.1410,-0.4626,0.8803,0.3402
8.1420,-0.4626,0.8803,0.3402
8.1670,-0.4626,0.8803,0.3402
8.1680,-0.4626,0.8803,0.3402
8.1680,-0.4626,0.8803,0.3402
8.1690,-0.4651,0.8800,0.3250
8.1700,-0.4670,0.8815,0.3527
8.1970,-0.4670,0.8815,0.3527
8.1980,-0.4670,0.8815,0.3527
8.1990,-0.4670,0.8815,0.3527
8.2000,-0.4516,0.8945,0.3683
8.2180,-0.4516,0.8945,0.3683
8.2200,-0.4516,0.8945,0.3683
8.2210,-0.4516,0.8945,0.3683
8.2220,-0.4372,0.9072,0.3483
8.2230,-0.4372,0.9072,0.3483
8.2470,-0.4372,0.9072,0.3483
8.2670,-0.4372,0.9072,0.3483
8.2680,-0.4372,0.9072,0.3483
8.2690,-0.4338,0.9040,0.3292
8.2700,-0.4382,0.8959,0.3348
8.2740,-0.4382,0.8959,0.3348
8.2770,-0.4382,0.8959,0.3348
8.2780,-0.4382,0.8959,0.3348
8.2780,-0.4382,0.8959,0.3348
8.2790,-0.4345,0.8896,0.3690
8.2960,-0.4345,0.8896,0.3690
8.2970,-0.4345,0.8896,0.3690
8.2970,-0.4345,0.8896,0.3690
8.2980,-0.4301,0.8906,0.3544
8.2990,-0.4301,0.8906,0.3544
8.3260,-0.4301,0.8906,0.3544
8.3280,-0.4301,0.8906,0.3544
8.3290,-0.4301,0.8906,0.3544
8.3310,-0.4377,0.8930,0.3265
8.3320,-0.4414,0.8822,0.3436
8.3590,-0.4414,0.8822,0.3436
8.3600,-0.4414,0.8822,0.3436
8.3610,-0.4414,0.8822,0.3436
8.3620,-0.4480,0.8835,0.3568
8.3800,-0.4480,0.8835,0.3568
8.3810,-0.4480,0.8835,0.3568
8.3820,-0.4480,0.8835,0.3568
8.3830,-0.4524,0.8932,0.3461
8.3840,-0.4524,0.8932,0.3461
8.4080,-0.4524,0.8932,0.3461
8.4090,-0.4524,0.8932,0.3461
8.4110,-0.4524,0.8932,0.3461
8.4110,-0.4570,0.8918,0.3253
8.4120,-0.4551,0.8781,0.3355
8.4370,-0.4551,0.8781,0.3355
8.4380,-0.4551,0.8781,0.3355
8.4390,-0.4551,0.8781,0.3355
8.4400,-0.4551,0.8774,0.3531
8.4590,-0.4551,0.8774,0.3531
8.4590,-0.4551,0.8774,0.3531
8.4600,-0.4551,0.8774,0.3531
8.4610,-0.4536,0.8898,0.3199
8.4620,-0.4536,0.8898,0.3199
8.4780,-0.4536,0.8898,0.3199
8.4870,-0.4536,0.8898,0.3199
8.4880,-0.4536,0.8898,0.3199
8.4890,-0.4536,0.8898,0.3199
8.4890,-0.4577,0.8945,0.3180
8.4900,-0.4587,0.8930,0.3353
8.5170,-0.4587,0.8930,0.3353
8.5190,-0.4587,0.8930,0.3353
8.5190,-0.4587,0.8930,0.3353
8.5200,-0.4472,0.8976,0.3434
8.5390,-0.4472,0.8976,0.3434
8.5400,-0.4472,0.8976,0.3434
8.5410,-0.4472,0.8976,0.3434
8.5420,-0.4353,0.8942,0.3302
8.5430,-0.4353,0.8942,0.3302
8.5690,-0.4353,0.8942,0.3302
8.5700,-0.4353,0.8942,0.3302
8.5710,-0.4353,0.8942,0.3302
8.5720,-0.4345,0.8857,0.3219
8.5730,-0.4375,0.8830,0.3544
8.5970,-0.4375,0.8830,0.3544
8.5980,-0.4375,0.8830,0.3544
8.5990,-0.4375,0.8830,0.3544
8.6000,-0.4382,0.8932,0.3563
8.6180,-0.4382,0.8932,0.3563
8.6190,-0.4382,0.8932,0.3563
8.6200,-0.4382,0.8932,0.3563
8.6210,-0.4497,0.9003,0.3363
8.6220,-0.4497,0.9003,0.3363
8.6470,-0.4497,0.9003,0.3363
8.6480,-0.4497,0.9003,0.3363
8.6490,-0.4497,0.9003,0.3363
8.6500,-0.4565,0.8967,0.3409
8.6510,-0.4460,0.9023,0.3336
8.6740,-0.4460,0.9023,0.3336
8.6780,-0.4460,0.9023,0.3336
8.6790,-0.4460,0.9023,0.3336
8.6800,-0.4460,0.9023,0.3336
8.6810,-0.4460,0.9023,0.3336
8.6830,-0.4262,0.9038,0.3297
8.6980,-0.4262,0.9038,0.3297
8.6990,-0.4262,0.9038,0.3297
8.7000,-0.4262,0.9038,0.3297
8.7010,-0.4367,0.8888,0.3167
8.7020,-0.4367,0.8888,0.3167
8.7280,-0.4367,0.8888,0.3167
8.7290,-0.4367,0.8888,0.3167
8.7300,-0.4367,0.8888,0.3167
8.7320,-0.4651,0.8669,0.3487
8.7320,-0.4712,0.8703,0.3644
8.7600,-0.4712,0.8703,0.3644
8.7610,-0.4712,0.8703,0.3644
8.7620,-0.4712,0.8703,0.3644
8.7620,-0.4570,0.8957,0.3270
8.7780,-0.4570,0.8957,0.3270
8.7780,-0.4570,0.8957,0.3270
8.7790,-0.4570,0.8957,0.3270
8.7800,-0.4551,0.8937,0.3111
8.7950,-0.4551,0.8937,0.3111
8.8060,-0.4551,0.8937,0.3111
8.8060,-0.4551,0.8937,0.3111
8.8070,-0.4551,0.8937,0.3111
8.8070,-0.4560,0.8756,0.3492
8.8080,-0.4558,0.8776,0.3627
8.8350,-0.4558,0.8776,0.3627
8.8360,-0.4558,0.8776,0.3627
8.8360,-0.4558,0.8776,0.3627
8.8370,-0.4431,0.8984,0.3282
8.8570,-0.4431,0.8984,0.3282
8.8570,-0.4431,0.8984,0.3282
8.8580,-0.4431,0.8984,0.3282
8.8580,-0.4331,0.9116,0.3162
8.8590,-0.4331,0.9116,0.3162
8.8710,-0.4331,0.9116,0.3162
8.8740,-0.4331,0.9116,0.3162
8.8860,-0.4331,0.9116,0.3162
8.8870,-0.4331,0.9116,0.3162
8.8870,-0.4331,0.9116,0.3162
8.8870,-0.4365,0.8962,0.3458
8.8880,-0.4421,0.8769,0.3605
8.9180,-0.4421,0.8769,0.3605
8.9190,-0.4421,0.8769,0.3605
8.9200,-0.4421,0.8769,0.3605
8.9210,-0.4433,0.8837,0.3424
8.9380,-0.4433,0.8837,0.3424
8.9390,-0.4433,0.8837,0.3424
8.9400,-0.4433,0.8837,0.3424
8.9410,-0.4553,0.9020,0.3326
8.9420,-0.4553,0.9020,0.3326
8.9690,-0.4553,0.9020,0.3326
8.9700,-0.4553,0.9020,0.3326
8.9720,-0.4553,0.9020,0.3326
8.9730,-0.4553,0.9023,0.3299
8.9740,-0.4467,0.8886,0.3241
8.9980,-0.4467,0.8886,0.3241
8.9990,-0.4467,0.8886,0.3241
9.0000,-0.4467,0.8886,0.3241
9.0010,-0.4541,0.8805,0.3495
9.0180,-0.4541,0.8805,0.3495
9.0190,-0.4541,0.8805,0.3495
9.0210,-0.4541,0.8805,0.3495
9.0220,-0.4558,0.8798,0.3654
9.0230,-0.4558,0.8798,0.3654
9.0480,-0.4558,0.8798,0.3654
9.0490,-0.4558,0.8798,0.3654
9.0490,-0.4558,0.8798,0.3654
9.0500,-0.4504,0.8896,0.3336
9.0500,-0.4445,0.9001,0.3282
9.0740,-0.4445,0.9001,0.3282
9.0750,-0.4445,0.9001,0.3282
9.0790,-0.4445,0.9001,0.3282
9.0800,-0.4445,0.9001,0.3282
9.0810,-0.4445,0.9001,0.3282
9.0820,-0.4526,0.9038,0.3265
9.0980,-0.4526,0.9038,0.3265
9.1000,-0.4526,0.9038,0.3265
9.1010,-0.4526,0.9038,0.3265
9.1020,-0.4455,0.8915,0.3351
9.1030,-0.4455,0.8915,0.3351
9.1290,-0.4455,0.8915,0.3351
9.1300,-0.4455,0.8915,0.3351
9.1310,-0.4455,0.8915,0.3351
9.1320,-0.4355,0.8835,0.3507
9.1330,-0.4375,0.8886,0.3490
9.1610,-0.4375,0.8886,0.3490
9.1620,-0.4375,0.8886,0.3490
9.1630,-0.4375,0.8886,0.3490
9.1640,-0.4470,0.8954,0.3341
9.1800,-0.4470,0.8954,0.3341
9.1810,-0.4470,0.8954,0.3341
9.1820,-0.4470,0.8954,0.3341
9.1830,-0.4524,0.8954,0.3165
9.1840,-0.4524,0.8954,0.3165
9.2120,-0.4524,0.8954,0.3165
9.2140,-0.4524,0.8954,0.3165
9.2150,-0.4524,0.8954,0.3165
9.2160,-0.4577,0.8913,0.3292
9.2180,-0.4595,0.8854,0.3397
9.2380,-0.4595,0.8854,0.3397
9.2390,-0.4595,0.8854,0.3397
9.2400,-0.4595,0.8854,0.3397
9.2410,-0.4624,0.8857,0.3263
9.2610,-0.4624,0.8857,0.3263
9.2620,-0.4624,0.8857,0.3263
9.2620,-0.4624,0.8857,0.3263
9.2630,-0.4516,0.8915,0.3353
9.2640,-0.4516,0.8915,0.3353
9.2730,-0.4516,0.8915,0.3353
9.2760,-0.4516,0.8915,0.3353
9.2880,-0.4516,0.8915,0.3353
9.2890,-0.4516,0.8915,0.3353
9.2900,-0.4516,0.8915,0.3353
9.2910,-0.4389,0.9008,0.3355
9.2910,-0.4450,0.9018,0.3326
9.3190,-0.4450,0.9018,0.3326
9.3200,-0.4450,0.9018,0.3326
9.3210,-0.4450,0.9018,0.3326
9.3210,-0.4482,0.8930,0.3331
9.3410,-0.4482,0.8930,0.3331
9.3420,-0.4482,0.8930,0.3331
9.3440,-0.4482,0.8930,0.3331
9.3450,-0.4426,0.8901,0.3343
9.3450,-0.4426,0.8901,0.3343
9.3690,-0.4426,0.8901,0.3343
9.3700,-0.4426,0.8901,0.3343
9.3700,-0.4426,0.8901,0.3343
9.3710,-0.4411,0.8852,0.3282
9.3720,-0.4384,0.8742,0.3148
9.3970,-0.4384,0.8742,0.3148
9.3980,-0.4384,0.8742,0.3148
9.3980,-0.4384,0.8742,0.3148
9.3990,-0.4521,0.8678,0.3358
9.4180,-0.4521,0.8678,0.3358
9.4190,-0.4521,0.8678,0.3358
9.4200,-0.4521,0.8678,0.3358
9.4200,-0.4607,0.8671,0.3754
9.4210,-0.4607,0.8671,0.3754
9.4490,-0.4607,0.8671,0.3754
9.4500,-0.4607,0.8671,0.3754
9.4500,-0.4607,0.8671,0.3754
9.4510,-0.4592,0.8896,0.3715
9.4510,-0.4707,0.9138,0.3431
9.4750,-0.4707,0.9138,0.3431
9.4760,-0.4707,0.9138,0.3431
9.4800,-0.4707,0.9138,0.3431
9.4810,-0.4707,0.9138,0.3431
9.4820,-0.4707,0.9138,0.3431
9.4820,-0.4802,0.8989,0.3395
9.4990,-0.4802,0.8989,0.3395
9.5010,-0.4802,0.8989,0.3395
9.5010,-0.4802,0.8989,0.3395
9.5020,-0.4792,0.8698,0.3607
9.5030,-0.4792,0.8698,0.3607
9.5280,-0.4792,0.8698,0.3607
9.5290,-0.4792,0.8698,0.3607
9.5300,-0.4792,0.8698,0.3607
9.5310,-0.4661,0.8612,0.3871
9.5320,-0.4365,0.8781,0.3622
9.5610,-0.4365,0.8781,0.3622
9.5620,-0.4365,0.8781,0.3622
9.5630,-0.4365,0.8781,0.3622
9.5640,-0.4186,0.9018,0.3089
9.5800,-0.4186,0.9018,0.3089
9.5810,-0.4186,0.9018,0.3089
9.5820,-0.4186,0.9018,0.3089
9.5830,-0.4265,0.8986,0.2962
9.5840,-0.4265,0.8986,0.2962
9.6090,-0.4265,0.8986,0.2962
9.6100,-0.4265,0.8986,0.2962
9.6110,-0.4265,0.8986,0.2962
9.6120,-0.4494,0.8837,0.3421
9.6120,-0.4582,0.8761,0.3754
9.6420,-0.4582,0.8761,0.3754
9.6430,-0.4582,0.8761,0.3754
9.6440,-0.4582,0.8761,0.3754
9.6450,-0.4463,0.8866,0.3632
9.6600,-0.4463,0.8866,0.3632
9.6610,-0.4463,0.8866,0.3632
9.6620,-0.4463,0.8866,0.3632
9.6630,-0.4419,0.9042,0.3412
9.6630,-0.4419,0.9042,0.3412
9.6730,-0.4419,0.9042,0.3412
9.6750,-0.4419,0.9042,0.3412
9.6910,-0.4419,0.9042,0.3412
9.6920,-0.4419,0.9042,0.3412
9.6940,-0.4419,0.9042,0.3412
9.6950,-0.4360,0.9086,0.3299
9.6950,-0.4213,0.9060,0.3094
9.7180,-0.4213,0.9060,0.3094
9.7190,-0.4213,0.9060,0.3094
9.7200,-0.4213,0.9060,0.3094
9.7210,-0.4338,0.8947,0.3270
9.7390,-0.4338,0.8947,0.3270
9.7410,-0.4338,0.8947,0.3270
9.7420,-0.4338,0.8947,0.3270
9.7420,-0.4577,0.8720,0.3424
9.7430,-0.4577,0.8720,0.3424
9.7690,-0.4577,0.8720,0.3424
9.7710,-0.4577,0.8720,0.3424
9.7720,-0.4577,0.8720,0.3424
9.7730,-0.4526,0.8683,0.3348
9.7740,-0.4551,0.8747,0.3429
9.8010,-0.4551,0.8747,0.3429
9.8020,-0.4551,0.8747,0.3429
9.8030,-0.4551,0.8747,0.3429
9.8040,-0.4548,0.8852,0.3387
9.8200,-0.4548,0.8852,0.3387
9.8220,-0.4548,0.8852,0.3387
9.8230,-0.4548,0.8852,0.3387
9.8240,-0.4551,0.8915,0.3333
9.8250,-0.4551,0.8915,0.3333
9.8490,-0.4551,0.8915,0.3333
9.8500,-0.4551,0.8915,0.3333
9.8510,-0.4551,0.8915,0.3333
9.8510,-0.4492,0.8962,0.3336
9.8520,-0.4362,0.9018,0.3341
9.8720,-0.4362,0.9018,0.3341
9.8750,-0.4362,0.9018,0.3341
9.8930,-0.4362,0.9018,0.3341
9.8940,-0.4362,0.9018,0.3341
9.8940,-0.4362,0.9018,0.3341
9.8950,-0.4233,0.8986,0.3226
9.9000,-0.4233,0.8986,0.3226
9.9000,-0.4233,0.8986,0.3226
9.9010,-0.4233,0.8986,0.3226
9.9020,-0.4225,0.8791,0.3267
9.9020,-0.4225,0.8791,0.3267
9.9270,-0.4225,0.8791,0.3267
9.9280,-0.4225,0.8791,0.3267
9.9280,-0.4225,0.8791,0.3267
9.9290,-0.4199,0.8739,0.3483
9.9290,-0.4245,0.9040,0.3224
9.9580,-0.4245,0.9040,0.3224
9.9590,-0.4245,0.9040,0.3224
9.9600,-0.4245,0.9040,0.3224
9.9610,-0.4282,0.9111,0.3226
9.9790,-0.4282,0.9111,0.3226
9.9800,-0.4282,0.9111,0.3226
9.9810,-0.4282,0.9111,0.3226
9.9810,-0.4489,0.8864,0.3541
9.9820,-0.4489,0.8864,0.3541
10.0080,-0.4489,0.8864,0.3541
10.0090,-0.4489,0.8864,0.3541
10.0110,-0.4489,0.8864,0.3541
10.0120,-0.4621,0.8683,0.4028
10.0120,-0.4617,0.8786,0.4084
10.0380,-0.4617,0.8786,0.4084
10.0390,-0.4617,0.8786,0.4084
10.0410,-0.4617,0.8786,0.4084
10.0420,-0.4538,0.9084,0.3558
10.0600,-0.4538,0.9084,0.3558
10.0610,-0.4538,0.9084,0.3558
10.0620,-0.4538,0.9084,0.3558
10.0630,-0.4519,0.9235,0.3143
10.0640,-0.4519,0.9235,0.3143
10.0740,-0.4519,0.9235,0.3143
10.0760,-0.4519,0.9235,0.3143
10.0900,-0.4519,0.9235,0.3143
10.0920,-0.4519,0.9235,0.3143
10.0930,-0.4519,0.9235,0.3143
10.0940,-0.4465,0.9074,0.3255
10.0950,-0.4399,0.8876,0.3651
10.1200,-0.4399,0.8876,0.3651
10.1210,-0.4399,0.8876,0.3651
10.1220,-0.4399,0.8876,0.3651
10.1230,-0.4326,0.8778,0.3839
10.1410,-0.4326,0.8778,0.3839
10.1420,-0.4326,0.8778,0.3839
10.1430,-0.4326,0.8778,0.3839
10.1440,-0.4111,0.8915,0.3707
10.1450,-0.4111,0.8915,0.3707
10.1690,-0.4111,0.8915,0.3707
10.1700,-0.4111,0.8915,0.3707
10.1700,-0.4111,0.8915,0.3707
10.1710,-0.4015,0.9079,0.3380
10.1720,-0.4140,0.9062,0.3329
10.1980,-0.4140,0.9062,0.3329
10.1990,-0.4140,0.9062,0.3329
10.2000,-0.4140,0.9062,0.3329
10.2000,-0.4206,0.8998,0.3637
10.2210,-0.4206,0.8998,0.3637
10.2210,-0.4206,0.8998,0.3637
10.2220,-0.4206,0.8998,0.3637
10.2230,-0.4218,0.8913,0.3722
10.2230,-0.4218,0.8913,0.3722
10.2500,-0.4218,0.8913,0.3722
10.2520,-0.4218,0.8913,0.3722
10.2530,-0.4218,0.8913,0.3722
10.2540,-0.4147,0.8976,0.3377
10.2550,-0.4186,0.9003,0.3343
10.2750,-0.4186,0.9003,0.3343
10.2780,-0.4186,0.9003,0.3343
10.2790,-0.4186,0.9003,0.3343
10.2800,-0.4186,0.9003,0.3343
10.2810,-0.4186,0.9003,0.3343
10.2820,-0.4472,0.8852,0.3453
10.3010,-0.4472,0.8852,0.3453
10.3020,-0.4472,0.8852,0.3453
10.3040,-0.4472,0.8852,0.3453
10.3050,-0.4570,0.8688,0.3519
10.3060,-0.4570,0.8688,0.3519
10.3290,-0.4570,0.8688,0.3519
10.3330,-0.4570,0.8688,0.3519
10.3350,-0.4570,0.8688,0.3519
10.3350,-0.4279,0.8942,0.3585
10.3360,-0.4184,0.9150,0.3206
10.3590,-0.4184,0.9150,0.3206
10.3600,-0.4184,0.9150,0.3206
10.3610,-0.4184,0.9150,0.3206
10.3610,-0.4340,0.9003,0.3052
10.3800,-0.4340,0.9003,0.3052
10.3810,-0.4340,0.9003,0.3052
10.3810,-0.4340,0.9003,0.3052
10.3820,-0.4477,0.8686,0.3285
10.3820,-0.4477,0.8686,0.3285
10.4090,-0.4477,0.8686,0.3285
10.4100,-0.4477,0.8686,0.3285
10.4100,-0.4477,0.8686,0.3285
10.4260,-0.4372,0.8725,0.3426
10.4270,-0.4279,0.8994,0.3473
10.4380,-0.4279,0.8994,0.3473
10.4390,-0.4279,0.8994,0.3473
10.4390,-0.4279,0.8994,0.3473
10.4390,-0.4299,0.9148,0.3302
10.4590,-0.4299,0.9148,0.3302
10.4590,-0.4299,0.9148,0.3302
10.4590,-0.4299,0.9148,0.3302
10.4650,-0.4225,0.9267,0.3248
10.4660,-0.4225,0.9267,0.3248
10.4720,-0.4225,0.9267,0.3248
10.4750,-0.4225,0.9267,0.3248
10.4900,-0.4225,0.9267,0.3248
10.4900,-0.4225,0.9267,0.3248
10.4920,-0.4225,0.9267,0.3248
10.4920,-0.4182,0.9287,0.3321
10.4930,-0.4294,0.9130,0.3162
10.5200,-0.4294,0.9130,0.3162
10.5200,-0.4294,0.9130,0.3162
10.5210,-0.4294,0.9130,0.3162
10.5220,-0.4289,0.8942,0.3248
10.5400,-0.4289,0.8942,0.3248
10.5410,-0.4289,0.8942,0.3248
10.5420,-0.4289,0.8942,0.3248
10.5420,-0.4265,0.8842,0.3712
10.5430,-0.4265,0.8842,0.3712
10.5710,-0.4265,0.8842,0.3712
10.5720,-0.4265,0.8842,0.3712
10.5730,-0.4265,0.8842,0.3712
10.5740,-0.4279,0.8928,0.3671
10.5750,-0.4355,0.9086,0.3309
10.5990,-0.4355,0.9086,0.3309
10.6000,-0.4355,0.9086,0.3309
10.6010,-0.4355,0.9086,0.3309
10.6020,-0.4277,0.9052,0.3150
10.6220,-0.4277,0.9052,0.3150
10.6240,-0.4277,0.9052,0.3150
10.6250,-0.4277,0.9052,0.3150
10.6260,-0.4189,0.8925,0.3035
10.6270,-0.4189,0.8925,0.3035
10.6510,-0.4189,0.8925,0.3035
10.6520,-0.4189,0.8925,0.3035
10.6530,-0.4189,0.8925,0.3035
10.6540,-0.4269,0.8830,0.3373
10.6550,-0.4311,0.8852,0.3585
10.6720,-0.4311,0.8852,0.3585
10.6750,-0.4311,0.8852,0.3585
10.6800,-0.4311,0.8852,0.3585
10.6810,-0.4311,0.8852,0.3585
10.6820,-0.4311,0.8852,0.3585
10.6840,-0.4294,0.8893,0.3465
10.7020,-0.4294,0.8893,0.3465
10.7030,-0.4294,0.8893,0.3465
10.7050,-0.4294,0.8893,0.3465
10.7050,-0.4279,0.8994,0.3311
10.7060,-0.4279,0.8994,0.3311
10.7330,-0.4279,0.8994,0.3311
10.7360,-0.4279,0.8994,0.3311
10.7370,-0.4279,0.8994,0.3311
10.7380,-0.4323,0.8935,0.3343
10.7390,-0.4421,0.9025,0.3448
10.7600,-0.4421,0.9025,0.3448
10.7610,-0.4421,0.9025,0.3448
10.7620,-0.4421,0.9025,0.3448
10.7630,-0.4260,0.9270,0.3365
10.7840,-0.4260,0.9270,0.3365
10.7850,-0.4260,0.9270,0.3365
10.7860,-0.4260,0.9270,0.3365
10.7880,-0.4135,0.9216,0.3160
10.7890,-0.4135,0.9216,0.3160
10.8130,-0.4135,0.9216,0.3160
10.8140,-0.4135,0.9216,0.3160
10.8160,-0.4135,0.9216,0.3160
10.8180,-0.4240,0.8937,0.3434
10.8190,-0.4277,0.8918,0.3595
10.8400,-0.4277,0.8918,0.3595
10.8410,-0.4277,0.8918,0.3595
10.8410,-0.4277,0.8918,0.3595
10.8420,-0.4225,0.8876,0.4006
10.8610,-0.4225,0.8876,0.4006
10.8620,-0.4225,0.8876,0.4006
10.8620,-0.4225,0.8876,0.4006
10.8630,-0.4113,0.9033,0.3874
10.8640,-0.4113,0.9033,0.3874
10.8750,-0.4113,0.9033,0.3874
10.8910,-0.4113,0.9033,0.3874
10.8920,-0.4113,0.9033,0.3874
10.8920,-0.4113,0.9033,0.3874
10.8930,-0.3981,0.9167,0.3353
10.8940,-0.4186,0.8945,0.3221
10.9210,-0.4186,0.8945,0.3221
10.9220,-0.4186,0.8945,0.3221
10.9230,-0.4186,0.8945,0.3221
10.9240,-0.4318,0.8950,0.3089
10.9410,-0.4318,0.8950,0.3089
10.9420,-0.4318,0.8950,0.3089
10.9420,-0.4318,0.8950,0.3089
10.9430,-0.4433,0.9016,0.3377
10.9440,-0.4433,0.9016,0.3377
10.9710,-0.4433,0.9016,0.3377
10.9720,-0.4433,0.9016,0.3377
10.9730,-0.4433,0.9016,0.3377
10.9740,-0.4423,0.9116,0.3370
10.9740,-0.4179,0.9086,0.3245
10.9980,-0.4179,0.9086,0.3245
10.9990,-0.4179,0.9086,0.3245
10.9990,-0.4179,0.9086,0.3245
10.9990,-0.4150,0.8937,0.3434
11.0190,-0.4150,0.8937,0.3434
11.0190,-0.4150,0.8937,0.3434
11.0190,-0.4150,0.8937,0.3434
11.0200,-0.4145,0.8950,0.3634
11.0200,-0.4145,0.8950,0.3634
11.0490,-0.4145,0.8950,0.3634
11.0490,-0.4145,0.8950,0.3634
11.0490,-0.4145,0.8950,0.3634
11.0500,-0.4194,0.9064,0.3605
11.0500,-0.4225,0.8979,0.3627
11.0750,-0.4225,0.8979,0.3627
11.0820,-0.4225,0.8979,0.3627
11.0830,-0.4225,0.8979,0.3627
11.0840,-0.4225,0.8979,0.3627
11.0850,-0.4331,0.8935,0.3612
11.1010,-0.4331,0.8935,0.3612
11.1020,-0.4331,0.8935,0.3612
11.1020,-0.4331,0.8935,0.3612
11.1030,-0.4301,0.9045,0.3446
11.1030,-0.4301,0.9045,0.3446
11.1360,-0.4301,0.9045,0.3446
11.1380,-0.4301,0.9045,0.3446
11.1390,-0.4301,0.9045,0.3446
11.1390,-0.4130,0.9182,0.3101
11.1410,-0.4030,0.9179,0.3138
11.1600,-0.4030,0.9179,0.3138
11.1610,-0.4030,0.9179,0.3138
11.1620,-0.4030,0.9179,0.3138
11.1630,-0.4091,0.9069,0.3409
11.1820,-0.4091,0.9069,0.3409
11.1830,-0.4091,0.9069,0.3409
11.1840,-0.4091,0.9069,0.3409
11.1840,-0.4162,0.9025,0.3595
11.1850,-0.4162,0.9025,0.3595
11.2110,-0.4162,0.9025,0.3595
11.2120,-0.4162,0.9025,0.3595
11.2140,-0.4162,0.9025,0.3595
11.2150,-0.4284,0.9064,0.3539
11.2160,-0.4372,0.9108,0.3502
11.2400,-0.4372,0.9108,0.3502
11.2400,-0.4372,0.9108,0.3502
11.2410,-0.4372,0.9108,0.3502
11.2410,-0.4372,0.9082,0.3417
11.2610,-0.4372,0.9082,0.3417
11.2610,-0.4372,0.9082,0.3417
11.2620,-0.4372,0.9082,0.3417
11.2620,-0.4343,0.9091,0.3243
11.2620,-0.4343,0.9091,0.3243
11.2770,-0.4343,0.9091,0.3243
11.2910,-0.4343,0.9091,0.3243
11.2920,-0.4343,0.9091,0.3243
11.2920,-0.4343,0.9091,0.3243
11.2930,-0.4279,0.9033,0.3140
11.2930,-0.4262,0.8989,0.3311
11.3210,-0.4262,0.8989,0.3311
11.3220,-0.4262,0.8989,0.3311
11.3220,-0.4262,0.8989,0.3311
11.3230,-0.4177,0.8959,0.3527
11.3450,-0.4177,0.8959,0.3527
11.3460,-0.4177,0.8959,0.3527
11.3470,-0.4177,0.8959,0.3527
11.3480,-0.4191,0.8964,0.3561
11.3490,-0.4191,0.8964,0.3561
11.3710,-0.4191,0.8964,0.3561
11.3720,-0.4191,0.8964,0.3561
11.3730,-0.4191,0.8964,0.3561
11.3740,-0.4147,0.8976,0.3495
11.3750,-0.4086,0.9025,0.3316
11.4020,-0.4086,0.9025,0.3316
11.4030,-0.4086,0.9025,0.3316
11.4040,-0.4086,0.9025,0.3316
11.4050,-0.4098,0.9033,0.3106
11.4220,-0.4098,0.9033,0.3106
11.4230,-0.4098,0.9033,0.3106
11.4240,-0.4098,0.9033,0.3106
11.4250,-0.4113,0.9045,0.3111
11.4260,-0.4113,0.9045,0.3111
11.4510,-0.4113,0.9045,0.3111
11.4540,-0.4113,0.9045,0.3111
11.4550,-0.4113,0.9045,0.3111
11.4580,-0.4243,0.8991,0.3329
11.4590,-0.4338,0.8950,0.3519
11.4780,-0.4338,0.8950,0.3519
11.4820,-0.4338,0.8950,0.3519
11.4830,-0.4338,0.8950,0.3519
11.4840,-0.4338,0.8950,0.3519
11.4860,-0.4311,0.8991,0.3663
11.5010,-0.4311,0.8991,0.3663
11.5020,-0.4311,0.8991,0.3663
11.5030,-0.4311,0.8991,0.3663
11.5040,-0.4309,0.8969,0.3353
11.5240,-0.4309,0.8969,0.3353
11.5300,-0.4309,0.8969,0.3353
11.5310,-0.4309,0.8969,0.3353
11.5320,-0.4309,0.8969,0.3353
11.5330,-0.4470,0.8979,0.3270
11.5340,-0.4487,0.9050,0.3421
11.5610,-0.4487,0.9050,0.3421
11.5620,-0.4487,0.9050,0.3421
11.5620,-0.4487,0.9050,0.3421
11.5630,-0.4463,0.9130,0.3578
11.5820,-0.4463,0.9130,0.3578
11.5820,-0.4463,0.9130,0.3578
11.5830,-0.4463,0.9130,0.3578
11.5840,-0.4299,0.9091,0.3392
11.5850,-0.4299,0.9091,0.3392
11.6110,-0.4299,0.9091,0.3392
11.6120,-0.4299,0.9091,0.3392
11.6130,-0.4299,0.9091,0.3392
11.6140,-0.4218,0.9020,0.3297
11.6150,-0.4235,0.8896,0.3539
11.6410,-0.4235,0.8896,0.3539
11.6420,-0.4235,0.8896,0.3539
11.6430,-0.4235,0.8896,0.3539
11.6440,-0.4201,0.8879,0.3436
11.6630,-0.4201,0.8879,0.3436
11.6640,-0.4201,0.8879,0.3436
11.6650,-0.4201,0.8879,0.3436
11.6680,-0.4145,0.8879,0.3329
11.6690,-0.4145,0.8879,0.3329
11.6750,-0.4145,0.8879,0.3329
11.6920,-0.4145,0.8879,0.3329
11.6930,-0.4145,0.8879,0.3329
11.6930,-0.4145,0.8879,0.3329
11.6940,-0.4191,0.8930,0.3387
11.6940,-0.4284,0.9001,0.3387
11.7210,-0.4284,0.9001,0.3387
11.7220,-0.4284,0.9001,0.3387
11.7220,-0.4284,0.9001,0.3387
11.7220,-0.4306,0.9023,0.3505
11.7440,-0.4306,0.9023,0.3505
11.7440,-0.4306,0.9023,0.3505
11.7450,-0.4306,0.9023,0.3505
11.7460,-0.4265,0.9018,0.3558
11.7470,-0.4265,0.9018,0.3558
11.7720,-0.4265,0.9018,0.3558
11.7740,-0.4265,0.9018,0.3558
11.7750,-0.4265,0.9018,0.3558
11.7770,-0.4140,0.9038,0.3500
11.7780,-0.4133,0.8981,0.3377
11.8010,-0.4133,0.8981,0.3377
11.8020,-0.4133,0.8981,0.3377
11.8030,-0.4133,0.8981,0.3377
11.8030,-0.4194,0.9062,0.3338
11.8250,-0.4194,0.9062,0.3338
11.8260,-0.4194,0.9062,0.3338
11.8270,-0.4194,0.9062,0.3338
11.8270,-0.4160,0.9104,0.3065
11.8280,-0.4160,0.9104,0.3065
11.8530,-0.4160,0.9104,0.3065
11.8570,-0.4160,0.9104,0.3065
11.8580,-0.4160,0.9104,0.3065
11.8590,-0.4291,0.8991,0.2845
11.8590,-0.4448,0.8859,0.3307
11.8760,-0.4448,0.8859,0.3307
11.8800,-0.4448,0.8859,0.3307
11.8810,-0.4448,0.8859,0.3307
11.8820,-0.4448,0.8859,0.3307
11.8820,-0.4230,0.8864,0.3531
11.9010,-0.4230,0.8864,0.3531
11.9020,-0.4230,0.8864,0.3531
11.9030,-0.4230,0.8864,0.3531
11.9030,-0.4081,0.9116,0.3549
11.9040,-0.4081,0.9116,0.3549
11.9330,-0.4081,0.9116,0.3549
11.9340,-0.4081,0.9116,0.3549
11.9340,-0.4081,0.9116,0.3549
11.9350,-0.4128,0.9377,0.3644
11.9360,-0.4040,0.9436,0.3177
11.9610,-0.4040,0.9436,0.3177
11.9620,-0.4040,0.9436,0.3177
11.9630,-0.4040,0.9436,0.3177
11.9640,-0.3998,0.9284,0.3216
11.9830,-0.3998,0.9284,0.3216
11.9840,-0.3998,0.9284,0.3216
11.9850,-0.3998,0.9284,0.3216
11.9850,-0.4035,0.9006,0.3661
11.9860,-0.4035,0.9006,0.3661
12.0150,-0.4035,0.9006,0.3661
12.0160,-0.4035,0.9006,0.3661
12.0180,-0.4035,0.9006,0.3661
12.0190,-0.4072,0.8849,0.3732
12.0200,-0.4059,0.8952,0.3634
12.0400,-0.4059,0.8952,0.3634
12.0410,-0.4059,0.8952,0.3634
12.0420,-0.4059,0.8952,0.3634
12.0430,-0.4086,0.9091,0.3475
12.0620,-0.4086,0.9091,0.3475
12.0630,-0.4086,0.9091,0.3475
12.0640,-0.4086,0.9091,0.3475
12.0650,-0.4238,0.9101,0.3390
12.0920,-0.4238,0.9101,0.3390
12.0930,-0.4238,0.9101,0.3390
12.0940,-0.4238,0.9101,0.3390
12.0940,-0.4238,0.9101,0.3390
12.0950,-0.4238,0.9101,0.3390
12.0950,-0.4262,0.8996,0.3544
12.0960,-0.4201,0.8908,0.3602
12.1210,-0.4201,0.8908,0.3602
12.1210,-0.4201,0.8908,0.3602
12.1220,-0.4201,0.8908,0.3602
12.1220,-0.4199,0.8928,0.3644
12.1410,-0.4199,0.8928,0.3644
12.1410,-0.4199,0.8928,0.3644
12.1420,-0.4199,0.8928,0.3644
12.1420,-0.4204,0.8979,0.3641
12.1430,-0.4204,0.8979,0.3641
12.1720,-0.4204,0.8979,0.3641
12.1730,-0.4204,0.8979,0.3641
12.1740,-0.4204,0.8979,0.3641
12.1750,-0.4120,0.9013,0.3632
12.1750,-0.4091,0.8972,0.3644
12.2020,-0.4091,0.8972,0.3644
12.2030,-0.4091,0.8972,0.3644
12.2040,-0.4091,0.8972,0.3644
12.2050,-0.4125,0.8928,0.3575
12.2230,-0.4125,0.8928,0.3575
12.2240,-0.4125,0.8928,0.3575
12.2250,-0.4125,0.8928,0.3575
12.2250,-0.4135,0.8918,0.3536
12.2260,-0.4135,0.8918,0.3536
12.2510,-0.4135,0.8918,0.3536
12.2530,-0.4135,0.8918,0.3536
12.2540,-0.4135,0.8918,0.3536
12.2560,-0.4218,0.8959,0.3446
12.2570,-0.4243,0.8998,0.3341
12.2790,-0.4243,0.8998,0.3341
12.2820,-0.4243,0.8998,0.3341
12.2820,-0.4243,0.8998,0.3341
12.2830,-0.4243,0.8998,0.3341
12.2840,-0.4245,0.9001,0.3360
12.3040,-0.4245,0.9001,0.3360
12.3050,-0.4245,0.9001,0.3360
12.3050,-0.4245,0.9001,0.3360
12.3060,-0.4194,0.9040,0.3458
12.3060,-0.4194,0.9040,0.3458
12.3330,-0.4194,0.9040,0.3458
12.3340,-0.4194,0.9040,0.3458
12.3350,-0.4194,0.9040,0.3458
12.3350,-0.4150,0.9108,0.3524
12.3360,-0.4069,0.9148,0.3429
12.3630,-0.4069,0.9148,0.3429
12.3640,-0.4069,0.9148,0.3429
12.3650,-0.4069,0.9148,0.3429
12.3650,-0.4101,0.9089,0.3380
12.3830,-0.4101,0.9089,0.3380
12.3840,-0.4101,0.9089,0.3380
12.3850,-0.4101,0.9089,0.3380
12.3860,-0.4135,0.9040,0.3424
12.3860,-0.4135,0.9040,0.3424
12.4140,-0.4135,0.9040,0.3424
12.4150,-0.4135,0.9040,0.3424
12.4170,-0.4135,0.9040,0.3424
12.4180,-0.4206,0.8979,0.3483
12.4190,-0.4304,0.8996,0.3448
12.4460,-0.4304,0.8996,0.3448
12.4470,-0.4304,0.8996,0.3448
12.4480,-0.4304,0.8996,0.3448
12.4490,-0.4475,0.9086,0.3370
12.4640,-0.4475,0.9086,0.3370
12.4660,-0.4475,0.9086,0.3370
12.4660,-0.4475,0.9086,0.3370
12.4660,-0.4529,0.9064,0.3551
12.4670,-0.4529,0.9064,0.3551
12.4780,-0.4529,0.9064,0.3551
12.4960,-0.4529,0.9064,0.3551
12.4970,-0.4529,0.9064,0.3551
12.4980,-0.4529,0.9064,0.3551
12.4990,-0.4375,0.9023,0.3451
12.5000,-0.4289,0.8932,0.3304
12.5210,-0.4289,0.8932,0.3304
12.5220,-0.4289,0.8932,0.3304
12.5230,-0.4289,0.8932,0.3304
12.5240,-0.4196,0.8962,0.3480
12.5430,-0.4196,0.8962,0.3480
12.5460,-0.4196,0.8962,0.3480
12.5470,-0.4196,0.8962,0.3480
12.5480,-0.4125,0.9001,0.3431
12.5490,-0.4125,0.9001,0.3431
12.5740,-0.4125,0.9001,0.3431
12.5750,-0.4125,0.9001,0.3431
12.5760,-0.4125,0.9001,0.3431
12.5770,-0.4208,0.8976,0.3492
12.5780,-0.4326,0.8974,0.3441
12.6020,-0.4326,0.8974,0.3441
12.6030,-0.4326,0.8974,0.3441
12.6040,-0.4326,0.8974,0.3441
12.6050,-0.4489,0.8964,0.3377
12.6280,-0.4489,0.8964,0.3377
12.6310,-0.4489,0.8964,0.3377
12.6320,-0.4489,0.8964,0.3377
12.6540,-0.4419,0.9008,0.3463
12.6550,-0.4419,0.9008,0.3463
12.6560,-0.4419,0.9008,0.3463
12.6560,-0.4419,0.9008,0.3463
12.6560,-0.4419,0.9008,0.3463
12.6570,-0.4252,0.8984,0.3353
12.6570,-0.4160,0.8879,0.3292
12.6720,-0.4160,0.8879,0.3292
12.6760,-0.4160,0.8879,0.3292
12.6820,-0.4160,0.8879,0.3292
12.6820,-0.4160,0.8879,0.3292
12.6820,-0.4160,0.8879,0.3292
12.6830,-0.4223,0.8888,0.3277
12.7040,-0.4223,0.8888,0.3277
12.7050,-0.4223,0.8888,0.3277
12.7060,-0.4223,0.8888,0.3277
12.7070,-0.4304,0.8952,0.3214
12.7070,-0.4304,0.8952,0.3214
12.7350,-0.4304,0.8952,0.3214
12.7360,-0.4304,0.8952,0.3214
12.7360,-0.4304,0.8952,0.3214
12.7370,-0.4243,0.9013,0.3409
12.7380,-0.4179,0.8957,0.3473
12.7630,-0.4179,0.8957,0.3473
12.7640,-0.4179,0.8957,0.3473
12.7640,-0.4179,0.8957,0.3473
12.7650,-0.4179,0.8918,0.3368
12.7840,-0.4179,0.8918,0.3368
12.7850,-0.4179,0.8918,0.3368
12.7860,-0.4179,0.8918,0.3368
12.7860,-0.4199,0.8957,0.3353
12.7870,-0.4199,0.8957,0.3353
12.8140,-0.4199,0.8957,0.3353
12.8150,-0.4199,0.8957,0.3353
12.8160,-0.4199,0.8957,0.3353
12.8170,-0.4240,0.8991,0.3419
12.8180,-0.4362,0.8998,0.3468
12.8430,-0.4362,0.8998,0.3468
12.8440,-0.4362,0.8998,0.3468
12.8450,-0.4362,0.8998,0.3468
12.8460,-0.4353,0.8979,0.3431
12.8640,-0.4353,0.8979,0.3431
12.8650,-0.4353,0.8979,0.3431
12.8660,-0.4353,0.8979,0.3431
12.8670,-0.4345,0.9008,0.3424
12.8690,-0.4345,0.9008,0.3424
12.8710,-0.4345,0.9008,0.3424
12.8740,-0.4345,0.9008,0.3424
12.8930,-0.4345,0.9008,0.3424
12.8940,-0.4345,0.9008,0.3424
12.8950,-0.4345,0.9008,0.3424
12.8960,-0.4470,0.9055,0.3549
12.8960,-0.4436,0.9108,0.3475
12.9230,-0.4436,0.9108,0.3475
12.9240,-0.4436,0.9108,0.3475
12.9260,-0.4436,0.9108,0.3475
12.9270,-0.4301,0.9096,0.3245
12.9430,-0.4301,0.9096,0.3245
12.9440,-0.4301,0.9096,0.3245
12.9450,-0.4301,0.9096,0.3245
12.9460,-0.4196,0.9023,0.3187
12.9470,-0.4196,0.9023,0.3187
12.9770,-0.4196,0.9023,0.3187
12.9780,-0.4196,0.9023,0.3187
12.9790,-0.4196,0.9023,0.3187
12.9810,-0.4194,0.8925,0.3292
12.9810,-0.4216,0.8910,0.3260
13.0050,-0.4216,0.8910,0.3260
13.0060,-0.4216,0.8910,0.3260
13.0070,-0.4216,0.8910,0.3260
13.0090,-0.4247,0.9011,0.3145
13.0260,-0.4247,0.9011,0.3145
13.0270,-0.4247,0.9011,0.3145
13.0280,-0.4247,0.9011,0.3145
13.0290,-0.4257,0.9060,0.3150
13.0300,-0.4257,0.9060,0.3150
13.0540,-0.4257,0.9060,0.3150
13.0550,-0.4257,0.9060,0.3150
13.0560,-0.4257,0.9060,0.3150
13.0580,-0.4316,0.9050,0.3199
13.0590,-0.4397,0.9028,0.3233
13.0790,-0.4397,0.9028,0.3233
13.0840,-0.4397,0.9028,0.3233
13.0850,-0.4397,0.9028,0.3233
13.0860,-0.4397,0.9028,0.3233
13.0870,-0.4560,0.9047,0.3133
13.1040,-0.4560,0.9047,0.3133
13.1050,-0.4560,0.9047,0.3133
13.1060,-0.4560,0.9047,0.3133
13.1070,-0.4643,0.9069,0.3082
13.1090,-0.4643,0.9069,0.3082
13.1330,-0.4643,0.9069,0.3082
13.1340,-0.4643,0.9069,0.3082
13.1350,-0.4643,0.9069,0.3082
13.1360,-0.4414,0.9096,0.3101
13.1370,-0.4182,0.9121,0.3074
13.1650,-0.4182,0.9121,0.3074
13.1660,-0.4182,0.9121,0.3074
13.1670,-0.4182,0.9121,0.3074
13.1680,-0.4140,0.9072,0.3062
13.1920,-0.4140,0.9072,0.3062
13.1930,-0.4140,0.9072,0.3062
13.1940,-0.4140,0.9072,0.3062
13.1950,-0.4216,0.9008,0.3126
13.1960,-0.4216,0.9008,0.3126
13.2130,-0.4216,0.9008,0.3126
13.2140,-0.4216,0.9008,0.3126
13.2140,-0.4216,0.9008,0.3126
13.2150,-0.4365,0.8945,0.3155
13.2150,-0.4372,0.8952,0.3194
13.2410,-0.4372,0.8952,0.3194
13.2420,-0.4372,0.8952,0.3194
13.2420,-0.4372,0.8952,0.3194
13.2420,-0.4260,0.9089,0.3236
13.2620,-0.4260,0.9089,0.3236
13.2630,-0.4260,0.9089,0.3236
13.2630,-0.4260,0.9089,0.3236
13.2630,-0.4199,0.9104,0.3167
13.2650,-0.4199,0.9104,0.3167
13.2710,-0.4199,0.9104,0.3167
13.2730,-0.4199,0.9104,0.3167
13.2920,-0.4199,0.9104,0.3167
13.2930,-0.4199,0.9104,0.3167
13.2930,-0.4199,0.9104,0.3167
13.2940,-0.4272,0.9033,0.3070
13.2940,-0.4411,0.9028,0.3018
13.3230,-0.4411,0.9028,0.3018
13.3240,-0.4411,0.9028,0.3018
13.3240,-0.4411,0.9028,0.3018
13.3240,-0.4419,0.8945,0.3297
13.3430,-0.4419,0.8945,0.3297
13.3440,-0.4419,0.8945,0.3297
13.3440,-0.4419,0.8945,0.3297
13.3440,-0.4489,0.9003,0.3177
13.3450,-0.4489,0.9003,0.3177
13.3750,-0.4489,0.9003,0.3177
13.3750,-0.4489,0.9003,0.3177
13.3760,-0.4489,0.9003,0.3177
13.3760,-0.4465,0.8952,0.3026
13.3760,-0.4453,0.8871,0.3245
13.4040,-0.4453,0.8871,0.3245
13.4040,-0.4453,0.8871,0.3245
13.4050,-0.4453,0.8871,0.3245
13.4050,-0.4553,0.9018,0.3316
13.4250,-0.4553,0.9018,0.3316
13.4270,-0.4553,0.9018,0.3316
13.4280,-0.4553,0.9018,0.3316
13.4280,-0.4499,0.9138,0.3079
13.4280,-0.4499,0.9138,0.3079
