
time,AccelerometerX,AccelerometerY,AccelerometerZ
0.0710,-0.1105,1.0445,0.1000
0.0710,-0.1105,1.0445,0.1000
0.0710,-0.1105,1.0445,0.1000
0.0710,-0.1132,1.0418,0.1207
0.0710,-0.1212,1.0492,0.1195
0.0720,-0.1212,1.0492,0.1195
0.0720,-0.1212,1.0492,0.1195
0.0720,-0.1212,1.0492,0.1195
0.0720,-0.1281,1.0543,0.1046
0.0720,-0.1281,1.0543,0.1046
0.0720,-0.1281,1.0543,0.1046
0.0730,-0.1281,1.0543,0.1046
0.0730,-0.1281,1.0543,0.1046
0.0730,-0.1149,1.0509,0.1285
0.0730,-0.1149,1.0509,0.1285
0.0730,-0.1149,1.0509,0.1285
0.0730,-0.1149,1.0509,0.1285
0.0730,-0.1117,1.0426,0.1349
0.0730,-0.1163,1.0387,0.1290
0.0740,-0.1163,1.0387,0.1290
0.0740,-0.1163,1.0387,0.1290
0.0740,-0.1163,1.0387,0.1290
0.0740,-0.1183,1.0457,0.1210
0.0740,-0.1183,1.0457,0.1210
0.0780,-0.1183,1.0457,0.1210
0.0780,-0.1183,1.0457,0.1210
0.0780,-0.1183,1.0457,0.1210
0.0780,-0.1156,1.0501,0.1183
0.1320,-0.1156,1.0501,0.1183
0.1320,-0.1156,1.0501,0.1183
0.1320,-0.1156,1.0501,0.1183
0.1330,-0.1154,1.0455,0.1210
0.1330,-0.1173,1.0401,0.1359
0.1330,-0.1173,1.0401,0.1359
0.1330,-0.1173,1.0401,0.1359
0.1330,-0.1173,1.0401,0.1359
0.1330,-0.1173,1.0401,0.1359
0.1340,-0.1161,1.0418,0.1303
0.1340,-0.1161,1.0418,0.1303
0.2270,-0.1161,1.0418,0.1303
0.2280,-0.1161,1.0418,0.1303
0.2280,-0.1161,1.0418,0.1303
0.2280,-0.1114,1.0475,0.1134
0.2280,-0.1114,1.0475,0.1134
0.2280,-0.1114,1.0475,0.1134
0.2280,-0.1114,1.0475,0.1134
0.2290,-0.1134,1.0499,0.1119
0.2290,-0.1220,1.0492,0.1239
0.2290,-0.1220,1.0492,0.1239
0.2290,-0.1220,1.0492,0.1239
0.2290,-0.1220,1.0492,0.1239
0.2290,-0.1190,1.0477,0.1234
0.2290,-0.1190,1.0477,0.1234
0.2350,-0.1190,1.0477,0.1234
0.2350,-0.1190,1.0477,0.1234
0.2350,-0.1190,1.0477,0.1234
0.2350,-0.1132,1.0453,0.1168
0.2660,-0.1132,1.0453,0.1168
0.2660,-0.1132,1.0453,0.1168
0.2670,-0.1132,1.0453,0.1168
0.2680,-0.1112,1.0406,0.1183
0.2680,-0.1114,1.0431,0.1210
0.2890,-0.1114,1.0431,0.1210
0.2900,-0.1114,1.0431,0.1210
0.2900,-0.1114,1.0431,0.1210
0.2910,-0.1183,1.0465,0.1190
0.2910,-0.1183,1.0465,0.1190
0.3190,-0.1183,1.0465,0.1190
0.3190,-0.1183,1.0465,0.1190
0.3200,-0.1183,1.0465,0.1190
0.3210,-0.1205,1.0479,0.1215
0.3230,-0.1205,1.0479,0.1215
0.3240,-0.1205,1.0479,0.1215
0.3480,-0.1205,1.0479,0.1215
0.3480,-0.1205,1.0479,0.1215
0.3480,-0.1205,1.0479,0.1215
0.3520,-0.1156,1.0499,0.1188
0.3520,-0.1124,1.0487,0.1124
0.3680,-0.1124,1.0487,0.1124
0.3680,-0.1124,1.0487,0.1124
0.3690,-0.1124,1.0487,0.1124
0.3710,-0.1173,1.0411,0.1195
0.3710,-0.1173,1.0411,0.1195
0.3990,-0.1173,1.0411,0.1195
0.3990,-0.1173,1.0411,0.1195
0.4000,-0.1173,1.0411,0.1195
0.4000,-0.1261,1.0418,0.1281
0.4270,-0.1261,1.0418,0.1281
0.4280,-0.1261,1.0418,0.1281
0.4290,-0.1261,1.0418,0.1281
0.4290,-0.1337,1.0494,0.1232
0.4290,-0.1305,1.0543,0.1092
0.4490,-0.1305,1.0543,0.1092
0.4510,-0.1305,1.0543,0.1092
0.4510,-0.1305,1.0543,0.1092
0.4520,-0.1224,1.0470,0.1100
0.4520,-0.1224,1.0470,0.1100
0.4780,-0.1224,1.0470,0.1100
0.4780,-0.1224,1.0470,0.1100
0.4780,-0.1224,1.0470,0.1100
0.4890,-0.1149,1.0426,0.1210
0.5080,-0.1149,1.0426,0.1210
0.5090,-0.1149,1.0426,0.1210
0.5090,-0.1149,1.0426,0.1210
0.5090,-0.1080,1.0433,0.1281
0.5120,-0.1048,1.0484,0.1263
0.5220,-0.1048,1.0484,0.1263
0.5290,-0.1048,1.0484,0.1263
0.5320,-0.1048,1.0484,0.1263
0.5330,-0.1048,1.0484,0.1263
0.5330,-0.1102,1.0506,0.1188
0.5330,-0.1102,1.0506,0.1188
0.5340,-0.1102,1.0506,0.1188
0.5580,-0.1102,1.0506,0.1188
0.5590,-0.1102,1.0506,0.1188
0.5590,-0.1102,1.0506,0.1188
0.5610,-0.1173,1.0479,0.1136
0.5880,-0.1173,1.0479,0.1136
0.5880,-0.1173,1.0479,0.1136
0.5880,-0.1173,1.0479,0.1136
0.5910,-0.1239,1.0467,0.1144
0.5910,-0.1285,1.0479,0.1149
0.6090,-0.1285,1.0479,0.1149
0.6090,-0.1285,1.0479,0.1149
0.6110,-0.1285,1.0479,0.1149
0.6110,-0.1290,1.0457,0.1166
0.6110,-0.1290,1.0457,0.1166
0.6380,-0.1290,1.0457,0.1166
0.6380,-0.1290,1.0457,0.1166
0.6380,-0.1290,1.0457,0.1166
0.6390,-0.1278,1.0453,0.1259
0.6680,-0.1278,1.0453,0.1259
0.6690,-0.1278,1.0453,0.1259
0.6690,-0.1278,1.0453,0.1259
0.6700,-0.1239,1.0494,0.1220
0.6710,-0.1193,1.0506,0.1085
0.6880,-0.1193,1.0506,0.1085
0.6910,-0.1193,1.0506,0.1085
0.6910,-0.1193,1.0506,0.1085
0.6920,-0.1149,1.0460,0.1097
0.6920,-0.1149,1.0460,0.1097
0.7190,-0.1149,1.0460,0.1097
0.7190,-0.1149,1.0460,0.1097
0.7200,-0.1149,1.0460,0.1097
0.7220,-0.1146,1.0440,0.1268
0.7240,-0.1146,1.0440,0.1268
0.7240,-0.1146,1.0440,0.1268
0.7490,-0.1146,1.0440,0.1268
0.7490,-0.1146,1.0440,0.1268
0.7500,-0.1146,1.0440,0.1268
0.7510,-0.1202,1.0443,0.1310
0.7510,-0.1217,1.0479,0.1205
0.7680,-0.1217,1.0479,0.1205
0.7680,-0.1217,1.0479,0.1205
0.7680,-0.1217,1.0479,0.1205
0.7690,-0.1217,1.0501,0.1134
0.7690,-0.1217,1.0501,0.1134
0.7970,-0.1217,1.0501,0.1134
0.7980,-0.1217,1.0501,0.1134
0.7980,-0.1217,1.0501,0.1134
0.7980,-0.1195,1.0455,0.1136
0.8270,-0.1195,1.0455,0.1136
0.8270,-0.1195,1.0455,0.1136
0.8270,-0.1195,1.0455,0.1136
0.8280,-0.1195,1.0423,0.1215
0.8280,-0.1237,1.0438,0.1273
0.8470,-0.1237,1.0438,0.1273
0.8470,-0.1237,1.0438,0.1273
0.8480,-0.1237,1.0438,0.1273
0.8480,-0.1234,1.0516,0.1202
0.8480,-0.1234,1.0516,0.1202
0.8760,-0.1234,1.0516,0.1202
0.8760,-0.1234,1.0516,0.1202
0.8770,-0.1234,1.0516,0.1202
0.8780,-0.1139,1.0514,0.1088
0.9070,-0.1139,1.0514,0.1088
0.9070,-0.1139,1.0514,0.1088
0.9080,-0.1139,1.0514,0.1088
0.9080,-0.1124,1.0431,0.1190
0.9080,-0.1202,1.0421,0.1305
0.9200,-0.1202,1.0421,0.1305
0.9270,-0.1202,1.0421,0.1305
0.9270,-0.1202,1.0421,0.1305
0.9270,-0.1202,1.0421,0.1305
0.9280,-0.1303,1.0472,0.1220
0.9280,-0.1303,1.0472,0.1220
0.9570,-0.1303,1.0472,0.1220
0.9570,-0.1303,1.0472,0.1220
0.9580,-0.1303,1.0472,0.1220
0.9580,-0.1356,1.0465,0.1151
0.9860,-0.1356,1.0465,0.1151
0.9870,-0.1356,1.0465,0.1151
0.9870,-0.1356,1.0465,0.1151
0.9870,-0.1298,1.0470,0.1166
0.9880,-0.1190,1.0465,0.1217
1.0080,-0.1190,1.0465,0.1217
1.0080,-0.1190,1.0465,0.1217
1.0080,-0.1190,1.0465,0.1217
1.0080,-0.1149,1.0445,0.1263
1.0080,-0.1149,1.0445,0.1263
1.0370,-0.1149,1.0445,0.1263
1.0370,-0.1149,1.0445,0.1263
1.0380,-0.1149,1.0445,0.1263
1.0380,-0.1158,1.0470,0.1217
1.0670,-0.1158,1.0470,0.1217
1.0680,-0.1158,1.0470,0.1217
1.0680,-0.1158,1.0470,0.1217
1.0680,-0.1168,1.0487,0.1141
1.0690,-0.1183,1.0460,0.1180
1.0870,-0.1183,1.0460,0.1180
1.0880,-0.1183,1.0460,0.1180
1.0880,-0.1183,1.0460,0.1180
1.0880,-0.1227,1.0428,0.1246
1.0890,-0.1227,1.0428,0.1246
1.1200,-0.1227,1.0428,0.1246
1.1200,-0.1227,1.0428,0.1246
1.1200,-0.1227,1.0428,0.1246
1.1210,-0.1227,1.0438,0.1198
1.1220,-0.1227,1.0438,0.1198
1.1480,-0.1227,1.0438,0.1198
1.1490,-0.1227,1.0438,0.1198
1.1490,-0.1227,1.0438,0.1198
1.1490,-0.1198,1.0462,0.1158
1.1490,-0.1193,1.0438,0.1224
1.1680,-0.1193,1.0438,0.1224
1.1680,-0.1193,1.0438,0.1224
1.1690,-0.1193,1.0438,0.1224
1.1690,-0.1195,1.0416,0.1256
1.1690,-0.1195,1.0416,0.1256
1.1980,-0.1195,1.0416,0.1256
1.1990,-0.1195,1.0416,0.1256
1.1990,-0.1195,1.0416,0.1256
1.1990,-0.1254,1.0450,0.1193
1.2280,-0.1254,1.0450,0.1193
1.2280,-0.1254,1.0450,0.1193
1.2280,-0.1254,1.0450,0.1193
1.2290,-0.1234,1.0453,0.1178
1.2290,-0.1193,1.0445,0.1200
1.2490,-0.1193,1.0445,0.1200
1.2490,-0.1193,1.0445,0.1200
1.2490,-0.1193,1.0445,0.1200
1.2490,-0.1190,1.0455,0.1241
1.2500,-0.1190,1.0455,0.1241
1.2780,-0.1190,1.0455,0.1241
1.2790,-0.1190,1.0455,0.1241
1.2790,-0.1190,1.0455,0.1241
1.2790,-0.1183,1.0445,0.1256
1.3080,-0.1183,1.0445,0.1256
1.3080,-0.1183,1.0445,0.1256
1.3080,-0.1183,1.0445,0.1256
1.3100,-0.1254,1.0445,0.1183
1.3100,-0.1305,1.0470,0.1183
1.3200,-0.1305,1.0470,0.1183
1.3230,-0.1305,1.0470,0.1183
1.3300,-0.1305,1.0470,0.1183
1.3300,-0.1305,1.0470,0.1183
1.3300,-0.1305,1.0470,0.1183
1.3300,-0.1303,1.0428,0.1227
1.3310,-0.1303,1.0428,0.1227
1.3600,-0.1303,1.0428,0.1227
1.3600,-0.1303,1.0428,0.1227
1.3610,-0.1303,1.0428,0.1227
1.3610,-0.1300,1.0475,0.1173
1.3900,-0.1300,1.0475,0.1173
1.3910,-0.1300,1.0475,0.1173
1.3920,-0.1300,1.0475,0.1173
1.3930,-0.1276,1.0470,0.1112
1.3930,-0.1244,1.0450,0.1232
1.4100,-0.1244,1.0450,0.1232
1.4110,-0.1244,1.0450,0.1232
1.4110,-0.1244,1.0450,0.1232
1.4120,-0.1193,1.0477,0.1232
1.4120,-0.1193,1.0477,0.1232
1.4420,-0.1193,1.0477,0.1232
1.4430,-0.1193,1.0477,0.1232
1.4430,-0.1193,1.0477,0.1232
1.4440,-0.1100,1.0467,0.1234
1.4700,-0.1100,1.0467,0.1234
1.4710,-0.1100,1.0467,0.1234
1.4720,-0.1100,1.0467,0.1234
1.4730,-0.1154,1.0396,0.1332
1.4730,-0.1198,1.0421,0.1190
1.4900,-0.1198,1.0421,0.1190
1.4910,-0.1198,1.0421,0.1190
1.4910,-0.1198,1.0421,0.1190
1.4920,-0.1224,1.0462,0.1078
1.4930,-0.1224,1.0462,0.1078
1.5220,-0.1224,1.0462,0.1078
1.5230,-0.1224,1.0462,0.1078
1.5240,-0.1224,1.0462,0.1078
1.5240,-0.1246,1.0492,0.1117
1.5250,-0.1246,1.0492,0.1117
1.5510,-0.1246,1.0492,0.1117
1.5530,-0.1246,1.0492,0.1117
1.5540,-0.1246,1.0492,0.1117
1.5550,-0.1212,1.0460,0.1205
1.5560,-0.1134,1.0418,0.1276
1.5690,-0.1134,1.0418,0.1276
1.5700,-0.1134,1.0418,0.1276
1.5710,-0.1134,1.0418,0.1276
1.5890,-0.1097,1.0450,0.1239
1.5890,-0.1097,1.0450,0.1239
1.5990,-0.1097,1.0450,0.1239
1.5990,-0.1097,1.0450,0.1239
1.6000,-0.1097,1.0450,0.1239
1.6000,-0.1141,1.0489,0.1144
1.6280,-0.1141,1.0489,0.1144
1.6290,-0.1141,1.0489,0.1144
1.6290,-0.1141,1.0489,0.1144
1.6300,-0.1183,1.0477,0.1144
1.6300,-0.1254,1.0443,0.1190
1.6500,-0.1254,1.0443,0.1190
1.6500,-0.1254,1.0443,0.1190
1.6520,-0.1254,1.0443,0.1190
1.6530,-0.1303,1.0421,0.1205
1.6530,-0.1303,1.0421,0.1205
1.6800,-0.1303,1.0421,0.1205
1.6810,-0.1303,1.0421,0.1205
1.6810,-0.1303,1.0421,0.1205
1.6820,-0.1295,1.0477,0.1173
1.7100,-0.1295,1.0477,0.1173
1.7110,-0.1295,1.0477,0.1173
1.7120,-0.1295,1.0477,0.1173
1.7130,-0.1273,1.0494,0.1154
1.7130,-0.1215,1.0460,0.1234
1.7210,-0.1215,1.0460,0.1234
1.7300,-0.1215,1.0460,0.1234
1.7310,-0.1215,1.0460,0.1234
1.7320,-0.1215,1.0460,0.1234
1.7330,-0.1202,1.0440,0.1276
1.7330,-0.1202,1.0440,0.1276
1.7590,-0.1202,1.0440,0.1276
1.7600,-0.1202,1.0440,0.1276
1.7610,-0.1202,1.0440,0.1276
1.7620,-0.1241,1.0418,0.1180
1.7890,-0.1241,1.0418,0.1180
1.7900,-0.1241,1.0418,0.1180
1.7910,-0.1241,1.0418,0.1180
1.7910,-0.1234,1.0448,0.1163
1.7920,-0.1188,1.0443,0.1168
1.8100,-0.1188,1.0443,0.1168
1.8110,-0.1188,1.0443,0.1168
1.8110,-0.1188,1.0443,0.1168
1.8120,-0.1171,1.0455,0.1207
1.8120,-0.1171,1.0455,0.1207
1.8400,-0.1171,1.0455,0.1207
1.8410,-0.1171,1.0455,0.1207
1.8420,-0.1171,1.0455,0.1207
1.8430,-0.1158,1.0494,0.1246
1.8730,-0.1158,1.0494,0.1246
1.8740,-0.1158,1.0494,0.1246
1.8740,-0.1158,1.0494,0.1246
1.8750,-0.1185,1.0460,0.1198
1.8750,-0.1256,1.0409,0.1234
1.8920,-0.1256,1.0409,0.1234
1.8930,-0.1256,1.0409,0.1234
1.8930,-0.1256,1.0409,0.1234
1.8940,-0.1320,1.0428,0.1244
1.8960,-0.1320,1.0428,0.1244
1.9240,-0.1320,1.0428,0.1244
1.9250,-0.1320,1.0428,0.1244
1.9260,-0.1320,1.0428,0.1244
1.9270,-0.1334,1.0455,0.1163
1.9280,-0.1334,1.0455,0.1163
1.9290,-0.1334,1.0455,0.1163
1.9510,-0.1334,1.0455,0.1163
1.9520,-0.1334,1.0455,0.1163
1.9530,-0.1334,1.0455,0.1163
1.9540,-0.1244,1.0499,0.1141
1.9550,-0.1161,1.0477,0.1198
1.9710,-0.1161,1.0477,0.1198
1.9720,-0.1161,1.0477,0.1198
1.9720,-0.1161,1.0477,0.1198
1.9730,-0.1090,1.0418,0.1227
1.9730,-0.1090,1.0418,0.1227
2.0010,-0.1090,1.0418,0.1227
2.0010,-0.1090,1.0418,0.1227
2.0020,-0.1090,1.0418,0.1227
2.0020,-0.1061,1.0445,0.1251
2.0330,-0.1061,1.0445,0.1251
2.0340,-0.1061,1.0445,0.1251
2.0350,-0.1061,1.0445,0.1251
2.0360,-0.1141,1.0435,0.1256
2.0420,-0.1202,1.0453,0.1220
2.0510,-0.1202,1.0453,0.1220
2.0510,-0.1202,1.0453,0.1220
2.0520,-0.1202,1.0453,0.1220
2.0530,-0.1188,1.0472,0.1166
2.0540,-0.1188,1.0472,0.1166
2.0830,-0.1188,1.0472,0.1166
2.0840,-0.1188,1.0472,0.1166
2.0850,-0.1188,1.0472,0.1166
2.0860,-0.1183,1.0499,0.1163
2.1110,-0.1183,1.0499,0.1163
2.1120,-0.1183,1.0499,0.1163
2.1130,-0.1183,1.0499,0.1163
2.1140,-0.1180,1.0484,0.1173
2.1150,-0.1195,1.0438,0.1212
2.1230,-0.1195,1.0438,0.1212
2.1240,-0.1195,1.0438,0.1212
2.1460,-0.1195,1.0438,0.1212
2.1470,-0.1195,1.0438,0.1212
2.1480,-0.1195,1.0438,0.1212
2.1490,-0.1229,1.0457,0.1246
2.1500,-0.1229,1.0457,0.1246
2.1680,-0.1229,1.0457,0.1246
2.1700,-0.1229,1.0457,0.1246
2.1710,-0.1229,1.0457,0.1246
2.1720,-0.1224,1.0457,0.1232
2.1900,-0.1224,1.0457,0.1232
2.1910,-0.1224,1.0457,0.1232
2.1910,-0.1224,1.0457,0.1232
2.1920,-0.1158,1.0475,0.1202
2.1930,-0.1144,1.0475,0.1176
2.2100,-0.1144,1.0475,0.1176
2.2110,-0.1144,1.0475,0.1176
2.2120,-0.1144,1.0475,0.1176
2.2120,-0.1171,1.0455,0.1185
2.2140,-0.1171,1.0455,0.1185
2.2390,-0.1171,1.0455,0.1185
2.2400,-0.1171,1.0455,0.1185
2.2400,-0.1171,1.0455,0.1185
2.2400,-0.1161,1.0477,0.1207
2.2700,-0.1161,1.0477,0.1207
2.2710,-0.1161,1.0477,0.1207
2.2720,-0.1161,1.0477,0.1207
2.2730,-0.1149,1.0494,0.1215
2.2730,-0.1134,1.0482,0.1185
2.2910,-0.1134,1.0482,0.1185
2.2920,-0.1134,1.0482,0.1185
2.2930,-0.1134,1.0482,0.1185
2.2930,-0.1122,1.0477,0.1195
2.2940,-0.1122,1.0477,0.1195
2.3240,-0.1122,1.0477,0.1195
2.3250,-0.1122,1.0477,0.1195
2.3250,-0.1122,1.0477,0.1195
2.3270,-0.1114,1.0470,0.1168
2.3290,-0.1114,1.0470,0.1168
2.3300,-0.1114,1.0470,0.1168
2.3540,-0.1114,1.0470,0.1168
2.3550,-0.1114,1.0470,0.1168
2.3550,-0.1114,1.0470,0.1168
2.3560,-0.1136,1.0428,0.1210
2.3590,-0.1151,1.0409,0.1251
2.3720,-0.1151,1.0409,0.1251
2.3730,-0.1151,1.0409,0.1251
2.3740,-0.1151,1.0409,0.1251
2.3750,-0.1163,1.0435,0.1249
2.3760,-0.1163,1.0435,0.1249
2.4010,-0.1163,1.0435,0.1249
2.4010,-0.1163,1.0435,0.1249
2.4020,-0.1163,1.0435,0.1249
2.4030,-0.1171,1.0484,0.1171
2.4340,-0.1171,1.0484,0.1171
2.4340,-0.1171,1.0484,0.1171
2.4350,-0.1171,1.0484,0.1171
2.4350,-0.1234,1.0475,0.1139
2.4350,-0.1298,1.0426,0.1195
2.4500,-0.1298,1.0426,0.1195
2.4510,-0.1298,1.0426,0.1195
2.4520,-0.1298,1.0426,0.1195
2.4530,-0.1271,1.0391,0.1241
2.4530,-0.1271,1.0391,0.1241
2.4830,-0.1271,1.0391,0.1241
2.4840,-0.1271,1.0391,0.1241
2.4850,-0.1271,1.0391,0.1241
2.4860,-0.1227,1.0431,0.1251
2.5120,-0.1227,1.0431,0.1251
2.5130,-0.1227,1.0431,0.1251
2.5140,-0.1227,1.0431,0.1251
2.5150,-0.1193,1.0440,0.1212
2.5170,-0.1134,1.0470,0.1168
2.5240,-0.1134,1.0470,0.1168
2.5310,-0.1134,1.0470,0.1168
2.5320,-0.1134,1.0470,0.1168
2.5330,-0.1134,1.0470,0.1168
2.5340,-0.1100,1.0492,0.1183
2.5350,-0.1100,1.0492,0.1183
2.5620,-0.1100,1.0492,0.1183
2.5630,-0.1100,1.0492,0.1183
2.5650,-0.1100,1.0492,0.1183
2.5650,-0.1114,1.0423,0.1210
2.5920,-0.1114,1.0423,0.1210
2.5930,-0.1114,1.0423,0.1210
2.5940,-0.1114,1.0423,0.1210
2.5940,-0.1129,1.0406,0.1281
2.5960,-0.1122,1.0453,0.1224
2.6130,-0.1122,1.0453,0.1224
2.6130,-0.1122,1.0453,0.1224
2.6140,-0.1122,1.0453,0.1224
2.6150,-0.1080,1.0487,0.1129
2.6150,-0.1080,1.0487,0.1129
2.6420,-0.1080,1.0487,0.1129
2.6440,-0.1080,1.0487,0.1129
2.6450,-0.1080,1.0487,0.1129
2.6480,-0.1048,1.0453,0.1193
2.6720,-0.1048,1.0453,0.1193
2.6800,-0.1048,1.0453,0.1193
2.6810,-0.1048,1.0453,0.1193
2.6820,-0.1075,1.0421,0.1305
2.7030,-0.1092,1.0394,0.1256
2.7040,-0.1092,1.0394,0.1256
2.7050,-0.1092,1.0394,0.1256
2.7050,-0.1092,1.0394,0.1256
2.7060,-0.1156,1.0416,0.1263
2.7060,-0.1156,1.0416,0.1263
2.7230,-0.1156,1.0416,0.1263
2.7240,-0.1156,1.0416,0.1263
2.7240,-0.1156,1.0416,0.1263
2.7240,-0.1237,1.0440,0.1224
2.7250,-0.1237,1.0440,0.1224
2.7500,-0.1237,1.0440,0.1224
2.7510,-0.1237,1.0440,0.1224
2.7520,-0.1237,1.0440,0.1224
2.7530,-0.1288,1.0477,0.1161
2.7540,-0.1261,1.0514,0.1127
2.7710,-0.1261,1.0514,0.1127
2.7720,-0.1261,1.0514,0.1127
2.7730,-0.1261,1.0514,0.1127
2.7730,-0.1205,1.0462,0.1193
2.7740,-0.1205,1.0462,0.1193
2.8020,-0.1205,1.0462,0.1193
2.8030,-0.1205,1.0462,0.1193
2.8030,-0.1205,1.0462,0.1193
2.8040,-0.1202,1.0418,0.1320
2.8340,-0.1202,1.0418,0.1320
2.8350,-0.1202,1.0418,0.1320
2.8360,-0.1202,1.0418,0.1320
2.8370,-0.1163,1.0448,0.1320
2.8380,-0.1136,1.0470,0.1241
2.8510,-0.1136,1.0470,0.1241
2.8510,-0.1136,1.0470,0.1241
2.8520,-0.1136,1.0470,0.1241
2.8530,-0.1110,1.0489,0.1119
2.8530,-0.1110,1.0489,0.1119
2.8840,-0.1110,1.0489,0.1119
2.8850,-0.1110,1.0489,0.1119
2.8860,-0.1110,1.0489,0.1119
2.8870,-0.1058,1.0470,0.1149
2.9120,-0.1058,1.0470,0.1149
2.9130,-0.1058,1.0470,0.1149
2.9140,-0.1058,1.0470,0.1149
2.9150,-0.1044,1.0421,0.1285
2.9160,-0.1132,1.0418,0.1312
2.9240,-0.1132,1.0418,0.1312
2.9250,-0.1132,1.0418,0.1312
2.9340,-0.1132,1.0418,0.1312
2.9350,-0.1132,1.0418,0.1312
2.9360,-0.1132,1.0418,0.1312
2.9370,-0.1227,1.0423,0.1261
2.9370,-0.1227,1.0423,0.1261
2.9610,-0.1227,1.0423,0.1261
2.9630,-0.1227,1.0423,0.1261
2.9630,-0.1227,1.0423,0.1261
2.9650,-0.1263,1.0484,0.1161
2.9910,-0.1263,1.0484,0.1161
2.9920,-0.1263,1.0484,0.1161
2.9930,-0.1263,1.0484,0.1161
2.9940,-0.1188,1.0519,0.1048
2.9950,-0.1141,1.0506,0.1127
3.0130,-0.1141,1.0506,0.1127
3.0140,-0.1141,1.0506,0.1127
3.0150,-0.1141,1.0506,0.1127
3.0160,-0.1061,1.0477,0.1273
3.0170,-0.1061,1.0477,0.1273
3.0470,-0.1061,1.0477,0.1273
3.0480,-0.1061,1.0477,0.1273
3.0480,-0.1061,1.0477,0.1273
3.0490,-0.0975,1.0462,0.1359
3.0720,-0.0975,1.0462,0.1359
3.0730,-0.0975,1.0462,0.1359
3.0740,-0.0975,1.0462,0.1359
3.0750,-0.0965,1.0460,0.1281
3.0760,-0.1039,1.0457,0.1212
3.0920,-0.1039,1.0457,0.1212
3.0930,-0.1039,1.0457,0.1212
3.1040,-0.1039,1.0457,0.1212
3.1050,-0.1132,1.0489,0.1202
3.1060,-0.1132,1.0489,0.1202
3.1250,-0.1132,1.0489,0.1202
3.1260,-0.1132,1.0489,0.1202
3.1270,-0.1132,1.0489,0.1202
3.1270,-0.1161,1.0475,0.1232
3.1280,-0.1161,1.0475,0.1232
3.1520,-0.1161,1.0475,0.1232
3.1530,-0.1161,1.0475,0.1232
3.1540,-0.1161,1.0475,0.1232
3.1550,-0.1180,1.0482,0.1227
3.1560,-0.1124,1.0489,0.1220
3.1710,-0.1124,1.0489,0.1220
3.1730,-0.1124,1.0489,0.1220
3.1740,-0.1124,1.0489,0.1220
3.1750,-0.1073,1.0489,0.1329
3.1770,-0.1073,1.0489,0.1329
3.2010,-0.1073,1.0489,0.1329
3.2020,-0.1073,1.0489,0.1329
3.2030,-0.1073,1.0489,0.1329
3.2040,-0.1056,1.0501,0.1271
3.2320,-0.1056,1.0501,0.1271
3.2330,-0.1056,1.0501,0.1271
3.2570,-0.1056,1.0501,0.1271
3.2580,-0.1022,1.0504,0.1188
3.2600,-0.1004,1.0462,0.1188
3.2630,-0.1004,1.0462,0.1188
3.2630,-0.1004,1.0462,0.1188
3.2630,-0.1004,1.0462,0.1188
3.2640,-0.1036,1.0450,0.1263
3.2640,-0.1036,1.0450,0.1263
3.2800,-0.1036,1.0450,0.1263
3.2800,-0.1036,1.0450,0.1263
3.2800,-0.1036,1.0450,0.1263
3.2800,-0.1070,1.0472,0.1293
3.3110,-0.1070,1.0472,0.1293
3.3120,-0.1070,1.0472,0.1293
3.3120,-0.1070,1.0472,0.1293
3.3120,-0.1105,1.0514,0.1198
3.3130,-0.1061,1.0528,0.1122
3.3200,-0.1061,1.0528,0.1122
3.3230,-0.1061,1.0528,0.1122
3.3300,-0.1061,1.0528,0.1122
3.3310,-0.1061,1.0528,0.1122
3.3310,-0.1061,1.0528,0.1122
3.3310,-0.0990,1.0460,0.1215
3.3320,-0.0990,1.0460,0.1215
3.3630,-0.0990,1.0460,0.1215
3.3650,-0.0990,1.0460,0.1215
3.3660,-0.0990,1.0460,0.1215
3.3670,-0.0968,1.0399,0.1281
3.3920,-0.0968,1.0399,0.1281
3.3940,-0.0968,1.0399,0.1281
3.3950,-0.0968,1.0399,0.1281
3.3960,-0.1075,1.0431,0.1249
3.3990,-0.1222,1.0470,0.1200
3.4120,-0.1222,1.0470,0.1200
3.4140,-0.1222,1.0470,0.1200
3.4150,-0.1222,1.0470,0.1200
3.4160,-0.1283,1.0492,0.1190
3.4190,-0.1283,1.0492,0.1190
3.4430,-0.1283,1.0492,0.1190
3.4430,-0.1283,1.0492,0.1190
3.4450,-0.1283,1.0492,0.1190
3.4470,-0.1222,1.0533,0.1117
3.4720,-0.1222,1.0533,0.1117
3.4730,-0.1222,1.0533,0.1117
3.4740,-0.1222,1.0533,0.1117
3.4760,-0.1105,1.0516,0.1129
3.4780,-0.1039,1.0431,0.1212
3.4930,-0.1039,1.0431,0.1212
3.4930,-0.1039,1.0431,0.1212
3.4940,-0.1039,1.0431,0.1212
3.4940,-0.1056,1.0379,0.1293
3.4950,-0.1056,1.0379,0.1293
3.5250,-0.1056,1.0379,0.1293
3.5270,-0.1056,1.0379,0.1293
3.5280,-0.1056,1.0379,0.1293
3.5280,-0.1056,1.0379,0.1293
3.5290,-0.1080,1.0457,0.1271
3.5550,-0.1080,1.0457,0.1271
3.5580,-0.1080,1.0457,0.1271
3.5590,-0.1080,1.0457,0.1271
3.5620,-0.1163,1.0511,0.1193
3.5630,-0.1158,1.0526,0.1070
3.5740,-0.1158,1.0526,0.1070
3.5740,-0.1158,1.0526,0.1070
3.5750,-0.1158,1.0526,0.1070
3.5760,-0.1122,1.0479,0.1139
3.5770,-0.1122,1.0479,0.1139
3.6020,-0.1122,1.0479,0.1139
3.6020,-0.1122,1.0479,0.1139
3.6030,-0.1122,1.0479,0.1139
3.6030,-0.1119,1.0443,0.1293
3.6320,-0.1119,1.0443,0.1293
3.6330,-0.1119,1.0443,0.1293
3.6340,-0.1119,1.0443,0.1293
3.6350,-0.1110,1.0472,0.1254
3.6360,-0.1136,1.0497,0.1132
3.6530,-0.1136,1.0497,0.1132
3.6530,-0.1136,1.0497,0.1132
3.6540,-0.1136,1.0497,0.1132
3.6540,-0.1144,1.0470,0.1188
3.6540,-0.1144,1.0470,0.1188
3.6810,-0.1144,1.0470,0.1188
3.6820,-0.1144,1.0470,0.1188
3.6830,-0.1144,1.0470,0.1188
3.6830,-0.1127,1.0440,0.1229
3.7130,-0.1127,1.0440,0.1229
3.7140,-0.1127,1.0440,0.1229
3.7140,-0.1127,1.0440,0.1229
3.7150,-0.1134,1.0450,0.1217
3.7150,-0.1166,1.0489,0.1180
3.7210,-0.1166,1.0489,0.1180
3.7310,-0.1166,1.0489,0.1180
3.7320,-0.1166,1.0489,0.1180
3.7320,-0.1166,1.0489,0.1180
3.7340,-0.1144,1.0511,0.1144
3.7350,-0.1144,1.0511,0.1144
3.7620,-0.1144,1.0511,0.1144
3.7630,-0.1144,1.0511,0.1144
3.7640,-0.1144,1.0511,0.1144
3.7650,-0.1110,1.0514,0.1227
3.7910,-0.1110,1.0514,0.1227
3.7910,-0.1110,1.0514,0.1227
3.7910,-0.1110,1.0514,0.1227
3.7920,-0.1146,1.0433,0.1266
3.7930,-0.1244,1.0433,0.1251
3.8110,-0.1244,1.0433,0.1251
3.8110,-0.1244,1.0433,0.1251
3.8120,-0.1244,1.0433,0.1251
3.8120,-0.1239,1.0462,0.1149
3.8130,-0.1239,1.0462,0.1149
3.8420,-0.1239,1.0462,0.1149
3.8430,-0.1239,1.0462,0.1149
3.8440,-0.1239,1.0462,0.1149
3.8450,-0.1119,1.0470,0.1202
3.8730,-0.1119,1.0470,0.1202
3.8780,-0.1119,1.0470,0.1202
3.8790,-0.1119,1.0470,0.1202
3.8800,-0.1034,1.0462,0.1251
3.8810,-0.1009,1.0460,0.1185
3.8930,-0.1009,1.0460,0.1185
3.8940,-0.1009,1.0460,0.1185
3.8940,-0.1009,1.0460,0.1185
3.8950,-0.1026,1.0501,0.1215
3.8950,-0.1026,1.0501,0.1215
3.9200,-0.1026,1.0501,0.1215
3.9250,-0.1026,1.0501,0.1215
3.9260,-0.1026,1.0501,0.1215
3.9270,-0.1026,1.0501,0.1215
3.9270,-0.1051,1.0523,0.1220
3.9510,-0.1051,1.0523,0.1220
3.9520,-0.1051,1.0523,0.1220
3.9530,-0.1051,1.0523,0.1220
3.9530,-0.1061,1.0475,0.1217
3.9530,-0.1117,1.0387,0.1278
3.9730,-0.1117,1.0387,0.1278
3.9740,-0.1117,1.0387,0.1278
3.9740,-0.1117,1.0387,0.1278
3.9750,-0.1105,1.0418,0.1251
3.9750,-0.1105,1.0418,0.1251
4.0020,-0.1105,1.0418,0.1251
4.0020,-0.1105,1.0418,0.1251
4.0030,-0.1105,1.0418,0.1251
4.0030,-0.1114,1.0479,0.1171
4.0320,-0.1114,1.0479,0.1171
4.0330,-0.1114,1.0479,0.1171
4.0340,-0.1114,1.0479,0.1171
4.0350,-0.1136,1.0526,0.1190
4.0350,-0.1056,1.0536,0.1251
4.0530,-0.1056,1.0536,0.1251
4.0540,-0.1056,1.0536,0.1251
4.0550,-0.1056,1.0536,0.1251
4.0550,-0.1034,1.0450,0.1320
4.0560,-0.1034,1.0450,0.1320
4.0810,-0.1034,1.0450,0.1320
4.0830,-0.1034,1.0450,0.1320
4.0830,-0.1034,1.0450,0.1320
4.0840,-0.1080,1.0387,0.1288
4.1140,-0.1080,1.0387,0.1288
4.1150,-0.1080,1.0387,0.1288
4.1150,-0.1080,1.0387,0.1288
4.1180,-0.1154,1.0440,0.1149
4.1190,-0.1200,1.0504,0.1166
4.1200,-0.1200,1.0504,0.1166
4.1320,-0.1200,1.0504,0.1166
4.1340,-0.1200,1.0504,0.1166
4.1340,-0.1200,1.0504,0.1166
4.1350,-0.1163,1.0521,0.1234
4.1350,-0.1163,1.0521,0.1234
4.1620,-0.1163,1.0521,0.1234
4.1620,-0.1163,1.0521,0.1234
4.1630,-0.1163,1.0521,0.1234
4.1630,-0.1031,1.0499,0.1244
4.1920,-0.1031,1.0499,0.1244
4.1930,-0.1031,1.0499,0.1244
4.1930,-0.1031,1.0499,0.1244
4.1930,-0.0990,1.0460,0.1283
4.1940,-0.1044,1.0462,0.1251
4.2130,-0.1044,1.0462,0.1251
4.2140,-0.1044,1.0462,0.1251
4.2140,-0.1044,1.0462,0.1251
4.2140,-0.1141,1.0455,0.1246
4.2150,-0.1141,1.0455,0.1246
4.2430,-0.1141,1.0455,0.1246
4.2430,-0.1141,1.0455,0.1246
4.2440,-0.1141,1.0455,0.1246
4.2440,-0.1195,1.0455,0.1256
4.2730,-0.1195,1.0455,0.1256
4.2730,-0.1195,1.0455,0.1256
4.2730,-0.1195,1.0455,0.1256
4.2740,-0.1105,1.0492,0.1075
4.2740,-0.0956,1.0484,0.1185
4.2930,-0.0956,1.0484,0.1185
4.2940,-0.0956,1.0484,0.1185
4.2940,-0.0956,1.0484,0.1185
4.2940,-0.0953,1.0462,0.1298
4.2940,-0.0953,1.0462,0.1298
4.3230,-0.0953,1.0462,0.1298
4.3230,-0.0953,1.0462,0.1298
4.3240,-0.0953,1.0462,0.1298
4.3240,-0.0953,1.0462,0.1298
4.3460,-0.1085,1.0435,0.1212
4.3520,-0.1085,1.0435,0.1212
4.3520,-0.1085,1.0435,0.1212
4.3530,-0.1085,1.0435,0.1212
4.3530,-0.1222,1.0467,0.1200
4.3530,-0.1185,1.0489,0.1132
4.3730,-0.1185,1.0489,0.1132
4.3730,-0.1185,1.0489,0.1132
4.3730,-0.1185,1.0489,0.1132
4.3730,-0.1039,1.0450,0.1198
4.3740,-0.1039,1.0450,0.1198
4.4010,-0.1039,1.0450,0.1198
4.4010,-0.1039,1.0450,0.1198
4.4020,-0.1039,1.0450,0.1198
4.4030,-0.0948,1.0438,0.1259
4.4330,-0.0948,1.0438,0.1259
4.4330,-0.0948,1.0438,0.1259
4.4330,-0.0948,1.0438,0.1259
4.4330,-0.0990,1.0457,0.1188
4.4340,-0.1163,1.0428,0.1202
4.4520,-0.1163,1.0428,0.1202
4.4530,-0.1163,1.0428,0.1202
4.4530,-0.1163,1.0428,0.1202
4.4530,-0.1256,1.0448,0.1244
4.4530,-0.1256,1.0448,0.1244
4.4810,-0.1256,1.0448,0.1244
4.4810,-0.1256,1.0448,0.1244
4.4810,-0.1256,1.0448,0.1244
4.4810,-0.1198,1.0497,0.1207
4.5130,-0.1198,1.0497,0.1207
4.5130,-0.1198,1.0497,0.1207
4.5130,-0.1198,1.0497,0.1207
4.5130,-0.1127,1.0487,0.1166
4.5130,-0.1097,1.0435,0.1215
4.5200,-0.1097,1.0435,0.1215
4.5310,-0.1097,1.0435,0.1215
4.5320,-0.1097,1.0435,0.1215
4.5320,-0.1097,1.0435,0.1215
4.5330,-0.1090,1.0448,0.1166
4.5330,-0.1090,1.0448,0.1166
4.5610,-0.1090,1.0448,0.1166
4.5610,-0.1090,1.0448,0.1166
4.5610,-0.1090,1.0448,0.1166
4.5620,-0.1095,1.0489,0.1154
4.5910,-0.1095,1.0489,0.1154
4.5920,-0.1095,1.0489,0.1154
4.5920,-0.1095,1.0489,0.1154
4.5920,-0.1105,1.0523,0.1239
4.5920,-0.1107,1.0499,0.1232
4.6130,-0.1107,1.0499,0.1232
4.6130,-0.1107,1.0499,0.1232
4.6130,-0.1107,1.0499,0.1232
4.6130,-0.1083,1.0457,0.1198
4.6140,-0.1083,1.0457,0.1198
4.6410,-0.1083,1.0457,0.1198
4.6410,-0.1083,1.0457,0.1198
4.6420,-0.1083,1.0457,0.1198
4.6420,-0.1095,1.0421,0.1229
4.6720,-0.1095,1.0421,0.1229
4.6720,-0.1095,1.0421,0.1229
4.6730,-0.1095,1.0421,0.1229
4.6730,-0.1124,1.0462,0.1224
4.6730,-0.1210,1.0533,0.1122
4.6920,-0.1210,1.0533,0.1122
4.6920,-0.1210,1.0533,0.1122
4.6920,-0.1210,1.0533,0.1122
4.6930,-0.1254,1.0519,0.1200
4.6930,-0.1254,1.0519,0.1200
4.7200,-0.1254,1.0519,0.1200
4.7230,-0.1254,1.0519,0.1200
4.7240,-0.1254,1.0519,0.1200
4.7240,-0.1254,1.0519,0.1200
4.7250,-0.1163,1.0482,0.1278
4.7530,-0.1163,1.0482,0.1278
4.7530,-0.1163,1.0482,0.1278
4.7530,-0.1163,1.0482,0.1278
4.7540,-0.1080,1.0448,0.1285
4.7540,-0.1051,1.0453,0.1249
4.7720,-0.1051,1.0453,0.1249
4.7730,-0.1051,1.0453,0.1249
4.7730,-0.1051,1.0453,0.1249
4.7730,-0.1041,1.0475,0.1144
4.7740,-0.1041,1.0475,0.1144
4.8010,-0.1041,1.0475,0.1144
4.8020,-0.1041,1.0475,0.1144
4.8020,-0.1041,1.0475,0.1144
4.8030,-0.1112,1.0462,0.1205
4.8310,-0.1112,1.0462,0.1205
4.8310,-0.1112,1.0462,0.1205
4.8320,-0.1112,1.0462,0.1205
4.8330,-0.1178,1.0421,0.1317
4.8330,-0.1156,1.0433,0.1232
4.8530,-0.1156,1.0433,0.1232
4.8530,-0.1156,1.0433,0.1232
4.8540,-0.1156,1.0433,0.1232
4.8540,-0.1122,1.0460,0.1097
4.8540,-0.1122,1.0460,0.1097
4.8810,-0.1122,1.0460,0.1097
4.8820,-0.1122,1.0460,0.1097
4.8820,-0.1122,1.0460,0.1097
4.8900,-0.1092,1.0475,0.1166
4.9120,-0.1092,1.0475,0.1166
4.9130,-0.1092,1.0475,0.1166
4.9130,-0.1092,1.0475,0.1166
4.9130,-0.1026,1.0433,0.1263
4.9140,-0.1044,1.0450,0.1261
4.9220,-0.1044,1.0450,0.1261
4.9330,-0.1044,1.0450,0.1261
4.9340,-0.1044,1.0450,0.1261
4.9340,-0.1044,1.0450,0.1261
4.9350,-0.1092,1.0479,0.1190
4.9350,-0.1092,1.0479,0.1190
4.9620,-0.1092,1.0479,0.1190
4.9620,-0.1092,1.0479,0.1190
4.9620,-0.1092,1.0479,0.1190
4.9630,-0.1132,1.0526,0.1122
4.9930,-0.1132,1.0526,0.1122
4.9930,-0.1132,1.0526,0.1122
4.9940,-0.1132,1.0526,0.1122
4.9940,-0.1110,1.0501,0.1139
4.9950,-0.1053,1.0472,0.1278
5.0130,-0.1053,1.0472,0.1278
5.0140,-0.1053,1.0472,0.1278
5.0140,-0.1053,1.0472,0.1278
5.0140,-0.0990,1.0470,0.1271
5.0140,-0.0990,1.0470,0.1271
5.0420,-0.0990,1.0470,0.1271
5.0430,-0.0990,1.0470,0.1271
5.0430,-0.0990,1.0470,0.1271
5.0430,-0.1012,1.0462,0.1212
5.0720,-0.1012,1.0462,0.1212
5.0730,-0.1012,1.0462,0.1212
5.0730,-0.1012,1.0462,0.1212
5.0770,-0.1146,1.0470,0.1249
5.0780,-0.1224,1.0523,0.1212
5.0920,-0.1224,1.0523,0.1212
5.0930,-0.1224,1.0523,0.1212
5.0930,-0.1224,1.0523,0.1212
5.0930,-0.1161,1.0543,0.1112
5.0930,-0.1161,1.0543,0.1112
5.1200,-0.1161,1.0543,0.1112
5.1230,-0.1161,1.0543,0.1112
5.1230,-0.1161,1.0543,0.1112
5.1240,-0.1161,1.0543,0.1112
5.1240,-0.1061,1.0477,0.1173
5.1520,-0.1061,1.0477,0.1173
5.1520,-0.1061,1.0477,0.1173
5.1530,-0.1061,1.0477,0.1173
5.1530,-0.1075,1.0423,0.1361
5.1540,-0.1161,1.0433,0.1266
5.1720,-0.1161,1.0433,0.1266
5.1730,-0.1161,1.0433,0.1266
5.1730,-0.1161,1.0433,0.1266
5.1740,-0.1217,1.0470,0.1171
5.1740,-0.1217,1.0470,0.1171
5.2010,-0.1217,1.0470,0.1171
5.2020,-0.1217,1.0470,0.1171
5.2030,-0.1217,1.0470,0.1171
5.2030,-0.1180,1.0443,0.1166
5.2330,-0.1180,1.0443,0.1166
5.2330,-0.1180,1.0443,0.1166
5.2330,-0.1180,1.0443,0.1166
5.2330,-0.1078,1.0477,0.1195
5.2330,-0.0990,1.0489,0.1188
5.2530,-0.0990,1.0489,0.1188
5.2530,-0.0990,1.0489,0.1188
5.2530,-0.0990,1.0489,0.1188
5.2540,-0.1046,1.0499,0.1202
5.2540,-0.1046,1.0499,0.1202
5.2830,-0.1046,1.0499,0.1202
5.2830,-0.1046,1.0499,0.1202
5.2830,-0.1046,1.0499,0.1202
5.2840,-0.1124,1.0487,0.1173
5.3130,-0.1124,1.0487,0.1173
5.3130,-0.1124,1.0487,0.1173
5.3140,-0.1124,1.0487,0.1173
5.3140,-0.1163,1.0467,0.1224
5.3140,-0.1193,1.0484,0.1234
5.3210,-0.1193,1.0484,0.1234
5.3330,-0.1193,1.0484,0.1234
5.3330,-0.1193,1.0484,0.1234
5.3340,-0.1193,1.0484,0.1234
5.3340,-0.1168,1.0494,0.1190
5.3340,-0.1168,1.0494,0.1190
5.3630,-0.1168,1.0494,0.1190
5.3630,-0.1168,1.0494,0.1190
5.3640,-0.1168,1.0494,0.1190
5.3640,-0.1051,1.0455,0.1195
5.3940,-0.1051,1.0455,0.1195
5.3950,-0.1051,1.0455,0.1195
5.3960,-0.1051,1.0455,0.1195
5.3960,-0.1036,1.0450,0.1239
5.3970,-0.1092,1.0472,0.1229
5.4140,-0.1092,1.0472,0.1229
5.4140,-0.1092,1.0472,0.1229
5.4150,-0.1092,1.0472,0.1229
5.4150,-0.1183,1.0465,0.1229
5.4150,-0.1183,1.0465,0.1229
5.4430,-0.1183,1.0465,0.1229
5.4430,-0.1183,1.0465,0.1229
5.4570,-0.1183,1.0465,0.1229
5.4570,-0.1190,1.0475,0.1178
5.4720,-0.1190,1.0475,0.1178
5.4720,-0.1190,1.0475,0.1178
5.4720,-0.1190,1.0475,0.1178
5.4730,-0.1154,1.0484,0.1227
5.4730,-0.1102,1.0455,0.1327
5.4930,-0.1102,1.0455,0.1327
5.4930,-0.1102,1.0455,0.1327
5.4930,-0.1102,1.0455,0.1327
5.4930,-0.1100,1.0423,0.1158
5.4940,-0.1100,1.0423,0.1158
5.5200,-0.1100,1.0423,0.1158
5.5230,-0.1100,1.0423,0.1158
5.5240,-0.1100,1.0423,0.1158
5.5240,-0.1100,1.0423,0.1158
5.5240,-0.1127,1.0457,0.1141
5.5520,-0.1127,1.0457,0.1141
5.5530,-0.1127,1.0457,0.1141
5.5530,-0.1127,1.0457,0.1141
5.5530,-0.1171,1.0487,0.1193
5.5540,-0.1180,1.0453,0.1232
5.5730,-0.1180,1.0453,0.1232
5.5750,-0.1180,1.0453,0.1232
5.5750,-0.1180,1.0453,0.1232
5.5750,-0.1178,1.0433,0.1249
5.5750,-0.1178,1.0433,0.1249
5.6020,-0.1178,1.0433,0.1249
5.6020,-0.1178,1.0433,0.1249
5.6030,-0.1178,1.0433,0.1249
5.6030,-0.1180,1.0460,0.1173
5.6330,-0.1180,1.0460,0.1173
5.6330,-0.1180,1.0460,0.1173
5.6340,-0.1180,1.0460,0.1173
5.6340,-0.1139,1.0467,0.1117
5.6340,-0.1083,1.0494,0.1227
5.6530,-0.1083,1.0494,0.1227
5.6540,-0.1083,1.0494,0.1227
5.6540,-0.1083,1.0494,0.1227
5.6540,-0.1127,1.0443,0.1290
5.6540,-0.1127,1.0443,0.1290
5.6830,-0.1127,1.0443,0.1290
5.6830,-0.1127,1.0443,0.1290
5.6830,-0.1127,1.0443,0.1290
5.6830,-0.1188,1.0406,0.1222
5.7140,-0.1188,1.0406,0.1222
5.7140,-0.1188,1.0406,0.1222
5.7140,-0.1188,1.0406,0.1222
5.7140,-0.1185,1.0435,0.1193
5.7150,-0.1124,1.0521,0.1141
5.7200,-0.1124,1.0521,0.1141
5.7340,-0.1124,1.0521,0.1141
5.7340,-0.1124,1.0521,0.1141
5.7340,-0.1124,1.0521,0.1141
5.7350,-0.1114,1.0479,0.1158
5.7350,-0.1114,1.0479,0.1158
5.7620,-0.1114,1.0479,0.1158
5.7630,-0.1114,1.0479,0.1158
5.7630,-0.1114,1.0479,0.1158
5.7630,-0.1119,1.0423,0.1229
5.7940,-0.1119,1.0423,0.1229
5.7940,-0.1119,1.0423,0.1229
5.7950,-0.1119,1.0423,0.1229
5.7950,-0.1078,1.0453,0.1241
5.7950,-0.1073,1.0467,0.1193
5.8140,-0.1073,1.0467,0.1193
5.8150,-0.1073,1.0467,0.1193
5.8160,-0.1073,1.0467,0.1193
5.8170,-0.1166,1.0460,0.1207
5.8170,-0.1166,1.0460,0.1207
5.8440,-0.1166,1.0460,0.1207
5.8450,-0.1166,1.0460,0.1207
5.8450,-0.1166,1.0460,0.1207
5.8460,-0.1234,1.0428,0.1259
5.8740,-0.1234,1.0428,0.1259
5.8750,-0.1234,1.0428,0.1259
5.8750,-0.1234,1.0428,0.1259
5.8750,-0.1227,1.0423,0.1198
5.8760,-0.1141,1.0450,0.1107
5.8960,-0.1141,1.0450,0.1107
5.8960,-0.1141,1.0450,0.1107
5.8970,-0.1141,1.0450,0.1107
5.8970,-0.1134,1.0455,0.1168
5.8980,-0.1134,1.0455,0.1168
5.9220,-0.1134,1.0455,0.1168
5.9280,-0.1134,1.0455,0.1168
5.9280,-0.1134,1.0455,0.1168
5.9290,-0.1134,1.0455,0.1168
5.9300,-0.1149,1.0457,0.1259
5.9560,-0.1149,1.0457,0.1259
5.9570,-0.1149,1.0457,0.1259
5.9570,-0.1149,1.0457,0.1259
5.9580,-0.1146,1.0450,0.1256
5.9580,-0.1095,1.0428,0.1222
5.9750,-0.1095,1.0428,0.1222
5.9760,-0.1095,1.0428,0.1222
5.9760,-0.1095,1.0428,0.1222
5.9770,-0.1031,1.0472,0.1154
5.9780,-0.1031,1.0472,0.1154
6.0080,-0.1031,1.0472,0.1154
6.0270,-0.1031,1.0472,0.1154
6.0280,-0.1031,1.0472,0.1154
6.0280,-0.1070,1.0482,0.1183
6.0350,-0.1070,1.0482,0.1183
6.0350,-0.1070,1.0482,0.1183
6.0360,-0.1070,1.0482,0.1183
6.0360,-0.1158,1.0453,0.1261
6.0370,-0.1207,1.0470,0.1271
6.0550,-0.1207,1.0470,0.1271
6.0550,-0.1207,1.0470,0.1271
6.0560,-0.1207,1.0470,0.1271
6.0560,-0.1198,1.0494,0.1173
6.0570,-0.1198,1.0494,0.1173
6.0840,-0.1198,1.0494,0.1173
6.0850,-0.1198,1.0494,0.1173
6.0850,-0.1198,1.0494,0.1173
6.0860,-0.1151,1.0477,0.1173
6.1150,-0.1151,1.0477,0.1173
6.1150,-0.1151,1.0477,0.1173
6.1160,-0.1151,1.0477,0.1173
6.1170,-0.1141,1.0479,0.1234
6.1180,-0.1119,1.0455,0.1224
6.1190,-0.1119,1.0455,0.1224
6.1350,-0.1119,1.0455,0.1224
6.1360,-0.1119,1.0455,0.1224
6.1380,-0.1119,1.0455,0.1224
6.1390,-0.1117,1.0462,0.1232
6.1400,-0.1117,1.0462,0.1232
6.1650,-0.1117,1.0462,0.1232
6.1670,-0.1117,1.0462,0.1232
6.1680,-0.1117,1.0462,0.1232
6.1690,-0.1156,1.0465,0.1273
6.1960,-0.1156,1.0465,0.1273
6.1970,-0.1156,1.0465,0.1273
6.1980,-0.1156,1.0465,0.1273
6.1990,-0.1207,1.0462,0.1220
6.2000,-0.1198,1.0467,0.1158
6.2170,-0.1198,1.0467,0.1158
6.2180,-0.1198,1.0467,0.1158
6.2180,-0.1198,1.0467,0.1158
6.2190,-0.1163,1.0435,0.1178
6.2200,-0.1163,1.0435,0.1178
6.2450,-0.1163,1.0435,0.1178
6.2460,-0.1163,1.0435,0.1178
6.2470,-0.1163,1.0435,0.1178
6.2470,-0.1158,1.0406,0.1259
6.2760,-0.1158,1.0406,0.1259
6.2760,-0.1158,1.0406,0.1259
6.2770,-0.1158,1.0406,0.1259
6.2770,-0.1141,1.0421,0.1281
6.2780,-0.1117,1.0462,0.1244
6.3010,-0.1117,1.0462,0.1244
6.3020,-0.1117,1.0462,0.1244
6.3030,-0.1117,1.0462,0.1244
6.3040,-0.1117,1.0482,0.1144
6.3040,-0.1117,1.0482,0.1144
6.3250,-0.1117,1.0482,0.1144
6.3270,-0.1117,1.0482,0.1144
6.3280,-0.1117,1.0482,0.1144
6.3280,-0.1117,1.0482,0.1144
6.3290,-0.1132,1.0460,0.1185
6.3550,-0.1132,1.0460,0.1185
6.3560,-0.1132,1.0460,0.1185
6.3570,-0.1132,1.0460,0.1185
6.3640,-0.1188,1.0440,0.1259
6.3640,-0.1283,1.0440,0.1281
6.3760,-0.1283,1.0440,0.1281
6.3810,-0.1283,1.0440,0.1281
6.3840,-0.1283,1.0440,0.1281
6.3850,-0.1217,1.0482,0.1205
6.3860,-0.1217,1.0482,0.1205
6.4050,-0.1217,1.0482,0.1205
6.4060,-0.1217,1.0482,0.1205
6.4060,-0.1217,1.0482,0.1205
6.4070,-0.1114,1.0511,0.1124
6.4370,-0.1114,1.0511,0.1124
6.4380,-0.1114,1.0511,0.1124
6.4390,-0.1114,1.0511,0.1124
6.4400,-0.1080,1.0477,0.1202
6.4410,-0.1102,1.0428,0.1281
6.4560,-0.1102,1.0428,0.1281
6.4570,-0.1102,1.0428,0.1281
6.4580,-0.1102,1.0428,0.1281
6.4600,-0.1195,1.0443,0.1278
6.4610,-0.1195,1.0443,0.1278
6.4860,-0.1195,1.0443,0.1278
6.4870,-0.1195,1.0443,0.1278
6.4880,-0.1195,1.0443,0.1278
6.4890,-0.1288,1.0492,0.1227
6.5190,-0.1288,1.0492,0.1227
6.5220,-0.1288,1.0492,0.1227
6.5230,-0.1288,1.0492,0.1227
6.5240,-0.1312,1.0516,0.1161
6.5250,-0.1205,1.0467,0.1129
6.5270,-0.1205,1.0467,0.1129
6.5400,-0.1205,1.0467,0.1129
6.5420,-0.1205,1.0467,0.1129
6.5440,-0.1205,1.0467,0.1129
6.5440,-0.1102,1.0455,0.1229
6.5450,-0.1102,1.0455,0.1229
6.5650,-0.1102,1.0455,0.1229
6.5660,-0.1102,1.0455,0.1229
6.5660,-0.1102,1.0455,0.1229
6.5670,-0.1095,1.0467,0.1229
6.5940,-0.1095,1.0467,0.1229
6.5940,-0.1095,1.0467,0.1229
6.5940,-0.1095,1.0467,0.1229
6.5950,-0.1122,1.0489,0.1227
6.5950,-0.1132,1.0497,0.1215
6.6140,-0.1132,1.0497,0.1215
6.6140,-0.1132,1.0497,0.1215
6.6150,-0.1132,1.0497,0.1215
6.6150,-0.1122,1.0477,0.1188
6.6150,-0.1122,1.0477,0.1188
6.6450,-0.1122,1.0477,0.1188
6.6450,-0.1122,1.0477,0.1188
6.6460,-0.1122,1.0477,0.1188
6.6460,-0.1090,1.0453,0.1185
6.6760,-0.1090,1.0453,0.1185
6.6760,-0.1090,1.0453,0.1185
6.6770,-0.1090,1.0453,0.1185
6.6780,-0.1127,1.0462,0.1205
6.6780,-0.1217,1.0487,0.1188
6.6950,-0.1217,1.0487,0.1188
6.6970,-0.1217,1.0487,0.1188
6.6980,-0.1217,1.0487,0.1188
6.6990,-0.1198,1.0494,0.1156
6.7000,-0.1198,1.0494,0.1156
6.7210,-0.1198,1.0494,0.1156
6.7260,-0.1198,1.0494,0.1156
6.7270,-0.1198,1.0494,0.1156
6.7280,-0.1198,1.0494,0.1156
6.7290,-0.1139,1.0489,0.1190
6.7590,-0.1139,1.0489,0.1190
6.7610,-0.1139,1.0489,0.1190
6.7620,-0.1139,1.0489,0.1190
6.7620,-0.1117,1.0462,0.1202
6.7630,-0.1088,1.0433,0.1229
6.7810,-0.1088,1.0433,0.1229
6.7820,-0.1088,1.0433,0.1229
6.7830,-0.1088,1.0433,0.1229
6.7830,-0.1090,1.0472,0.1207
6.7840,-0.1090,1.0472,0.1207
6.8060,-0.1090,1.0472,0.1207
6.8070,-0.1090,1.0472,0.1207
6.8070,-0.1090,1.0472,0.1207
6.8080,-0.1092,1.0506,0.1178
6.8360,-0.1092,1.0506,0.1178
6.8380,-0.1092,1.0506,0.1178
6.8410,-0.1092,1.0506,0.1178
6.8420,-0.1100,1.0455,0.1224
6.8430,-0.1107,1.0455,0.1154
6.8600,-0.1107,1.0455,0.1154
6.8610,-0.1107,1.0455,0.1154
6.8610,-0.1107,1.0455,0.1154
6.8610,-0.1158,1.0416,0.1168
6.8620,-0.1158,1.0416,0.1168
6.8860,-0.1158,1.0416,0.1168
6.8870,-0.1158,1.0416,0.1168
6.8880,-0.1158,1.0416,0.1168
6.8880,-0.1176,1.0426,0.1176
6.9170,-0.1176,1.0426,0.1176
6.9170,-0.1176,1.0426,0.1176
6.9180,-0.1176,1.0426,0.1176
6.9190,-0.1154,1.0450,0.1202
6.9200,-0.1141,1.0465,0.1229
6.9200,-0.1141,1.0465,0.1229
6.9380,-0.1141,1.0465,0.1229
6.9390,-0.1141,1.0465,0.1229
6.9390,-0.1141,1.0465,0.1229
6.9400,-0.1112,1.0475,0.1178
6.9410,-0.1112,1.0475,0.1178
6.9660,-0.1112,1.0475,0.1178
6.9670,-0.1112,1.0475,0.1178
6.9670,-0.1112,1.0475,0.1178
6.9680,-0.1100,1.0484,0.1183
6.9980,-0.1100,1.0484,0.1183
7.0000,-0.1100,1.0484,0.1183
7.0010,-0.1100,1.0484,0.1183
7.0020,-0.1117,1.0462,0.1163
7.0030,-0.1158,1.0435,0.1156
7.0170,-0.1158,1.0435,0.1156
7.0180,-0.1158,1.0435,0.1156
7.0220,-0.1158,1.0435,0.1156
7.0230,-0.1220,1.0433,0.1227
7.0230,-0.1220,1.0433,0.1227
7.0480,-0.1220,1.0433,0.1227
7.0480,-0.1220,1.0433,0.1227
7.0500,-0.1220,1.0433,0.1227
7.0500,-0.1222,1.0448,0.1237
7.0780,-0.1222,1.0448,0.1237
7.0790,-0.1222,1.0448,0.1237
7.0840,-0.1222,1.0448,0.1237
7.0840,-0.1149,1.0472,0.1185
7.0850,-0.1119,1.0470,0.1180
7.0980,-0.1119,1.0470,0.1180
7.0980,-0.1119,1.0470,0.1180
7.0990,-0.1119,1.0470,0.1180
7.0990,-0.1141,1.0462,0.1222
7.1000,-0.1141,1.0462,0.1222
7.1220,-0.1141,1.0462,0.1222
7.1260,-0.1141,1.0462,0.1222
7.1260,-0.1141,1.0462,0.1222
7.1270,-0.1141,1.0462,0.1222
7.1270,-0.1154,1.0479,0.1149
7.1560,-0.1154,1.0479,0.1149
7.1570,-0.1154,1.0479,0.1149
7.1570,-0.1154,1.0479,0.1149
7.1580,-0.1129,1.0504,0.1129
7.1580,-0.1051,1.0482,0.1237
7.1820,-0.1051,1.0482,0.1237
7.1830,-0.1051,1.0482,0.1237
7.1840,-0.1051,1.0482,0.1237
7.1840,-0.1036,1.0440,0.1268
7.1850,-0.1036,1.0440,0.1268
7.2060,-0.1036,1.0440,0.1268
7.2060,-0.1036,1.0440,0.1268
7.2070,-0.1036,1.0440,0.1268
7.2070,-0.1078,1.0477,0.1195
7.2400,-0.1078,1.0477,0.1195
7.2410,-0.1078,1.0477,0.1195
7.2420,-0.1078,1.0477,0.1195
7.2430,-0.1110,1.0501,0.1144
7.2430,-0.1163,1.0460,0.1205
7.2570,-0.1163,1.0460,0.1205
7.2580,-0.1163,1.0460,0.1205
7.2580,-0.1163,1.0460,0.1205
7.2590,-0.1222,1.0421,0.1207
7.2590,-0.1222,1.0421,0.1207
7.2850,-0.1222,1.0421,0.1207
7.2860,-0.1222,1.0421,0.1207
7.2870,-0.1222,1.0421,0.1207
7.2880,-0.1251,1.0445,0.1149
7.3160,-0.1251,1.0445,0.1149
7.3170,-0.1251,1.0445,0.1149
7.3180,-0.1251,1.0445,0.1149
7.3190,-0.1198,1.0487,0.1149
7.3200,-0.1119,1.0462,0.1227
7.3240,-0.1119,1.0462,0.1227
7.3400,-0.1119,1.0462,0.1227
7.3410,-0.1119,1.0462,0.1227
7.3420,-0.1119,1.0462,0.1227
7.3450,-0.1056,1.0438,0.1298
7.3460,-0.1056,1.0438,0.1298
7.3660,-0.1056,1.0438,0.1298
7.3670,-0.1056,1.0438,0.1298
7.3680,-0.1056,1.0438,0.1298
7.3690,-0.1090,1.0426,0.1268
7.3970,-0.1090,1.0426,0.1268
7.3980,-0.1090,1.0426,0.1268
7.3990,-0.1090,1.0426,0.1268
7.4000,-0.1168,1.0438,0.1207
7.4010,-0.1178,1.0465,0.1173
7.4180,-0.1178,1.0465,0.1173
7.4190,-0.1178,1.0465,0.1173
7.4200,-0.1178,1.0465,0.1173
7.4210,-0.1229,1.0467,0.1180
7.4220,-0.1229,1.0467,0.1180
7.4480,-0.1229,1.0467,0.1180
7.4480,-0.1229,1.0467,0.1180
7.4490,-0.1229,1.0467,0.1180
7.4500,-0.1227,1.0406,0.1241
7.4790,-0.1227,1.0406,0.1241
7.4840,-0.1227,1.0406,0.1241
7.4840,-0.1227,1.0406,0.1241
7.4850,-0.1183,1.0448,0.1254
7.4850,-0.1149,1.0523,0.1166
7.4980,-0.1149,1.0523,0.1166
7.4990,-0.1149,1.0523,0.1166
7.5010,-0.1149,1.0523,0.1166
7.5030,-0.1180,1.0470,0.1202
7.5040,-0.1180,1.0470,0.1202
7.5230,-0.1180,1.0470,0.1202
7.5290,-0.1180,1.0470,0.1202
7.5300,-0.1180,1.0470,0.1202
7.5310,-0.1180,1.0470,0.1202
7.5320,-0.1190,1.0450,0.1322
7.5590,-0.1190,1.0450,0.1322
7.5600,-0.1190,1.0450,0.1322
7.5610,-0.1190,1.0450,0.1322
7.5620,-0.1090,1.0470,0.1180
7.5630,-0.1061,1.0462,0.1107
7.5800,-0.1061,1.0462,0.1107
7.5800,-0.1061,1.0462,0.1107
7.5810,-0.1061,1.0462,0.1107
7.5820,-0.1107,1.0450,0.1273
7.5830,-0.1107,1.0450,0.1273
7.6070,-0.1107,1.0450,0.1273
7.6080,-0.1107,1.0450,0.1273
7.6090,-0.1107,1.0450,0.1273
7.6100,-0.1193,1.0455,0.1227
7.6400,-0.1193,1.0455,0.1227
7.6400,-0.1193,1.0455,0.1227
7.6410,-0.1193,1.0455,0.1227
7.6410,-0.1222,1.0492,0.1139
7.6420,-0.1215,1.0536,0.1132
7.6590,-0.1215,1.0536,0.1132
7.6600,-0.1215,1.0536,0.1132
7.6610,-0.1215,1.0536,0.1132
7.6620,-0.1193,1.0511,0.1198
7.6800,-0.1193,1.0511,0.1198
7.6870,-0.1193,1.0511,0.1198
7.6870,-0.1193,1.0511,0.1198
7.6880,-0.1193,1.0511,0.1198
7.6880,-0.1110,1.0472,0.1205
7.7160,-0.1110,1.0472,0.1205
7.7160,-0.1110,1.0472,0.1205
7.7170,-0.1110,1.0472,0.1205
7.7170,-0.1088,1.0421,0.1298
7.7180,-0.1122,1.0428,0.1241
7.7210,-0.1122,1.0428,0.1241
7.7370,-0.1122,1.0428,0.1241
7.7380,-0.1122,1.0428,0.1241
7.7380,-0.1122,1.0428,0.1241
7.7380,-0.1163,1.0509,0.1122
7.7390,-0.1163,1.0509,0.1122
7.7650,-0.1163,1.0509,0.1122
7.7660,-0.1163,1.0509,0.1122
7.7660,-0.1163,1.0509,0.1122
7.7670,-0.1171,1.0528,0.1144
7.7970,-0.1171,1.0528,0.1144
7.7980,-0.1171,1.0528,0.1144
7.7990,-0.1171,1.0528,0.1144
7.8000,-0.1066,1.0477,0.1202
7.8000,-0.0992,1.0418,0.1241
7.8180,-0.0992,1.0418,0.1241
7.8180,-0.0992,1.0418,0.1241
7.8190,-0.0992,1.0418,0.1241
7.8200,-0.1022,1.0438,0.1273
7.8210,-0.1022,1.0438,0.1273
7.8480,-0.1022,1.0438,0.1273
7.8490,-0.1022,1.0438,0.1273
7.8500,-0.1022,1.0438,0.1273
7.8510,-0.1083,1.0467,0.1195
7.8770,-0.1083,1.0467,0.1195
7.8780,-0.1083,1.0467,0.1195
7.8800,-0.1083,1.0467,0.1195
7.8810,-0.1075,1.0504,0.1127
7.8810,-0.1061,1.0484,0.1232
7.8980,-0.1061,1.0484,0.1232
7.8980,-0.1061,1.0484,0.1232
7.8990,-0.1061,1.0484,0.1232
7.9000,-0.1078,1.0423,0.1317
7.9000,-0.1078,1.0423,0.1317
7.9220,-0.1078,1.0423,0.1317
7.9280,-0.1078,1.0423,0.1317
7.9290,-0.1078,1.0423,0.1317
7.9300,-0.1078,1.0423,0.1317
7.9310,-0.1129,1.0411,0.1222
7.9590,-0.1129,1.0411,0.1222
7.9630,-0.1129,1.0411,0.1222
7.9640,-0.1129,1.0411,0.1222
7.9640,-0.1198,1.0448,0.1134
7.9650,-0.1266,1.0489,0.1139
7.9770,-0.1266,1.0489,0.1139
7.9780,-0.1266,1.0489,0.1139
7.9810,-0.1266,1.0489,0.1139
7.9840,-0.1256,1.0511,0.1198
7.9850,-0.1256,1.0511,0.1198
8.0090,-0.1256,1.0511,0.1198
8.0090,-0.1256,1.0511,0.1198
8.0100,-0.1256,1.0511,0.1198
8.0110,-0.1188,1.0455,0.1232
8.0390,-0.1188,1.0455,0.1232
8.0400,-0.1188,1.0455,0.1232
8.0410,-0.1188,1.0455,0.1232
8.0410,-0.1166,1.0401,0.1227
8.0420,-0.1168,1.0448,0.1205
8.0580,-0.1168,1.0448,0.1205
8.0600,-0.1168,1.0448,0.1205
8.0600,-0.1168,1.0448,0.1205
8.0610,-0.1190,1.0499,0.1163
8.0610,-0.1190,1.0499,0.1163
8.0870,-0.1190,1.0499,0.1163
8.0880,-0.1190,1.0499,0.1163
8.0880,-0.1190,1.0499,0.1163
8.0900,-0.1198,1.0526,0.1193
8.1160,-0.1198,1.0526,0.1193
8.1170,-0.1198,1.0526,0.1193
8.1180,-0.1198,1.0526,0.1193
8.1190,-0.1210,1.0467,0.1281
8.1190,-0.1176,1.0453,0.1215
8.1230,-0.1176,1.0453,0.1215
8.1370,-0.1176,1.0453,0.1215
8.1370,-0.1176,1.0453,0.1215
8.1380,-0.1176,1.0453,0.1215
8.1390,-0.1097,1.0445,0.1166
8.1390,-0.1097,1.0445,0.1166
8.1660,-0.1097,1.0445,0.1166
8.1660,-0.1097,1.0445,0.1166
8.1670,-0.1097,1.0445,0.1166
8.1670,-0.1083,1.0450,0.1293
8.1970,-0.1083,1.0450,0.1293
8.1980,-0.1083,1.0450,0.1293
8.2000,-0.1083,1.0450,0.1293
8.2010,-0.1078,1.0487,0.1266
8.2020,-0.1036,1.0528,0.1134
8.2170,-0.1036,1.0528,0.1134
8.2170,-0.1036,1.0528,0.1134
8.2180,-0.1036,1.0528,0.1134
8.2350,-0.1039,1.0528,0.1180
8.2360,-0.1039,1.0528,0.1180
8.2470,-0.1039,1.0528,0.1180
8.2480,-0.1039,1.0528,0.1180
8.2480,-0.1039,1.0528,0.1180
8.2480,-0.1092,1.0465,0.1276
8.2760,-0.1092,1.0465,0.1276
8.2770,-0.1092,1.0465,0.1276
8.2780,-0.1092,1.0465,0.1276
8.2780,-0.1134,1.0438,0.1278
8.2790,-0.1207,1.0477,0.1229
8.2980,-0.1207,1.0477,0.1229
8.2980,-0.1207,1.0477,0.1229
8.2980,-0.1207,1.0477,0.1229
8.2990,-0.1246,1.0492,0.1173
8.2990,-0.1246,1.0492,0.1173
8.3230,-0.1246,1.0492,0.1173
8.3270,-0.1246,1.0492,0.1173
8.3280,-0.1246,1.0492,0.1173
8.3300,-0.1246,1.0492,0.1173
8.3300,-0.1210,1.0501,0.1180
8.3610,-0.1210,1.0501,0.1180
8.3630,-0.1210,1.0501,0.1180
8.3640,-0.1210,1.0501,0.1180
8.3650,-0.1178,1.0470,0.1212
8.3660,-0.1134,1.0433,0.1227
8.3790,-0.1134,1.0433,0.1227
8.3810,-0.1134,1.0433,0.1227
8.3820,-0.1134,1.0433,0.1227
8.3830,-0.1053,1.0492,0.1180
8.3840,-0.1053,1.0492,0.1180
8.4080,-0.1053,1.0492,0.1180
8.4090,-0.1053,1.0492,0.1180
8.4100,-0.1053,1.0492,0.1180
8.4110,-0.1002,1.0533,0.1136
8.4390,-0.1002,1.0533,0.1136
8.4400,-0.1002,1.0533,0.1136
8.4410,-0.1002,1.0533,0.1136
8.4410,-0.1048,1.0477,0.1229
8.4420,-0.1080,1.0450,0.1295
8.4590,-0.1080,1.0450,0.1295
8.4600,-0.1080,1.0450,0.1295
8.4610,-0.1080,1.0450,0.1295
8.4610,-0.1088,1.0472,0.1232
8.4620,-0.1088,1.0472,0.1232
8.4880,-0.1088,1.0472,0.1232
8.4880,-0.1088,1.0472,0.1232
8.4890,-0.1088,1.0472,0.1232
8.4900,-0.1053,1.0489,0.1217
8.5200,-0.1053,1.0489,0.1217
8.5210,-0.1053,1.0489,0.1217
8.5220,-0.1053,1.0489,0.1217
8.5230,-0.1039,1.0470,0.1268
8.5250,-0.1061,1.0472,0.1215
8.5270,-0.1061,1.0472,0.1215
8.5280,-0.1061,1.0472,0.1215
8.5430,-0.1061,1.0472,0.1215
8.5440,-0.1061,1.0472,0.1215
8.5440,-0.1061,1.0472,0.1215
8.5450,-0.1139,1.0506,0.1100
8.5450,-0.1139,1.0506,0.1100
8.5680,-0.1139,1.0506,0.1100
8.5690,-0.1139,1.0506,0.1100
8.5700,-0.1139,1.0506,0.1100
8.5700,-0.1212,1.0519,0.1141
8.5980,-0.1212,1.0519,0.1141
8.6000,-0.1212,1.0519,0.1141
8.6010,-0.1212,1.0519,0.1141
8.6020,-0.1144,1.0465,0.1256
8.6030,-0.1061,1.0404,0.1327
8.6240,-0.1061,1.0404,0.1327
8.6250,-0.1061,1.0404,0.1327
8.6260,-0.1061,1.0404,0.1327
8.6280,-0.1031,1.0435,0.1246
8.6290,-0.1031,1.0435,0.1246
8.6480,-0.1031,1.0435,0.1246
8.6490,-0.1031,1.0435,0.1246
8.6500,-0.1031,1.0435,0.1246
8.6510,-0.1078,1.0477,0.1102
8.6780,-0.1078,1.0477,0.1102
8.6810,-0.1078,1.0477,0.1102
8.6820,-0.1078,1.0477,0.1102
8.6830,-0.1095,1.0450,0.1122
8.6830,-0.1171,1.0433,0.1212
8.6990,-0.1171,1.0433,0.1212
8.7000,-0.1171,1.0433,0.1212
8.7030,-0.1171,1.0433,0.1212
8.7040,-0.1183,1.0453,0.1168
8.7050,-0.1183,1.0453,0.1168
8.7250,-0.1183,1.0453,0.1168
8.7280,-0.1183,1.0453,0.1168
8.7290,-0.1183,1.0453,0.1168
8.7300,-0.1183,1.0453,0.1168
8.7310,-0.1183,1.0453,0.1168
8.7310,-0.1163,1.0467,0.1222
8.7590,-0.1163,1.0467,0.1222
8.7600,-0.1163,1.0467,0.1222
8.7600,-0.1163,1.0467,0.1222
8.7610,-0.1202,1.0433,0.1276
8.7610,-0.1185,1.0457,0.1173
8.7790,-0.1185,1.0457,0.1173
8.7790,-0.1185,1.0457,0.1173
8.7800,-0.1185,1.0457,0.1173
8.7800,-0.1141,1.0489,0.1078
8.7820,-0.1141,1.0489,0.1078
8.8070,-0.1141,1.0489,0.1078
8.8080,-0.1141,1.0489,0.1078
8.8080,-0.1141,1.0489,0.1078
8.8080,-0.1124,1.0445,0.1190
8.8370,-0.1124,1.0445,0.1190
8.8380,-0.1124,1.0445,0.1190
8.8380,-0.1124,1.0445,0.1190
8.8390,-0.1100,1.0409,0.1249
8.8400,-0.1073,1.0457,0.1207
8.8580,-0.1073,1.0457,0.1207
8.8600,-0.1073,1.0457,0.1207
8.8610,-0.1073,1.0457,0.1207
8.8620,-0.1073,1.0484,0.1149
8.8630,-0.1073,1.0484,0.1149
8.8880,-0.1073,1.0484,0.1149
8.8900,-0.1073,1.0484,0.1149
8.8910,-0.1073,1.0484,0.1149
8.8930,-0.1136,1.0467,0.1215
8.9210,-0.1136,1.0467,0.1215
8.9210,-0.1136,1.0467,0.1215
8.9230,-0.1136,1.0467,0.1215
8.9240,-0.1151,1.0462,0.1217
8.9240,-0.1149,1.0501,0.1229
8.9250,-0.1149,1.0501,0.1229
8.9250,-0.1149,1.0501,0.1229
8.9410,-0.1149,1.0501,0.1229
8.9430,-0.1149,1.0501,0.1229
8.9440,-0.1149,1.0501,0.1229
8.9440,-0.1102,1.0479,0.1178
8.9450,-0.1102,1.0479,0.1178
8.9690,-0.1102,1.0479,0.1178
8.9700,-0.1102,1.0479,0.1178
8.9710,-0.1102,1.0479,0.1178
8.9750,-0.1117,1.0472,0.1188
8.9990,-0.1117,1.0472,0.1188
9.0000,-0.1117,1.0472,0.1188
9.0000,-0.1117,1.0472,0.1188
9.0010,-0.1127,1.0443,0.1298
9.0010,-0.1097,1.0421,0.1351
9.0210,-0.1097,1.0421,0.1351
9.0210,-0.1097,1.0421,0.1351
9.0220,-0.1097,1.0421,0.1351
9.0230,-0.1134,1.0492,0.1303
9.0230,-0.1134,1.0492,0.1303
9.0490,-0.1134,1.0492,0.1303
9.0500,-0.1134,1.0492,0.1303
9.0500,-0.1134,1.0492,0.1303
9.0510,-0.1156,1.0531,0.1188
9.0780,-0.1156,1.0531,0.1188
9.0790,-0.1156,1.0531,0.1188
9.0800,-0.1156,1.0531,0.1188
9.0800,-0.1163,1.0494,0.1158
9.0800,-0.1188,1.0460,0.1212
9.1020,-0.1188,1.0460,0.1212
9.1030,-0.1188,1.0460,0.1212
9.1040,-0.1188,1.0460,0.1212
9.1040,-0.1163,1.0431,0.1300
9.1050,-0.1163,1.0431,0.1300
9.1270,-0.1163,1.0431,0.1300
9.1280,-0.1163,1.0431,0.1300
9.1290,-0.1163,1.0431,0.1300
9.1300,-0.1163,1.0431,0.1300
9.1310,-0.1163,1.0431,0.1300
9.1310,-0.1141,1.0445,0.1310
9.1610,-0.1141,1.0445,0.1310
9.1610,-0.1141,1.0445,0.1310
9.1620,-0.1141,1.0445,0.1310
9.1630,-0.1144,1.0470,0.1212
9.1630,-0.1156,1.0462,0.1173
9.1780,-0.1156,1.0462,0.1173
9.1790,-0.1156,1.0462,0.1173
9.1800,-0.1156,1.0462,0.1173
9.1810,-0.1166,1.0438,0.1276
9.1820,-0.1166,1.0438,0.1276
9.2100,-0.1166,1.0438,0.1276
9.2110,-0.1166,1.0438,0.1276
9.2110,-0.1166,1.0438,0.1276
9.2120,-0.1141,1.0428,0.1307
9.2390,-0.1141,1.0428,0.1307
9.2400,-0.1141,1.0428,0.1307
9.2410,-0.1141,1.0428,0.1307
9.2410,-0.1095,1.0455,0.1263
9.2420,-0.1053,1.0487,0.1173
9.2600,-0.1053,1.0487,0.1173
9.2610,-0.1053,1.0487,0.1173
9.2620,-0.1053,1.0487,0.1173
9.2640,-0.1051,1.0435,0.1263
9.2650,-0.1051,1.0435,0.1263
9.2910,-0.1051,1.0435,0.1263
9.2930,-0.1051,1.0435,0.1263
9.2940,-0.1051,1.0435,0.1263
9.2950,-0.1112,1.0409,0.1261
9.3230,-0.1112,1.0409,0.1261
9.3240,-0.1112,1.0409,0.1261
9.3250,-0.1112,1.0409,0.1261
9.3480,-0.1188,1.0450,0.1200
9.3480,-0.1215,1.0487,0.1205
9.3490,-0.1215,1.0487,0.1205
9.3500,-0.1215,1.0487,0.1205
9.3500,-0.1215,1.0487,0.1205
9.3510,-0.1215,1.0487,0.1205
9.3510,-0.1156,1.0443,0.1185
9.3520,-0.1156,1.0443,0.1185
9.3690,-0.1156,1.0443,0.1185
9.3700,-0.1156,1.0443,0.1185
9.3700,-0.1156,1.0443,0.1185
9.3710,-0.1080,1.0440,0.1200
9.3990,-0.1080,1.0440,0.1200
9.3990,-0.1080,1.0440,0.1200
9.4000,-0.1080,1.0440,0.1200
9.4000,-0.1041,1.0433,0.1234
9.4020,-0.1041,1.0489,0.1222
9.4190,-0.1041,1.0489,0.1222
9.4200,-0.1041,1.0489,0.1222
9.4200,-0.1041,1.0489,0.1222
9.4210,-0.1058,1.0509,0.1195
9.4210,-0.1058,1.0509,0.1195
9.4510,-0.1058,1.0509,0.1195
9.4520,-0.1058,1.0509,0.1195
9.4530,-0.1058,1.0509,0.1195
9.4530,-0.1100,1.0487,0.1256
9.4790,-0.1100,1.0487,0.1256
9.4820,-0.1100,1.0487,0.1256
9.4830,-0.1100,1.0487,0.1256
9.4840,-0.1136,1.0450,0.1268
9.4840,-0.1136,1.0457,0.1178
9.5030,-0.1136,1.0457,0.1178
9.5050,-0.1136,1.0457,0.1178
9.5050,-0.1136,1.0457,0.1178
9.5070,-0.1144,1.0460,0.1202
9.5070,-0.1144,1.0460,0.1202
9.5240,-0.1144,1.0460,0.1202
9.5300,-0.1144,1.0460,0.1202
9.5310,-0.1144,1.0460,0.1202
9.5320,-0.1144,1.0460,0.1202
9.5320,-0.1151,1.0448,0.1293
9.5580,-0.1151,1.0448,0.1293
9.5590,-0.1151,1.0448,0.1293
9.5600,-0.1151,1.0448,0.1293
9.5610,-0.1188,1.0445,0.1276
9.5610,-0.1190,1.0494,0.1205
9.5810,-0.1190,1.0494,0.1205
9.5820,-0.1190,1.0494,0.1205
9.5830,-0.1190,1.0494,0.1205
9.5840,-0.1132,1.0487,0.1195
9.5850,-0.1132,1.0487,0.1195
9.6090,-0.1132,1.0487,0.1195
9.6100,-0.1132,1.0487,0.1195
9.6110,-0.1132,1.0487,0.1195
9.6110,-0.1090,1.0477,0.1254
9.6400,-0.1090,1.0477,0.1254
9.6410,-0.1090,1.0477,0.1254
9.6420,-0.1090,1.0477,0.1254
9.6420,-0.1102,1.0445,0.1288
9.6430,-0.1139,1.0475,0.1295
9.6600,-0.1139,1.0475,0.1295
9.6620,-0.1139,1.0475,0.1295
9.6630,-0.1139,1.0475,0.1295
9.6640,-0.1168,1.0501,0.1271
9.6650,-0.1168,1.0501,0.1271
9.6900,-0.1168,1.0501,0.1271
9.6910,-0.1168,1.0501,0.1271
9.6920,-0.1168,1.0501,0.1271
9.6930,-0.1139,1.0494,0.1117
9.7230,-0.1139,1.0494,0.1117
9.7250,-0.1139,1.0494,0.1117
9.7270,-0.1139,1.0494,0.1117
9.7280,-0.1058,1.0497,0.1127
9.7290,-0.1024,1.0462,0.1285
9.7300,-0.1024,1.0462,0.1285
9.7310,-0.1024,1.0462,0.1285
9.7420,-0.1024,1.0462,0.1285
9.7430,-0.1024,1.0462,0.1285
9.7440,-0.1024,1.0462,0.1285
9.7450,-0.1066,1.0455,0.1307
9.7450,-0.1066,1.0455,0.1307
9.7720,-0.1066,1.0455,0.1307
9.7740,-0.1066,1.0455,0.1307
9.7740,-0.1066,1.0455,0.1307
9.7750,-0.1119,1.0506,0.1178
9.8000,-0.1119,1.0506,0.1178
9.8010,-0.1119,1.0506,0.1178
9.8020,-0.1119,1.0506,0.1178
9.8030,-0.1129,1.0477,0.1180
9.8040,-0.1119,1.0487,0.1256
9.8210,-0.1119,1.0487,0.1256
9.8210,-0.1119,1.0487,0.1256
9.8220,-0.1119,1.0487,0.1256
9.8240,-0.1110,1.0467,0.1241
9.8250,-0.1110,1.0467,0.1241
9.8490,-0.1110,1.0467,0.1241
9.8500,-0.1110,1.0467,0.1241
9.8510,-0.1110,1.0467,0.1241
9.8510,-0.1154,1.0479,0.1263
9.8800,-0.1154,1.0479,0.1263
9.9110,-0.1154,1.0479,0.1263
9.9110,-0.1154,1.0479,0.1263
9.9120,-0.1092,1.0492,0.1256
9.9140,-0.1039,1.0475,0.1222
9.9140,-0.1039,1.0475,0.1222
9.9140,-0.1039,1.0475,0.1222
9.9150,-0.1039,1.0475,0.1222
9.9160,-0.1056,1.0438,0.1215
9.9160,-0.1056,1.0438,0.1215
9.9200,-0.1056,1.0438,0.1215
9.9280,-0.1056,1.0438,0.1215
9.9290,-0.1056,1.0438,0.1215
9.9290,-0.1056,1.0438,0.1215
9.9300,-0.1058,1.0443,0.1244
9.9600,-0.1058,1.0443,0.1244
9.9600,-0.1058,1.0443,0.1244
9.9610,-0.1058,1.0443,0.1244
9.9610,-0.1117,1.0467,0.1310
9.9620,-0.1190,1.0477,0.1312
9.9790,-0.1190,1.0477,0.1312
9.9800,-0.1190,1.0477,0.1312
9.9810,-0.1190,1.0477,0.1312
9.9810,-0.1207,1.0482,0.1222
9.9820,-0.1207,1.0482,0.1222
10.0100,-0.1207,1.0482,0.1222
10.0100,-0.1207,1.0482,0.1222
10.0110,-0.1207,1.0482,0.1222
10.0120,-0.1176,1.0462,0.1156
10.0400,-0.1176,1.0462,0.1156
10.0410,-0.1176,1.0462,0.1156
10.0420,-0.1176,1.0462,0.1156
10.0430,-0.1053,1.0479,0.1266
10.0450,-0.0963,1.0462,0.1356
10.0630,-0.0963,1.0462,0.1356
10.0640,-0.0963,1.0462,0.1356
10.0650,-0.0963,1.0462,0.1356
10.0660,-0.0946,1.0472,0.1310
10.0670,-0.0946,1.0472,0.1310
10.0910,-0.0946,1.0472,0.1310
10.0920,-0.0946,1.0472,0.1310
10.0930,-0.0946,1.0472,0.1310
10.0940,-0.0941,1.0482,0.1246
10.1240,-0.0941,1.0482,0.1246
10.1250,-0.0941,1.0482,0.1246
10.1270,-0.0941,1.0482,0.1246
10.1280,-0.1019,1.0489,0.1271
10.1290,-0.1173,1.0489,0.1259
10.1300,-0.1173,1.0489,0.1259
10.1410,-0.1173,1.0489,0.1259
10.1420,-0.1173,1.0489,0.1259
10.1430,-0.1173,1.0489,0.1259
10.1430,-0.1300,1.0489,0.1210
10.1440,-0.1300,1.0489,0.1210
10.1720,-0.1300,1.0489,0.1210
10.1730,-0.1300,1.0489,0.1210
10.1740,-0.1300,1.0489,0.1210
10.1750,-0.1305,1.0460,0.1200
10.2040,-0.1305,1.0460,0.1200
10.2050,-0.1305,1.0460,0.1200
10.2060,-0.1305,1.0460,0.1200
10.2070,-0.1261,1.0416,0.1266
10.2080,-0.1249,1.0411,0.1259
10.2210,-0.1249,1.0411,0.1259
10.2220,-0.1249,1.0411,0.1259
10.2230,-0.1249,1.0411,0.1259
10.2240,-0.1224,1.0435,0.1205
10.2250,-0.1224,1.0435,0.1205
10.2510,-0.1224,1.0435,0.1205
10.2530,-0.1224,1.0435,0.1205
10.2540,-0.1224,1.0435,0.1205
10.2550,-0.1166,1.0445,0.1229
10.2810,-0.1166,1.0445,0.1229
10.2810,-0.1166,1.0445,0.1229
10.2820,-0.1166,1.0445,0.1229
10.2830,-0.1036,1.0438,0.1273
10.2850,-0.0953,1.0435,0.1266
10.3030,-0.0953,1.0435,0.1266
10.3040,-0.0953,1.0435,0.1266
10.3050,-0.0953,1.0435,0.1266
10.3060,-0.0899,1.0423,0.1232
10.3070,-0.0899,1.0423,0.1232
10.3240,-0.0899,1.0423,0.1232
10.3320,-0.0899,1.0423,0.1232
10.3330,-0.0899,1.0423,0.1232
10.3340,-0.0899,1.0423,0.1232
10.3350,-0.1004,1.0396,0.1307
10.3610,-0.1004,1.0396,0.1307
10.3620,-0.1004,1.0396,0.1307
10.3650,-0.1004,1.0396,0.1307
10.3650,-0.1244,1.0401,0.1227
10.3660,-0.1405,1.0457,0.1112
10.3870,-0.1405,1.0457,0.1112
10.3880,-0.1405,1.0457,0.1112
10.3890,-0.1405,1.0457,0.1112
10.3900,-0.1383,1.0497,0.1139
10.3910,-0.1383,1.0497,0.1139
10.4120,-0.1383,1.0497,0.1139
10.4130,-0.1383,1.0497,0.1139
10.4140,-0.1383,1.0497,0.1139
10.4150,-0.1198,1.0506,0.1185
10.4410,-0.1198,1.0506,0.1185
10.4420,-0.1198,1.0506,0.1185
10.4420,-0.1198,1.0506,0.1185
10.4430,-0.1070,1.0489,0.1256
10.4430,-0.0958,1.0450,0.1300
10.4600,-0.0958,1.0450,0.1300
10.4600,-0.0958,1.0450,0.1300
10.4600,-0.0958,1.0450,0.1300
10.4610,-0.0912,1.0448,0.1359
10.4610,-0.0912,1.0448,0.1359
10.4900,-0.0912,1.0448,0.1359
10.4910,-0.0912,1.0448,0.1359
10.4920,-0.0912,1.0448,0.1359
10.4930,-0.0938,1.0487,0.1251
10.5210,-0.0938,1.0487,0.1251
10.5230,-0.0938,1.0487,0.1251
10.5240,-0.0938,1.0487,0.1251
10.5250,-0.1026,1.0472,0.1215
10.5250,-0.1127,1.0445,0.1212
10.5270,-0.1127,1.0445,0.1212
10.5400,-0.1127,1.0445,0.1212
10.5410,-0.1127,1.0445,0.1212
10.5420,-0.1127,1.0445,0.1212
10.5430,-0.1171,1.0462,0.1151
10.5430,-0.1171,1.0462,0.1151
10.5710,-0.1171,1.0462,0.1151
10.5720,-0.1171,1.0462,0.1151
10.5730,-0.1171,1.0462,0.1151
10.5740,-0.1166,1.0462,0.1107
10.6020,-0.1166,1.0462,0.1107
10.6040,-0.1166,1.0462,0.1107
10.6050,-0.1166,1.0462,0.1107
10.6060,-0.1080,1.0479,0.1176
10.6070,-0.1041,1.0455,0.1376
10.6230,-0.1041,1.0455,0.1376
10.6240,-0.1041,1.0455,0.1376
10.6260,-0.1041,1.0455,0.1376
10.6270,-0.1117,1.0435,0.1293
10.6280,-0.1117,1.0435,0.1293
10.6520,-0.1117,1.0435,0.1293
10.6540,-0.1117,1.0435,0.1293
10.6550,-0.1117,1.0435,0.1293
10.6630,-0.1234,1.0462,0.1151
10.6850,-0.1234,1.0462,0.1151
10.6870,-0.1234,1.0462,0.1151
10.6880,-0.1234,1.0462,0.1151
10.6900,-0.1273,1.0545,0.1097
10.6910,-0.1129,1.0482,0.1193
10.7020,-0.1129,1.0482,0.1193
10.7030,-0.1129,1.0482,0.1193
10.7040,-0.1129,1.0482,0.1193
10.7050,-0.1063,1.0394,0.1427
10.7050,-0.1063,1.0394,0.1427
10.7220,-0.1063,1.0394,0.1427
10.7350,-0.1063,1.0394,0.1427
10.7370,-0.1063,1.0394,0.1427
10.7370,-0.1063,1.0394,0.1427
10.7380,-0.1107,1.0404,0.1351
10.7630,-0.1107,1.0404,0.1351
10.7630,-0.1107,1.0404,0.1351
10.7650,-0.1107,1.0404,0.1351
10.7650,-0.1180,1.0497,0.1166
10.7670,-0.1239,1.0504,0.1132
10.7820,-0.1239,1.0504,0.1132
10.7830,-0.1239,1.0504,0.1132
10.7840,-0.1239,1.0504,0.1132
10.7840,-0.1254,1.0477,0.1268
10.7850,-0.1254,1.0477,0.1268
10.8110,-0.1254,1.0477,0.1268
10.8110,-0.1254,1.0477,0.1268
10.8130,-0.1254,1.0477,0.1268
10.8140,-0.1173,1.0450,0.1254
10.8420,-0.1173,1.0450,0.1254
10.8430,-0.1173,1.0450,0.1254
10.8430,-0.1173,1.0450,0.1254
10.8440,-0.1105,1.0448,0.1146
10.8440,-0.1141,1.0501,0.1205
10.8620,-0.1141,1.0501,0.1205
10.8630,-0.1141,1.0501,0.1205
10.8630,-0.1141,1.0501,0.1205
10.8640,-0.1146,1.0487,0.1241
10.8640,-0.1146,1.0487,0.1241
10.8910,-0.1146,1.0487,0.1241
10.8930,-0.1146,1.0487,0.1241
10.8930,-0.1146,1.0487,0.1241
10.8940,-0.1139,1.0438,0.1234
10.9220,-0.1139,1.0438,0.1234
10.9230,-0.1139,1.0438,0.1234
10.9240,-0.1139,1.0438,0.1234
10.9240,-0.1105,1.0448,0.1315
10.9250,-0.1024,1.0470,0.1273
10.9250,-0.1024,1.0470,0.1273
10.9410,-0.1024,1.0470,0.1273
10.9420,-0.1024,1.0470,0.1273
10.9430,-0.1024,1.0470,0.1273
10.9430,-0.0987,1.0423,0.1263
10.9470,-0.0987,1.0423,0.1263
10.9700,-0.0987,1.0423,0.1263
10.9710,-0.0987,1.0423,0.1263
10.9720,-0.0987,1.0423,0.1263
10.9950,-0.1046,1.0477,0.1249
11.0020,-0.1046,1.0477,0.1249
11.0030,-0.1046,1.0477,0.1249
11.0040,-0.1046,1.0477,0.1249
11.0050,-0.1070,1.0533,0.1222
11.0050,-0.1144,1.0531,0.1246
11.0200,-0.1144,1.0531,0.1246
11.0210,-0.1144,1.0531,0.1246
11.0210,-0.1144,1.0531,0.1246
11.0210,-0.1195,1.0494,0.1263
11.0210,-0.1195,1.0494,0.1263
11.0510,-0.1195,1.0494,0.1263
11.0520,-0.1195,1.0494,0.1263
11.0520,-0.1195,1.0494,0.1263
11.0520,-0.1193,1.0426,0.1222
11.0830,-0.1193,1.0426,0.1222
11.0840,-0.1193,1.0426,0.1222
11.0840,-0.1193,1.0426,0.1222
11.0840,-0.1195,1.0389,0.1202
11.0850,-0.1241,1.0426,0.1173
11.1030,-0.1241,1.0426,0.1173
11.1040,-0.1241,1.0426,0.1173
11.1050,-0.1241,1.0426,0.1173
11.1050,-0.1276,1.0487,0.1158
11.1060,-0.1276,1.0487,0.1158
11.1210,-0.1276,1.0487,0.1158
11.1300,-0.1276,1.0487,0.1158
11.1310,-0.1276,1.0487,0.1158
11.1320,-0.1276,1.0487,0.1158
11.1340,-0.1193,1.0492,0.1127
11.1610,-0.1193,1.0492,0.1127
11.1620,-0.1193,1.0492,0.1127
11.1620,-0.1193,1.0492,0.1127
11.1630,-0.1114,1.0477,0.1183
11.1640,-0.1100,1.0411,0.1254
11.1810,-0.1100,1.0411,0.1254
11.1820,-0.1100,1.0411,0.1254
11.1820,-0.1100,1.0411,0.1254
11.1830,-0.1095,1.0428,0.1193
11.1840,-0.1095,1.0428,0.1193
11.2100,-0.1095,1.0428,0.1193
11.2110,-0.1095,1.0428,0.1193
11.2110,-0.1095,1.0428,0.1193
11.2120,-0.1119,1.0450,0.1210
11.2410,-0.1119,1.0450,0.1210
11.2410,-0.1119,1.0450,0.1210
11.2410,-0.1119,1.0450,0.1210
11.2420,-0.1136,1.0484,0.1207
11.2420,-0.1127,1.0506,0.1166
11.2620,-0.1127,1.0506,0.1166
11.2620,-0.1127,1.0506,0.1166
11.2630,-0.1127,1.0506,0.1166
11.2630,-0.1180,1.0467,0.1158
11.2640,-0.1180,1.0467,0.1158
11.2920,-0.1180,1.0467,0.1158
11.2930,-0.1180,1.0467,0.1158
11.2930,-0.1180,1.0467,0.1158
11.2940,-0.1200,1.0457,0.1193
11.3240,-0.1200,1.0457,0.1193
11.3250,-0.1200,1.0457,0.1193
11.3260,-0.1200,1.0457,0.1193
11.3270,-0.1200,1.0457,0.1193
11.3270,-0.1198,1.0443,0.1241
11.3280,-0.1200,1.0531,0.1185
11.3280,-0.1200,1.0531,0.1185
11.3410,-0.1200,1.0531,0.1185
11.3420,-0.1200,1.0531,0.1185
11.3420,-0.1200,1.0531,0.1185
11.3420,-0.1193,1.0514,0.1200
11.3420,-0.1193,1.0514,0.1200
11.3710,-0.1193,1.0514,0.1200
11.3710,-0.1193,1.0514,0.1200
11.3710,-0.1193,1.0514,0.1200
11.3720,-0.1158,1.0450,0.1256
11.4020,-0.1158,1.0450,0.1256
11.4030,-0.1158,1.0450,0.1256
11.4040,-0.1158,1.0450,0.1256
11.4050,-0.1090,1.0438,0.1237
11.4050,-0.1046,1.0460,0.1161
11.4250,-0.1046,1.0460,0.1161
11.4250,-0.1046,1.0460,0.1161
11.4260,-0.1046,1.0460,0.1161
11.4270,-0.1068,1.0511,0.1141
11.4270,-0.1068,1.0511,0.1141
11.4510,-0.1068,1.0511,0.1141
11.4520,-0.1068,1.0511,0.1141
11.4520,-0.1068,1.0511,0.1141
11.4530,-0.1100,1.0516,0.1266
11.4820,-0.1100,1.0516,0.1266
11.4840,-0.1100,1.0516,0.1266
11.4840,-0.1100,1.0516,0.1266
11.4850,-0.1114,1.0492,0.1224
11.4850,-0.1132,1.0438,0.1232
11.5040,-0.1132,1.0438,0.1232
11.5050,-0.1132,1.0438,0.1232
11.5050,-0.1132,1.0438,0.1232
11.5060,-0.1095,1.0460,0.1285
11.5070,-0.1095,1.0460,0.1285
11.5210,-0.1095,1.0460,0.1285
11.5240,-0.1095,1.0460,0.1285
11.5440,-0.1095,1.0460,0.1285
11.5440,-0.1095,1.0460,0.1285
11.5440,-0.1095,1.0460,0.1285
11.5450,-0.1080,1.0489,0.1193
11.5630,-0.1080,1.0489,0.1193
11.5630,-0.1080,1.0489,0.1193
11.5640,-0.1080,1.0489,0.1193
11.5640,-0.1119,1.0501,0.1202
11.5640,-0.1188,1.0470,0.1288
11.5820,-0.1188,1.0470,0.1288
11.5830,-0.1188,1.0470,0.1288
11.5840,-0.1188,1.0470,0.1288
11.5850,-0.1224,1.0406,0.1283
11.5850,-0.1224,1.0406,0.1283
11.6120,-0.1224,1.0406,0.1283
11.6140,-0.1224,1.0406,0.1283
11.6140,-0.1224,1.0406,0.1283
11.6150,-0.1190,1.0418,0.1251
11.6410,-0.1190,1.0418,0.1251
11.6420,-0.1190,1.0418,0.1251
11.6440,-0.1190,1.0418,0.1251
11.6450,-0.1166,1.0445,0.1239
11.6460,-0.1119,1.0455,0.1285
11.6650,-0.1119,1.0455,0.1285
11.6660,-0.1119,1.0455,0.1285
11.6670,-0.1119,1.0455,0.1285
11.6670,-0.1080,1.0462,0.1220
11.6680,-0.1080,1.0462,0.1220
11.6930,-0.1080,1.0462,0.1220
11.6940,-0.1080,1.0462,0.1220
11.6940,-0.1080,1.0462,0.1220
11.6950,-0.1110,1.0479,0.1207
11.7250,-0.1110,1.0479,0.1207
11.7260,-0.1110,1.0479,0.1207
11.7270,-0.1110,1.0479,0.1207
11.7270,-0.1110,1.0479,0.1207
11.7280,-0.1151,1.0484,0.1268
11.7290,-0.1178,1.0511,0.1263
11.7290,-0.1178,1.0511,0.1263
11.7430,-0.1178,1.0511,0.1263
11.7450,-0.1178,1.0511,0.1263
11.7450,-0.1178,1.0511,0.1263
11.7460,-0.1158,1.0477,0.1234
11.7470,-0.1158,1.0477,0.1234
11.7730,-0.1158,1.0477,0.1234
11.7740,-0.1158,1.0477,0.1234
11.7740,-0.1158,1.0477,0.1234
11.7740,-0.1097,1.0472,0.1227
11.8020,-0.1097,1.0472,0.1227
11.8030,-0.1097,1.0472,0.1227
11.8030,-0.1097,1.0472,0.1227
11.8040,-0.1075,1.0457,0.1178
11.8040,-0.1097,1.0470,0.1193
11.8230,-0.1097,1.0470,0.1193
11.8230,-0.1097,1.0470,0.1193
11.8260,-0.1097,1.0470,0.1193
11.8260,-0.1163,1.0467,0.1254
11.8270,-0.1163,1.0467,0.1254
11.8520,-0.1163,1.0467,0.1254
11.8530,-0.1163,1.0467,0.1254
11.8540,-0.1163,1.0467,0.1254
11.8540,-0.1171,1.0516,0.1202
11.8840,-0.1171,1.0516,0.1202
11.8850,-0.1171,1.0516,0.1202
11.8860,-0.1171,1.0516,0.1202
11.8870,-0.1053,1.0509,0.1156
11.8870,-0.0997,1.0426,0.1195
11.9030,-0.0997,1.0426,0.1195
11.9040,-0.0997,1.0426,0.1195
11.9050,-0.0997,1.0426,0.1195
11.9060,-0.1058,1.0435,0.1290
11.9070,-0.1058,1.0435,0.1290
11.9220,-0.1058,1.0435,0.1290
11.9230,-0.1058,1.0435,0.1290
11.9350,-0.1058,1.0435,0.1290
11.9360,-0.1058,1.0435,0.1290
11.9370,-0.1058,1.0435,0.1290
11.9380,-0.1183,1.0479,0.1220
11.9620,-0.1183,1.0479,0.1220
11.9630,-0.1183,1.0479,0.1220
11.9640,-0.1183,1.0479,0.1220
11.9650,-0.1215,1.0519,0.1122
11.9660,-0.1129,1.0509,0.1217
11.9840,-0.1129,1.0509,0.1217
11.9870,-0.1129,1.0509,0.1217
11.9880,-0.1129,1.0509,0.1217
11.9900,-0.1078,1.0482,0.1246
11.9910,-0.1078,1.0482,0.1246
12.0130,-0.1078,1.0482,0.1246
12.0140,-0.1078,1.0482,0.1246
12.0140,-0.1078,1.0482,0.1246
12.0150,-0.1058,1.0487,0.1168
12.0440,-0.1058,1.0487,0.1168
12.0450,-0.1058,1.0487,0.1168
12.0460,-0.1058,1.0487,0.1168
12.0470,-0.1119,1.0455,0.1168
12.0480,-0.1212,1.0475,0.1215
12.0630,-0.1212,1.0475,0.1215
12.0640,-0.1212,1.0475,0.1215
12.0650,-0.1212,1.0475,0.1215
12.0850,-0.1244,1.0504,0.1217
12.0860,-0.1244,1.0504,0.1217
12.0900,-0.1244,1.0504,0.1217
12.0910,-0.1244,1.0504,0.1217
12.0910,-0.1244,1.0504,0.1217
12.0920,-0.1241,1.0472,0.1251
12.1190,-0.1241,1.0472,0.1251
12.1240,-0.1241,1.0472,0.1251
12.1240,-0.1241,1.0472,0.1251
12.1240,-0.1241,1.0472,0.1251
12.1240,-0.1195,1.0438,0.1244
12.1250,-0.1119,1.0460,0.1168
12.1410,-0.1119,1.0460,0.1168
12.1410,-0.1119,1.0460,0.1168
12.1410,-0.1119,1.0460,0.1168
12.1410,-0.1051,1.0492,0.1198
12.1420,-0.1051,1.0492,0.1198
12.1720,-0.1051,1.0492,0.1198
12.1730,-0.1051,1.0492,0.1198
12.1740,-0.1051,1.0492,0.1198
12.1750,-0.1058,1.0516,0.1254
12.2030,-0.1058,1.0516,0.1254
12.2040,-0.1058,1.0516,0.1254
12.2040,-0.1058,1.0516,0.1254
12.2050,-0.1073,1.0470,0.1227
12.2060,-0.1090,1.0423,0.1183
12.2230,-0.1090,1.0423,0.1183
12.2240,-0.1090,1.0423,0.1183
12.2250,-0.1090,1.0423,0.1183
12.2250,-0.1090,1.0426,0.1190
12.2260,-0.1090,1.0426,0.1190
12.2520,-0.1090,1.0426,0.1190
12.2530,-0.1090,1.0426,0.1190
12.2540,-0.1090,1.0426,0.1190
12.2550,-0.1122,1.0443,0.1215
12.2850,-0.1122,1.0443,0.1215
12.2860,-0.1122,1.0443,0.1215
12.2860,-0.1122,1.0443,0.1215
12.2870,-0.1124,1.0487,0.1217
12.2870,-0.1112,1.0506,0.1180
12.3030,-0.1112,1.0506,0.1180
12.3040,-0.1112,1.0506,0.1180
12.3050,-0.1112,1.0506,0.1180
12.3060,-0.1105,1.0453,0.1266
12.3060,-0.1105,1.0453,0.1266
12.3220,-0.1105,1.0453,0.1266
12.3340,-0.1105,1.0453,0.1266
12.3350,-0.1105,1.0453,0.1266
12.3350,-0.1105,1.0453,0.1266
12.3360,-0.1146,1.0421,0.1273
12.3640,-0.1146,1.0421,0.1273
12.3650,-0.1146,1.0421,0.1273
12.3650,-0.1146,1.0421,0.1273
12.3660,-0.1180,1.0465,0.1173
12.3680,-0.1239,1.0462,0.1149
12.3840,-0.1239,1.0462,0.1149
12.3850,-0.1239,1.0462,0.1149
12.3860,-0.1239,1.0462,0.1149
12.3860,-0.1249,1.0450,0.1176
12.3870,-0.1249,1.0450,0.1176
12.4130,-0.1249,1.0450,0.1176
12.4140,-0.1249,1.0450,0.1176
12.4140,-0.1249,1.0450,0.1176
12.4150,-0.1178,1.0460,0.1237
12.4440,-0.1178,1.0460,0.1237
12.4470,-0.1178,1.0460,0.1237
12.4480,-0.1178,1.0460,0.1237
12.4490,-0.1161,1.0399,0.1366
12.4500,-0.1188,1.0404,0.1276
12.4650,-0.1188,1.0404,0.1276
12.4660,-0.1188,1.0404,0.1276
12.4670,-0.1188,1.0404,0.1276
12.4670,-0.1234,1.0457,0.1090
12.4680,-0.1234,1.0457,0.1090
12.4940,-0.1234,1.0457,0.1090
12.4950,-0.1234,1.0457,0.1090
12.4960,-0.1234,1.0457,0.1090
12.4980,-0.1244,1.0514,0.1134
12.5230,-0.1244,1.0514,0.1134
12.5250,-0.1244,1.0514,0.1134
12.5270,-0.1244,1.0514,0.1134
12.5270,-0.1244,1.0514,0.1134
12.5280,-0.1178,1.0462,0.1244
12.5280,-0.1124,1.0416,0.1237
12.5430,-0.1124,1.0416,0.1237
12.5440,-0.1124,1.0416,0.1237
12.5450,-0.1124,1.0416,0.1237
12.5450,-0.1107,1.0401,0.1283
12.5460,-0.1107,1.0401,0.1283
12.5740,-0.1107,1.0401,0.1283
12.5750,-0.1107,1.0401,0.1283
12.5760,-0.1107,1.0401,0.1283
12.5780,-0.1117,1.0440,0.1229
12.6060,-0.1117,1.0440,0.1229
12.6070,-0.1117,1.0440,0.1229
12.6070,-0.1117,1.0440,0.1229
12.6080,-0.1136,1.0487,0.1166
12.6090,-0.1178,1.0482,0.1256
12.6240,-0.1178,1.0482,0.1256
12.6250,-0.1178,1.0482,0.1256
12.6480,-0.1178,1.0482,0.1256
12.6490,-0.1168,1.0445,0.1263
12.6500,-0.1168,1.0445,0.1263
12.6520,-0.1168,1.0445,0.1263
12.6530,-0.1168,1.0445,0.1263
12.6540,-0.1168,1.0445,0.1263
12.6550,-0.1124,1.0470,0.1232
12.6820,-0.1124,1.0470,0.1232
12.6830,-0.1124,1.0470,0.1232
12.6830,-0.1124,1.0470,0.1232
12.6840,-0.1117,1.0457,0.1110
12.6850,-0.1151,1.0457,0.1202
12.7040,-0.1151,1.0457,0.1202
12.7050,-0.1151,1.0457,0.1202
12.7050,-0.1151,1.0457,0.1202
12.7060,-0.1185,1.0472,0.1293
12.7070,-0.1185,1.0472,0.1293
12.7250,-0.1185,1.0472,0.1293
12.7330,-0.1185,1.0472,0.1293
12.7330,-0.1185,1.0472,0.1293
12.7340,-0.1185,1.0472,0.1293
12.7350,-0.1198,1.0457,0.1285
12.7640,-0.1198,1.0457,0.1285
12.7650,-0.1198,1.0457,0.1285
12.7650,-0.1198,1.0457,0.1285
12.7670,-0.1141,1.0501,0.1171
12.7670,-0.1114,1.0519,0.1127
12.7840,-0.1114,1.0519,0.1127
12.7850,-0.1114,1.0519,0.1127
12.7860,-0.1114,1.0519,0.1127
12.7870,-0.1151,1.0426,0.1202
12.7880,-0.1151,1.0426,0.1202
12.8140,-0.1151,1.0426,0.1202
12.8140,-0.1151,1.0426,0.1202
12.8150,-0.1151,1.0426,0.1202
12.8160,-0.1210,1.0399,0.1224
12.8470,-0.1210,1.0399,0.1224
12.8480,-0.1210,1.0399,0.1224
12.8480,-0.1210,1.0399,0.1224
12.8490,-0.1193,1.0504,0.1144
12.8500,-0.1134,1.0526,0.1176
12.8650,-0.1134,1.0526,0.1176
12.8660,-0.1134,1.0526,0.1176
12.8670,-0.1134,1.0526,0.1176
12.8670,-0.1090,1.0477,0.1200
12.8680,-0.1090,1.0477,0.1200
12.8940,-0.1090,1.0477,0.1200
12.8950,-0.1090,1.0477,0.1200
12.8970,-0.1090,1.0477,0.1200
12.8970,-0.1151,1.0409,0.1256
12.9260,-0.1151,1.0409,0.1256
12.9280,-0.1151,1.0409,0.1256
12.9300,-0.1151,1.0409,0.1256
12.9310,-0.1151,1.0409,0.1256
12.9310,-0.1188,1.0440,0.1173
12.9320,-0.1244,1.0501,0.1166
12.9470,-0.1244,1.0501,0.1166
12.9480,-0.1244,1.0501,0.1166
12.9490,-0.1244,1.0501,0.1166
12.9500,-0.1281,1.0482,0.1273
12.9510,-0.1281,1.0482,0.1273
12.9750,-0.1281,1.0482,0.1273
12.9820,-0.1281,1.0482,0.1273
12.9830,-0.1281,1.0482,0.1273
12.9840,-0.1268,1.0504,0.1195
13.0060,-0.1268,1.0504,0.1195
13.0060,-0.1268,1.0504,0.1195
13.0070,-0.1268,1.0504,0.1195
13.0070,-0.1317,1.0426,0.1212
13.0090,-0.1351,1.0374,0.1295
13.0240,-0.1351,1.0374,0.1295
13.0260,-0.1351,1.0374,0.1295
13.0270,-0.1351,1.0374,0.1295
13.0280,-0.1361,1.0445,0.1254
13.0290,-0.1361,1.0445,0.1254
13.0550,-0.1361,1.0445,0.1254
13.0570,-0.1361,1.0445,0.1254
13.0580,-0.1361,1.0445,0.1254
13.0590,-0.1303,1.0509,0.1200
13.0840,-0.1303,1.0509,0.1200
13.0850,-0.1303,1.0509,0.1200
13.0850,-0.1303,1.0509,0.1200
13.0860,-0.1229,1.0470,0.1298
13.0860,-0.1173,1.0457,0.1283
13.1040,-0.1173,1.0457,0.1283
13.1050,-0.1173,1.0457,0.1283
13.1060,-0.1173,1.0457,0.1283
13.1070,-0.1183,1.0457,0.1222
13.1080,-0.1183,1.0457,0.1222
13.1230,-0.1183,1.0457,0.1222
13.1340,-0.1183,1.0457,0.1222
13.1340,-0.1183,1.0457,0.1222
13.1350,-0.1183,1.0457,0.1222
13.1350,-0.1176,1.0477,0.1273
13.1640,-0.1176,1.0477,0.1273
13.1640,-0.1176,1.0477,0.1273
13.1650,-0.1176,1.0477,0.1273
13.1650,-0.1185,1.0467,0.1222
13.1660,-0.1188,1.0435,0.1158
13.1850,-0.1188,1.0435,0.1158
13.2060,-0.1188,1.0435,0.1158
13.2060,-0.1188,1.0435,0.1158
13.2070,-0.1222,1.0423,0.1117
13.2080,-0.1222,1.0423,0.1117
13.2130,-0.1222,1.0423,0.1117
13.2140,-0.1222,1.0423,0.1117
13.2150,-0.1222,1.0423,0.1117
13.2160,-0.1263,1.0435,0.1200
13.2410,-0.1263,1.0435,0.1200
13.2420,-0.1263,1.0435,0.1200
13.2420,-0.1263,1.0435,0.1200
13.2430,-0.1263,1.0453,0.1290
13.2430,-0.1188,1.0494,0.1256
13.2630,-0.1188,1.0494,0.1256
13.2640,-0.1188,1.0494,0.1256
13.2650,-0.1188,1.0494,0.1256
13.2650,-0.1195,1.0470,0.1207
13.2660,-0.1195,1.0470,0.1207
13.2930,-0.1195,1.0470,0.1207
13.2930,-0.1195,1.0470,0.1207
13.2950,-0.1195,1.0470,0.1207
13.2950,-0.1237,1.0465,0.1190
13.3230,-0.1237,1.0465,0.1190
13.3300,-0.1237,1.0465,0.1190
13.3310,-0.1237,1.0465,0.1190
13.3320,-0.1237,1.0465,0.1190
13.3330,-0.1276,1.0426,0.1229
13.3340,-0.1268,1.0482,0.1268
13.3460,-0.1268,1.0482,0.1268
13.3470,-0.1268,1.0482,0.1268
13.3480,-0.1268,1.0482,0.1268
13.3490,-0.1237,1.0504,0.1207
13.3500,-0.1237,1.0504,0.1207
13.3750,-0.1237,1.0504,0.1207
13.3770,-0.1237,1.0504,0.1207
13.3780,-0.1237,1.0504,0.1207
13.3790,-0.1200,1.0465,0.1200
13.4050,-0.1200,1.0465,0.1200
13.4060,-0.1200,1.0465,0.1200
13.4060,-0.1200,1.0465,0.1200
13.4070,-0.1132,1.0413,0.1237
13.4080,-0.1075,1.0418,0.1249
13.4270,-0.1075,1.0418,0.1249
13.4270,-0.1075,1.0418,0.1249
13.4280,-0.1075,1.0418,0.1249
13.4280,-0.1117,1.0440,0.1246
13.4290,-0.1117,1.0440,0.1246
13.4580,-0.1117,1.0440,0.1246
13.4590,-0.1117,1.0440,0.1246
13.4600,-0.1117,1.0440,0.1246
13.4600,-0.1154,1.0467,0.1222
13.4840,-0.1154,1.0467,0.1222
13.4850,-0.1154,1.0467,0.1222
13.4860,-0.1154,1.0467,0.1222
13.4870,-0.1180,1.0543,0.1117
13.4880,-0.1185,1.0506,0.1163
13.5050,-0.1185,1.0506,0.1163
13.5060,-0.1185,1.0506,0.1163
13.5070,-0.1185,1.0506,0.1163
13.5080,-0.1215,1.0416,0.1310
13.5090,-0.1215,1.0416,0.1310
13.5250,-0.1215,1.0416,0.1310
13.5270,-0.1215,1.0416,0.1310
13.5360,-0.1215,1.0416,0.1310
13.5370,-0.1215,1.0416,0.1310
13.5390,-0.1215,1.0416,0.1310
13.5400,-0.1110,1.0426,0.1290
13.5640,-0.1110,1.0426,0.1290
13.5650,-0.1110,1.0426,0.1290
13.5660,-0.1110,1.0426,0.1290
13.5670,-0.0978,1.0511,0.1229
13.5680,-0.1019,1.0526,0.1190
13.5860,-0.1019,1.0526,0.1190
13.5860,-0.1019,1.0526,0.1190
13.5870,-0.1019,1.0526,0.1190
13.5870,-0.1124,1.0457,0.1237
13.5890,-0.1124,1.0457,0.1237
13.6140,-0.1124,1.0457,0.1237
13.6140,-0.1124,1.0457,0.1237
13.6150,-0.1124,1.0457,0.1237
13.6150,-0.1171,1.0450,0.1200
13.6450,-0.1171,1.0450,0.1200
13.6450,-0.1171,1.0450,0.1200
13.6460,-0.1171,1.0450,0.1200
13.6470,-0.1178,1.0455,0.1239
13.6470,-0.1158,1.0455,0.1251
13.6650,-0.1158,1.0455,0.1251
13.6670,-0.1158,1.0455,0.1251
13.6680,-0.1158,1.0455,0.1251
13.6690,-0.1132,1.0479,0.1198
13.6700,-0.1132,1.0479,0.1198
13.6940,-0.1132,1.0479,0.1198
13.6950,-0.1132,1.0479,0.1198
13.6950,-0.1132,1.0479,0.1198
13.6960,-0.1105,1.0472,0.1229
13.7250,-0.1105,1.0472,0.1229
13.7270,-0.1105,1.0472,0.1229
13.7270,-0.1105,1.0472,0.1229
13.7280,-0.1105,1.0472,0.1229
13.7280,-0.1095,1.0435,0.1178
13.7440,-0.1114,1.0438,0.1139
13.7440,-0.1114,1.0438,0.1139
13.7440,-0.1114,1.0438,0.1139
13.7440,-0.1114,1.0438,0.1139
13.7450,-0.1114,1.0438,0.1139
13.7470,-0.1161,1.0440,0.1263
13.7470,-0.1161,1.0440,0.1263
13.7730,-0.1161,1.0440,0.1263
13.7740,-0.1161,1.0440,0.1263
13.7740,-0.1161,1.0440,0.1263
13.7740,-0.1144,1.0470,0.1288
13.8030,-0.1144,1.0470,0.1288
13.8040,-0.1144,1.0470,0.1288
13.8050,-0.1144,1.0470,0.1288
13.8060,-0.1149,1.0470,0.1234
13.8060,-0.1132,1.0465,0.1151
13.8240,-0.1132,1.0465,0.1151
13.8250,-0.1132,1.0465,0.1151
13.8250,-0.1132,1.0465,0.1151
13.8260,-0.1107,1.0440,0.1127
13.8270,-0.1107,1.0440,0.1127
13.8560,-0.1107,1.0440,0.1127
13.8570,-0.1107,1.0440,0.1127
13.8580,-0.1107,1.0440,0.1127
13.8590,-0.1100,1.0453,0.1232
13.8850,-0.1100,1.0453,0.1232
13.8860,-0.1100,1.0453,0.1232
13.8870,-0.1100,1.0453,0.1232
13.8880,-0.1070,1.0479,0.1254
13.8880,-0.1061,1.0492,0.1266
13.9040,-0.1061,1.0492,0.1266
13.9070,-0.1061,1.0492,0.1266
13.9080,-0.1061,1.0492,0.1266
13.9090,-0.1058,1.0472,0.1202
13.9100,-0.1058,1.0472,0.1202
13.9260,-0.1058,1.0472,0.1202
13.9270,-0.1058,1.0472,0.1202
13.9370,-0.1058,1.0472,0.1202
13.9370,-0.1058,1.0472,0.1202
13.9380,-0.1058,1.0472,0.1202
13.9390,-0.1031,1.0477,0.1110
13.9660,-0.1031,1.0477,0.1110
13.9670,-0.1031,1.0477,0.1110
13.9670,-0.1031,1.0477,0.1110
13.9680,-0.1066,1.0487,0.1200
13.9680,-0.1161,1.0455,0.1232
13.9870,-0.1161,1.0455,0.1232
13.9880,-0.1161,1.0455,0.1232
13.9880,-0.1161,1.0455,0.1232
13.9890,-0.1217,1.0462,0.1229
13.9900,-0.1217,1.0462,0.1229
14.0150,-0.1217,1.0462,0.1229
14.0170,-0.1217,1.0462,0.1229
14.0180,-0.1217,1.0462,0.1229
14.0180,-0.1200,1.0475,0.1202
14.0460,-0.1200,1.0475,0.1202
14.0470,-0.1200,1.0475,0.1202
14.0480,-0.1200,1.0475,0.1202
14.0480,-0.1114,1.0457,0.1193
14.0490,-0.1066,1.0443,0.1222
14.0650,-0.1066,1.0443,0.1222
14.0660,-0.1066,1.0443,0.1222
14.0670,-0.1066,1.0443,0.1222
14.0680,-0.1088,1.0453,0.1276
14.0690,-0.1088,1.0453,0.1276
14.0950,-0.1088,1.0453,0.1276
14.0960,-0.1088,1.0453,0.1276
14.0980,-0.1088,1.0453,0.1276
14.0990,-0.1149,1.0448,0.1232
14.1250,-0.1149,1.0448,0.1232
14.1270,-0.1149,1.0448,0.1232
14.1280,-0.1149,1.0448,0.1232
14.1290,-0.1149,1.0448,0.1232
14.1300,-0.1149,1.0448,0.1232
14.1310,-0.1176,1.0514,0.1195
14.1320,-0.1285,1.0504,0.1256
14.1450,-0.1285,1.0504,0.1256
14.1470,-0.1285,1.0504,0.1256
14.1470,-0.1285,1.0504,0.1256
14.1480,-0.1190,1.0367,0.1227
14.1490,-0.1190,1.0367,0.1227
14.1760,-0.1190,1.0367,0.1227
14.1770,-0.1190,1.0367,0.1227
14.1780,-0.1190,1.0367,0.1227
14.1790,-0.1171,1.0411,0.1224
14.2060,-0.1171,1.0411,0.1224
14.2070,-0.1171,1.0411,0.1224
14.2080,-0.1171,1.0411,0.1224
14.2090,-0.1110,1.0553,0.1078
14.2100,-0.1029,1.0604,0.1004
14.2240,-0.1029,1.0604,0.1004
14.2250,-0.1029,1.0604,0.1004
14.2260,-0.1029,1.0604,0.1004
14.2270,-0.1031,1.0501,0.1217
14.2280,-0.1031,1.0501,0.1217
14.2550,-0.1031,1.0501,0.1217
14.2560,-0.1031,1.0501,0.1217
14.2570,-0.1031,1.0501,0.1217
14.2580,-0.1127,1.0426,0.1305
14.2850,-0.1127,1.0426,0.1305
14.3080,-0.1127,1.0426,0.1305
14.3080,-0.1127,1.0426,0.1305
14.3090,-0.1154,1.0438,0.1224
14.3090,-0.1048,1.0475,0.1097
14.3110,-0.1048,1.0475,0.1097
14.3120,-0.1048,1.0475,0.1097
14.3130,-0.1048,1.0475,0.1097
14.3130,-0.1044,1.0435,0.1254
14.3130,-0.1044,1.0435,0.1254
14.3240,-0.1044,1.0435,0.1254
14.3340,-0.1044,1.0435,0.1254
14.3350,-0.1044,1.0435,0.1254
14.3350,-0.1044,1.0435,0.1254
14.3350,-0.1112,1.0426,0.1112
14.3620,-0.1112,1.0426,0.1112
14.3630,-0.1112,1.0426,0.1112
14.3640,-0.1112,1.0426,0.1112
14.3640,-0.1144,1.0448,0.1188
14.3650,-0.1117,1.0457,0.1298
14.3850,-0.1117,1.0457,0.1298
14.3850,-0.1117,1.0457,0.1298
14.3860,-0.1117,1.0457,0.1298
14.3870,-0.1144,1.0543,0.0990
14.3880,-0.1144,1.0543,0.0990
14.4140,-0.1144,1.0543,0.0990
14.4150,-0.1144,1.0543,0.0990
14.4160,-0.1144,1.0543,0.0990
14.4160,-0.1119,1.0519,0.0968
14.4470,-0.1119,1.0519,0.0968
14.4470,-0.1119,1.0519,0.0968
14.4480,-0.1119,1.0519,0.0968
14.4490,-0.1110,1.0470,0.1173
14.4490,-0.1200,1.0467,0.1146
14.4640,-0.1200,1.0467,0.1146
14.4650,-0.1200,1.0467,0.1146
14.4670,-0.1200,1.0467,0.1146
14.4670,-0.1202,1.0460,0.1154
14.4680,-0.1202,1.0460,0.1154
14.4960,-0.1202,1.0460,0.1154
14.5000,-0.1202,1.0460,0.1154
14.5030,-0.1202,1.0460,0.1154
14.5080,-0.1132,1.0435,0.1261
14.5220,-0.1132,1.0435,0.1261
14.5270,-0.1132,1.0435,0.1261
14.5280,-0.1132,1.0435,0.1261
14.5280,-0.1132,1.0435,0.1261
14.5280,-0.1139,1.0384,0.1224
14.5290,-0.1134,1.0399,0.1173
14.5450,-0.1134,1.0399,0.1173
14.5460,-0.1134,1.0399,0.1173
14.5460,-0.1134,1.0399,0.1173
14.5460,-0.1154,1.0560,0.0890
14.5470,-0.1154,1.0560,0.0890
14.5740,-0.1154,1.0560,0.0890
14.5740,-0.1154,1.0560,0.0890
14.5750,-0.1154,1.0560,0.0890
14.5750,-0.1127,1.0677,0.0662
14.6030,-0.1127,1.0677,0.0662
14.6040,-0.1127,1.0677,0.0662
14.6040,-0.1127,1.0677,0.0662
14.6040,-0.0995,1.0511,0.1053
14.6050,-0.1088,1.0362,0.1371
14.6250,-0.1088,1.0362,0.1371
14.6250,-0.1088,1.0362,0.1371
14.6250,-0.1088,1.0362,0.1371
14.6310,-0.1139,1.0418,0.1051
14.6310,-0.1139,1.0418,0.1051
14.6550,-0.1139,1.0418,0.1051
14.6550,-0.1139,1.0418,0.1051
14.6550,-0.1139,1.0418,0.1051
14.6580,-0.1173,1.0506,0.0858
14.6860,-0.1173,1.0506,0.0858
14.6860,-0.1173,1.0506,0.0858
14.6860,-0.1173,1.0506,0.0858
14.6870,-0.1215,1.0538,0.0921
14.6870,-0.1139,1.0499,0.1132
14.7050,-0.1139,1.0499,0.1132
14.7050,-0.1139,1.0499,0.1132
14.7060,-0.1139,1.0499,0.1132
14.7060,-0.1075,1.0489,0.1185
14.7070,-0.1075,1.0489,0.1185
14.7220,-0.1075,1.0489,0.1185
14.7220,-0.1075,1.0489,0.1185
14.7350,-0.1075,1.0489,0.1185
14.7360,-0.1075,1.0489,0.1185
14.7360,-0.1075,1.0489,0.1185
14.7390,-0.1051,1.0589,0.0909
