
time,AccelerometerX,AccelerometerY,AccelerometerZ
0.0130,-0.2732,1.0428,0.0242
0.0140,-0.2732,1.0428,0.0242
0.0140,-0.2732,1.0428,0.0242
0.0140,-0.2637,0.9915,0.0833
0.0150,-0.2498,0.9974,0.1581
0.0630,-0.2498,0.9974,0.1581
0.0630,-0.2498,0.9974,0.1581
0.0640,-0.2498,0.9974,0.1581
0.0640,-0.2495,1.0760,0.0266
0.0640,-0.2495,1.0760,0.0266
0.0640,-0.2495,1.0760,0.0266
0.0650,-0.2495,1.0760,0.0266
0.0650,-0.2432,1.0614,0.0232
0.0660,-0.2432,1.0614,0.0232
0.0920,-0.2432,1.0614,0.0232
0.0920,-0.2432,1.0614,0.0232
0.0930,-0.2432,1.0614,0.0232
0.0940,-0.2544,1.0206,0.0887
0.0940,-0.2659,1.0081,0.1127
0.1230,-0.2659,1.0081,0.1127
0.1240,-0.2659,1.0081,0.1127
0.1240,-0.2659,1.0081,0.1127
0.1260,-0.2679,1.0103,0.0943
0.1440,-0.2679,1.0103,0.0943
0.1440,-0.2679,1.0103,0.0943
0.1470,-0.2679,1.0103,0.0943
0.1470,-0.2644,1.0154,0.0694
0.1480,-0.2644,1.0154,0.0694
0.1730,-0.2644,1.0154,0.0694
0.1730,-0.2644,1.0154,0.0694
0.1740,-0.2644,1.0154,0.0694
0.1760,-0.2632,1.0184,0.0540
0.1760,-0.2617,1.0215,0.0609
0.1820,-0.2617,1.0215,0.0609
0.1850,-0.2617,1.0215,0.0609
0.2040,-0.2617,1.0215,0.0609
0.2040,-0.2617,1.0215,0.0609
0.2050,-0.2617,1.0215,0.0609
0.2070,-0.2500,1.0284,0.0675
0.2240,-0.2500,1.0284,0.0675
0.2270,-0.2500,1.0284,0.0675
0.2270,-0.2500,1.0284,0.0675
0.2280,-0.2388,1.0303,0.0638
0.2280,-0.2388,1.0303,0.0638
0.2540,-0.2388,1.0303,0.0638
0.2540,-0.2388,1.0303,0.0638
0.2550,-0.2388,1.0303,0.0638
0.2570,-0.2427,1.0235,0.0662
0.2570,-0.2537,1.0150,0.0689
0.2840,-0.2537,1.0150,0.0689
0.2840,-0.2537,1.0150,0.0689
0.2850,-0.2537,1.0150,0.0689
0.2880,-0.2573,1.0172,0.0714
0.3040,-0.2573,1.0172,0.0714
0.3070,-0.2573,1.0172,0.0714
0.3070,-0.2573,1.0172,0.0714
0.3080,-0.2525,1.0264,0.0853
0.3080,-0.2525,1.0264,0.0853
0.3340,-0.2525,1.0264,0.0853
0.3340,-0.2525,1.0264,0.0853
0.3340,-0.2525,1.0264,0.0853
0.3370,-0.2701,1.0245,0.0626
0.3370,-0.2737,1.0299,0.0643
0.3650,-0.2737,1.0299,0.0643
0.3660,-0.2737,1.0299,0.0643
0.3660,-0.2737,1.0299,0.0643
0.3670,-0.2559,1.0316,0.0787
0.3820,-0.2559,1.0316,0.0787
0.3860,-0.2559,1.0316,0.0787
0.3880,-0.2559,1.0316,0.0787
0.3890,-0.2559,1.0316,0.0787
0.3890,-0.2429,1.0257,0.1044
0.3900,-0.2429,1.0257,0.1044
0.3900,-0.2429,1.0257,0.1044
0.4140,-0.2429,1.0257,0.1044
0.4150,-0.2429,1.0257,0.1044
0.4150,-0.2429,1.0257,0.1044
0.4150,-0.2405,1.0247,0.0826
0.4160,-0.2344,1.0340,0.0528
0.4440,-0.2344,1.0340,0.0528
0.4450,-0.2344,1.0340,0.0528
0.4450,-0.2344,1.0340,0.0528
0.4470,-0.2363,1.0277,0.0655
0.4650,-0.2363,1.0277,0.0655
0.4650,-0.2363,1.0277,0.0655
0.4660,-0.2363,1.0277,0.0655
0.4680,-0.2478,1.0201,0.0909
0.4690,-0.2478,1.0201,0.0909
0.4930,-0.2478,1.0201,0.0909
0.4930,-0.2478,1.0201,0.0909
0.4940,-0.2478,1.0201,0.0909
0.4970,-0.2564,1.0213,0.0848
0.4970,-0.2595,1.0218,0.0809
0.5240,-0.2595,1.0218,0.0809
0.5240,-0.2595,1.0218,0.0809
0.5240,-0.2595,1.0218,0.0809
0.5270,-0.2598,1.0218,0.0843
0.5450,-0.2598,1.0218,0.0843
0.5480,-0.2598,1.0218,0.0843
0.5480,-0.2598,1.0218,0.0843
0.5480,-0.2517,1.0323,0.0760
0.5480,-0.2517,1.0323,0.0760
0.5740,-0.2517,1.0323,0.0760
0.5740,-0.2517,1.0323,0.0760
0.5740,-0.2517,1.0323,0.0760
0.5770,-0.2471,1.0328,0.0643
0.5770,-0.2481,1.0206,0.0797
0.5820,-0.2481,1.0206,0.0797
0.6040,-0.2481,1.0206,0.0797
0.6050,-0.2481,1.0206,0.0797
0.6050,-0.2481,1.0206,0.0797
0.6070,-0.2478,1.0137,0.1026
0.6250,-0.2478,1.0137,0.1026
0.6330,-0.2478,1.0137,0.1026
0.6350,-0.2478,1.0137,0.1026
0.6350,-0.2471,1.0220,0.0887
0.6360,-0.2471,1.0220,0.0887
0.6550,-0.2471,1.0220,0.0887
0.6550,-0.2471,1.0220,0.0887
0.6550,-0.2471,1.0220,0.0887
0.6580,-0.2517,1.0384,0.0533
0.6580,-0.2583,1.0311,0.0565
0.6840,-0.2583,1.0311,0.0565
0.6850,-0.2583,1.0311,0.0565
0.6850,-0.2583,1.0311,0.0565
0.6870,-0.2573,1.0208,0.0894
0.7050,-0.2573,1.0208,0.0894
0.7050,-0.2573,1.0208,0.0894
0.7060,-0.2573,1.0208,0.0894
0.7080,-0.2534,1.0228,0.0858
0.7080,-0.2534,1.0228,0.0858
0.7350,-0.2534,1.0228,0.0858
0.7350,-0.2534,1.0228,0.0858
0.7350,-0.2534,1.0228,0.0858
0.7380,-0.2556,1.0208,0.0777
0.7380,-0.2613,1.0230,0.0765
0.7650,-0.2613,1.0230,0.0765
0.7650,-0.2613,1.0230,0.0765
0.7660,-0.2613,1.0230,0.0765
0.7680,-0.2610,1.0294,0.0699
0.7830,-0.2610,1.0294,0.0699
0.7860,-0.2610,1.0294,0.0699
0.7890,-0.2610,1.0294,0.0699
0.7890,-0.2610,1.0294,0.0699
0.7900,-0.2583,1.0301,0.0733
0.7900,-0.2583,1.0301,0.0733
0.7910,-0.2583,1.0301,0.0733
0.8150,-0.2583,1.0301,0.0733
0.8160,-0.2583,1.0301,0.0733
0.8160,-0.2583,1.0301,0.0733
0.8180,-0.2591,1.0211,0.0875
0.8190,-0.2542,1.0179,0.0828
0.8450,-0.2542,1.0179,0.0828
0.8460,-0.2542,1.0179,0.0828
0.8460,-0.2542,1.0179,0.0828
0.8480,-0.2578,1.0294,0.0660
0.8670,-0.2578,1.0294,0.0660
0.8670,-0.2578,1.0294,0.0660
0.8680,-0.2578,1.0294,0.0660
0.8700,-0.2571,1.0267,0.0660
0.8700,-0.2571,1.0267,0.0660
0.8950,-0.2571,1.0267,0.0660
0.8960,-0.2571,1.0267,0.0660
0.8960,-0.2571,1.0267,0.0660
0.8960,-0.2547,1.0237,0.0860
0.8960,-0.2510,1.0294,0.0784
0.9250,-0.2510,1.0294,0.0784
0.9260,-0.2510,1.0294,0.0784
0.9270,-0.2510,1.0294,0.0784
0.9270,-0.2476,1.0233,0.0679
0.9470,-0.2476,1.0233,0.0679
0.9470,-0.2476,1.0233,0.0679
0.9470,-0.2476,1.0233,0.0679
0.9480,-0.2556,1.0189,0.0826
0.9480,-0.2556,1.0189,0.0826
0.9740,-0.2556,1.0189,0.0826
0.9740,-0.2556,1.0189,0.0826
0.9740,-0.2556,1.0189,0.0826
0.9740,-0.2644,1.0196,0.0792
0.9740,-0.2632,1.0281,0.0748
0.9810,-0.2632,1.0281,0.0748
0.9840,-0.2632,1.0281,0.0748
1.0030,-0.2632,1.0281,0.0748
1.0030,-0.2632,1.0281,0.0748
1.0030,-0.2632,1.0281,0.0748
1.0040,-0.2639,1.0262,0.0770
1.0240,-0.2639,1.0262,0.0770
1.0250,-0.2639,1.0262,0.0770
1.0250,-0.2639,1.0262,0.0770
1.0260,-0.2669,1.0157,0.0877
1.0270,-0.2669,1.0157,0.0877
1.0560,-0.2669,1.0157,0.0877
1.0560,-0.2669,1.0157,0.0877
1.0560,-0.2669,1.0157,0.0877
1.0570,-0.2691,1.0179,0.0843
1.0570,-0.2632,1.0235,0.0767
1.0850,-0.2632,1.0235,0.0767
1.0850,-0.2632,1.0235,0.0767
1.0850,-0.2632,1.0235,0.0767
1.0860,-0.2637,1.0255,0.0758
1.1040,-0.2637,1.0255,0.0758
1.1040,-0.2637,1.0255,0.0758
1.1040,-0.2637,1.0255,0.0758
1.1050,-0.2617,1.0250,0.0853
1.1060,-0.2617,1.0250,0.0853
1.1350,-0.2617,1.0250,0.0853
1.1350,-0.2617,1.0250,0.0853
1.1360,-0.2617,1.0250,0.0853
1.1360,-0.2569,1.0321,0.0777
1.1370,-0.2478,1.0323,0.0616
1.1670,-0.2478,1.0323,0.0616
1.1670,-0.2478,1.0323,0.0616
1.1670,-0.2478,1.0323,0.0616
1.1920,-0.2378,1.0279,0.0665
1.1930,-0.2378,1.0279,0.0665
1.1930,-0.2378,1.0279,0.0665
1.1930,-0.2378,1.0279,0.0665
1.1940,-0.2378,1.0279,0.0665
1.1940,-0.2393,1.0213,0.0838
1.1940,-0.2393,1.0213,0.0838
1.2130,-0.2393,1.0213,0.0838
1.2140,-0.2393,1.0213,0.0838
1.2140,-0.2393,1.0213,0.0838
1.2140,-0.2505,1.0169,0.0912
1.2150,-0.2613,1.0198,0.0794
1.2440,-0.2613,1.0198,0.0794
1.2440,-0.2613,1.0198,0.0794
1.2450,-0.2613,1.0198,0.0794
1.2450,-0.2720,1.0286,0.0704
1.2640,-0.2720,1.0286,0.0704
1.2640,-0.2720,1.0286,0.0704
1.2650,-0.2720,1.0286,0.0704
1.2650,-0.2674,1.0357,0.0697
1.2650,-0.2674,1.0357,0.0697
1.2940,-0.2674,1.0357,0.0697
1.2940,-0.2674,1.0357,0.0697
1.2940,-0.2674,1.0357,0.0697
1.2950,-0.2613,1.0218,0.0726
1.2950,-0.2556,1.0103,0.0907
1.3240,-0.2556,1.0103,0.0907
1.3240,-0.2556,1.0103,0.0907
1.3250,-0.2556,1.0103,0.0907
1.3250,-0.2444,1.0157,0.0929
1.3450,-0.2444,1.0157,0.0929
1.3450,-0.2444,1.0157,0.0929
1.3450,-0.2444,1.0157,0.0929
1.3460,-0.2412,1.0198,0.0794
1.3460,-0.2412,1.0198,0.0794
1.3750,-0.2412,1.0198,0.0794
1.3760,-0.2412,1.0198,0.0794
1.3760,-0.2412,1.0198,0.0794
1.3760,-0.2417,1.0279,0.0721
1.3760,-0.2525,1.0352,0.0645
1.3820,-0.2525,1.0352,0.0645
1.3830,-0.2525,1.0352,0.0645
1.4040,-0.2525,1.0352,0.0645
1.4050,-0.2525,1.0352,0.0645
1.4050,-0.2525,1.0352,0.0645
1.4050,-0.2569,1.0247,0.0772
1.4260,-0.2569,1.0247,0.0772
1.4260,-0.2569,1.0247,0.0772
1.4270,-0.2569,1.0247,0.0772
1.4270,-0.2581,1.0193,0.1004
1.4270,-0.2581,1.0193,0.1004
1.4560,-0.2581,1.0193,0.1004
1.4560,-0.2581,1.0193,0.1004
1.4560,-0.2581,1.0193,0.1004
1.4560,-0.2478,1.0330,0.0865
1.4570,-0.2358,1.0360,0.0616
1.4840,-0.2358,1.0360,0.0616
1.4850,-0.2358,1.0360,0.0616
1.4850,-0.2358,1.0360,0.0616
1.4860,-0.2371,1.0255,0.0714
1.5050,-0.2371,1.0255,0.0714
1.5060,-0.2371,1.0255,0.0714
1.5060,-0.2371,1.0255,0.0714
1.5060,-0.2444,1.0201,0.0880
1.5060,-0.2444,1.0201,0.0880
1.5360,-0.2444,1.0201,0.0880
1.5360,-0.2444,1.0201,0.0880
1.5370,-0.2444,1.0201,0.0880
1.5370,-0.2444,1.0296,0.0782
1.5370,-0.2488,1.0299,0.0648
1.5660,-0.2488,1.0299,0.0648
1.5670,-0.2488,1.0299,0.0648
1.5670,-0.2488,1.0299,0.0648
1.5680,-0.2520,1.0264,0.0853
1.5810,-0.2520,1.0264,0.0853
1.5850,-0.2520,1.0264,0.0853
1.5880,-0.2520,1.0264,0.0853
1.5890,-0.2520,1.0264,0.0853
1.5890,-0.2520,1.0264,0.0853
1.5900,-0.2498,1.0223,0.0848
1.5900,-0.2498,1.0223,0.0848
1.6130,-0.2498,1.0223,0.0848
1.6140,-0.2498,1.0223,0.0848
1.6140,-0.2498,1.0223,0.0848
1.7320,-0.2441,1.0279,0.0667
1.7340,-0.2525,1.0306,0.0618
1.7350,-0.2525,1.0306,0.0618
1.7380,-0.2525,1.0306,0.0618
1.7400,-0.2525,1.0306,0.0618
1.7410,-0.2525,1.0306,0.0618
1.7420,-0.2525,1.0306,0.0618
1.7430,-0.2525,1.0306,0.0618
1.7440,-0.2525,1.0306,0.0618
1.7450,-0.2525,1.0306,0.0618
1.7470,-0.2525,1.0306,0.0618
1.7480,-0.2525,1.0306,0.0618
1.7500,-0.2525,1.0306,0.0618
1.7510,-0.2525,1.0306,0.0618
1.7510,-0.2588,1.0206,0.0960
1.7520,-0.2437,1.0162,0.1080
1.7650,-0.2334,1.0294,0.0772
1.7650,-0.2415,1.0286,0.0611
1.7660,-0.2578,1.0211,0.0799
1.7660,-0.2578,1.0211,0.0799
1.7670,-0.2578,1.0211,0.0799
1.7670,-0.2578,1.0211,0.0799
1.7670,-0.2578,1.0211,0.0799
1.7680,-0.2605,1.0299,0.0892
1.7680,-0.2605,1.0299,0.0892
1.7740,-0.2605,1.0299,0.0892
1.7740,-0.2605,1.0299,0.0892
1.7750,-0.2605,1.0299,0.0892
1.7750,-0.2573,1.0313,0.0687
1.7750,-0.2549,1.0272,0.0704
1.7800,-0.2549,1.0272,0.0704
1.8040,-0.2549,1.0272,0.0704
1.8040,-0.2549,1.0272,0.0704
1.8050,-0.2549,1.0272,0.0704
1.8050,-0.2525,1.0169,0.0841
1.8270,-0.2525,1.0169,0.0841
1.8280,-0.2525,1.0169,0.0841
1.8280,-0.2525,1.0169,0.0841
1.8300,-0.2520,1.0169,0.0838
1.8310,-0.2520,1.0169,0.0838
1.8560,-0.2520,1.0169,0.0838
1.8560,-0.2520,1.0169,0.0838
1.8570,-0.2520,1.0169,0.0838
1.8570,-0.2534,1.0237,0.0748
1.8570,-0.2522,1.0299,0.0733
1.8860,-0.2522,1.0299,0.0733
1.8870,-0.2522,1.0299,0.0733
1.8880,-0.2522,1.0299,0.0733
1.8890,-0.2588,1.0301,0.0838
1.9070,-0.2588,1.0301,0.0838
1.9080,-0.2588,1.0301,0.0838
1.9090,-0.2588,1.0301,0.0838
1.9100,-0.2635,1.0213,0.0953
1.9150,-0.2635,1.0213,0.0953
1.9360,-0.2635,1.0213,0.0953
1.9380,-0.2635,1.0213,0.0953
1.9390,-0.2635,1.0213,0.0953
1.9400,-0.2544,1.0201,0.0802
1.9400,-0.2476,1.0242,0.0594
1.9670,-0.2476,1.0242,0.0594
1.9680,-0.2476,1.0242,0.0594
1.9720,-0.2476,1.0242,0.0594
1.9730,-0.2510,1.0206,0.0721
1.9830,-0.2510,1.0206,0.0721
1.9890,-0.2510,1.0206,0.0721
1.9900,-0.2510,1.0206,0.0721
1.9930,-0.2510,1.0206,0.0721
1.9950,-0.2591,1.0186,0.1024
1.9970,-0.2591,1.0186,0.1024
2.0160,-0.2591,1.0186,0.1024
2.0170,-0.2591,1.0186,0.1024
2.0180,-0.2591,1.0186,0.1024
2.0190,-0.2635,1.0196,0.0806
2.0200,-0.2605,1.0240,0.0719
2.0470,-0.2605,1.0240,0.0719
2.0480,-0.2605,1.0240,0.0719
2.0530,-0.2605,1.0240,0.0719
2.0570,-0.2608,1.0237,0.0821
2.0660,-0.2608,1.0237,0.0821
2.0660,-0.2608,1.0237,0.0821
2.0670,-0.2608,1.0237,0.0821
2.0670,-0.2617,1.0191,0.0711
2.0680,-0.2617,1.0191,0.0711
2.0960,-0.2617,1.0191,0.0711
2.0960,-0.2617,1.0191,0.0711
2.0970,-0.2617,1.0191,0.0711
2.0980,-0.2637,1.0213,0.0767
2.0980,-0.2603,1.0247,0.0775
2.1260,-0.2603,1.0247,0.0775
2.1270,-0.2603,1.0247,0.0775
2.1280,-0.2603,1.0247,0.0775
2.1280,-0.2576,1.0196,0.0853
2.1470,-0.2576,1.0196,0.0853
2.1480,-0.2576,1.0196,0.0853
2.1480,-0.2576,1.0196,0.0853
2.1540,-0.2510,1.0213,0.0875
2.1550,-0.2510,1.0213,0.0875
2.1770,-0.2510,1.0213,0.0875
2.1770,-0.2510,1.0213,0.0875
2.1800,-0.2510,1.0213,0.0875
2.1810,-0.2481,1.0325,0.0645
2.1820,-0.2551,1.0345,0.0675
2.1830,-0.2551,1.0345,0.0675
2.2070,-0.2551,1.0345,0.0675
2.2080,-0.2551,1.0345,0.0675
2.2090,-0.2551,1.0345,0.0675
2.2100,-0.2573,1.0235,0.0826
2.2270,-0.2573,1.0235,0.0826
2.2280,-0.2573,1.0235,0.0826
2.2290,-0.2573,1.0235,0.0826
2.2300,-0.2461,1.0191,0.0872
2.2310,-0.2461,1.0191,0.0872
2.2570,-0.2461,1.0191,0.0872
2.2580,-0.2461,1.0191,0.0872
2.2590,-0.2461,1.0191,0.0872
2.2590,-0.2371,1.0208,0.0833
2.2940,-0.2468,1.0172,0.0811
2.2950,-0.2468,1.0172,0.0811
2.2950,-0.2468,1.0172,0.0811
2.2960,-0.2468,1.0172,0.0811
2.2970,-0.2591,1.0172,0.0887
2.3060,-0.2591,1.0172,0.0887
2.3060,-0.2591,1.0172,0.0887
2.3070,-0.2591,1.0172,0.0887
2.3070,-0.2605,1.0296,0.0777
2.3070,-0.2605,1.0296,0.0777
2.3350,-0.2605,1.0296,0.0777
2.3360,-0.2605,1.0296,0.0777
2.3360,-0.2605,1.0296,0.0777
2.3370,-0.2573,1.0301,0.0706
2.3380,-0.2598,1.0252,0.0821
2.3650,-0.2598,1.0252,0.0821
2.3660,-0.2598,1.0252,0.0821
2.3670,-0.2598,1.0252,0.0821
2.3670,-0.2561,1.0286,0.0806
2.3810,-0.2561,1.0286,0.0806
2.3880,-0.2561,1.0286,0.0806
2.3880,-0.2561,1.0286,0.0806
2.3910,-0.2561,1.0286,0.0806
2.3920,-0.2503,1.0255,0.0846
2.3930,-0.2503,1.0255,0.0846
2.4180,-0.2503,1.0255,0.0846
2.4190,-0.2503,1.0255,0.0846
2.4190,-0.2503,1.0255,0.0846
2.4200,-0.2493,1.0228,0.0848
2.4200,-0.2444,1.0279,0.0765
2.4470,-0.2444,1.0279,0.0765
2.4480,-0.2444,1.0279,0.0765
2.4490,-0.2444,1.0279,0.0765
2.4500,-0.2481,1.0228,0.0841
2.4670,-0.2481,1.0228,0.0841
2.4680,-0.2481,1.0228,0.0841
2.4690,-0.2481,1.0228,0.0841
2.4700,-0.2576,1.0174,0.0963
2.4710,-0.2576,1.0174,0.0963
2.5000,-0.2576,1.0174,0.0963
2.5000,-0.2576,1.0174,0.0963
2.5010,-0.2576,1.0174,0.0963
2.5030,-0.2561,1.0274,0.0753
2.5030,-0.2520,1.0311,0.0623
2.5280,-0.2520,1.0311,0.0623
2.5300,-0.2520,1.0311,0.0623
2.5310,-0.2520,1.0311,0.0623
2.5320,-0.2488,1.0198,0.0814
2.5480,-0.2488,1.0198,0.0814
2.5500,-0.2488,1.0198,0.0814
2.5500,-0.2488,1.0198,0.0814
2.5510,-0.2471,1.0201,0.0860
2.5520,-0.2471,1.0201,0.0860
2.5760,-0.2471,1.0201,0.0860
2.5770,-0.2471,1.0201,0.0860
2.5790,-0.2471,1.0201,0.0860
2.5800,-0.2495,1.0291,0.0760
2.5810,-0.2468,1.0281,0.0716
2.5820,-0.2468,1.0281,0.0716
2.6080,-0.2468,1.0281,0.0716
2.6090,-0.2468,1.0281,0.0716
2.6100,-0.2468,1.0281,0.0716
2.6110,-0.2459,1.0206,0.0860
2.6290,-0.2459,1.0206,0.0860
2.6300,-0.2459,1.0206,0.0860
2.6320,-0.2459,1.0206,0.0860
2.6330,-0.2454,1.0225,0.0934
2.6340,-0.2454,1.0225,0.0934
2.6570,-0.2454,1.0225,0.0934
2.6570,-0.2454,1.0225,0.0934
2.6580,-0.2454,1.0225,0.0934
2.6590,-0.2476,1.0242,0.0762
2.6600,-0.2525,1.0269,0.0811
2.6870,-0.2525,1.0269,0.0811
2.6880,-0.2525,1.0269,0.0811
2.6890,-0.2525,1.0269,0.0811
2.6900,-0.2522,1.0301,0.0782
2.7080,-0.2522,1.0301,0.0782
2.7110,-0.2522,1.0301,0.0782
2.7120,-0.2522,1.0301,0.0782
2.7130,-0.2468,1.0301,0.0728
2.7140,-0.2468,1.0301,0.0728
2.7370,-0.2468,1.0301,0.0728
2.7380,-0.2468,1.0301,0.0728
2.7410,-0.2468,1.0301,0.0728
2.7420,-0.2503,1.0201,0.0802
2.7430,-0.2571,1.0206,0.0870
2.7670,-0.2571,1.0206,0.0870
2.7680,-0.2571,1.0206,0.0870
2.7680,-0.2571,1.0206,0.0870
2.7720,-0.2532,1.0281,0.0848
2.7810,-0.2532,1.0281,0.0848
2.7910,-0.2532,1.0281,0.0848
2.7950,-0.2532,1.0281,0.0848
2.7960,-0.2532,1.0281,0.0848
2.7960,-0.2505,1.0306,0.0762
2.7970,-0.2505,1.0306,0.0762
2.8170,-0.2505,1.0306,0.0762
2.8180,-0.2505,1.0306,0.0762
2.8180,-0.2505,1.0306,0.0762
2.8380,-0.2534,1.0259,0.0787
2.8380,-0.2593,1.0189,0.0762
2.8460,-0.2593,1.0189,0.0762
2.8460,-0.2593,1.0189,0.0762
2.8470,-0.2593,1.0189,0.0762
2.8470,-0.2727,1.0150,0.0870
2.8670,-0.2727,1.0150,0.0870
2.8680,-0.2727,1.0150,0.0870
2.8680,-0.2727,1.0150,0.0870
2.8690,-0.2701,1.0208,0.0853
2.8690,-0.2701,1.0208,0.0853
2.8990,-0.2701,1.0208,0.0853
2.9000,-0.2701,1.0208,0.0853
2.9010,-0.2701,1.0208,0.0853
2.9020,-0.2586,1.0277,0.0814
2.9030,-0.2495,1.0355,0.0811
2.9270,-0.2495,1.0355,0.0811
2.9280,-0.2495,1.0355,0.0811
2.9290,-0.2495,1.0355,0.0811
2.9300,-0.2463,1.0333,0.0741
2.9480,-0.2463,1.0333,0.0741
2.9490,-0.2463,1.0333,0.0741
2.9500,-0.2463,1.0333,0.0741
2.9510,-0.2498,1.0189,0.0936
2.9520,-0.2498,1.0189,0.0936
2.9790,-0.2498,1.0189,0.0936
2.9810,-0.2498,1.0189,0.0936
2.9820,-0.2498,1.0189,0.0936
2.9830,-0.2481,1.0201,0.0916
2.9840,-0.2449,1.0350,0.0565
2.9850,-0.2449,1.0350,0.0565
3.0070,-0.2449,1.0350,0.0565
3.0080,-0.2449,1.0350,0.0565
3.0100,-0.2449,1.0350,0.0565
3.0110,-0.2529,1.0406,0.0640
3.0280,-0.2529,1.0406,0.0640
3.0300,-0.2529,1.0406,0.0640
3.0310,-0.2529,1.0406,0.0640
3.0320,-0.2544,1.0235,0.0936
3.0330,-0.2544,1.0235,0.0936
3.0580,-0.2544,1.0235,0.0936
3.0600,-0.2544,1.0235,0.0936
3.0610,-0.2544,1.0235,0.0936
3.0620,-0.2485,1.0086,0.1004
3.0630,-0.2488,1.0242,0.0767
3.0880,-0.2488,1.0242,0.0767
3.0890,-0.2488,1.0242,0.0767
3.0900,-0.2488,1.0242,0.0767
3.0910,-0.2522,1.0394,0.0660
3.1140,-0.2522,1.0394,0.0660
3.1170,-0.2522,1.0394,0.0660
3.1180,-0.2522,1.0394,0.0660
3.1200,-0.2478,1.0308,0.0814
3.1260,-0.2478,1.0308,0.0814
3.1380,-0.2478,1.0308,0.0814
3.1380,-0.2478,1.0308,0.0814
3.1390,-0.2478,1.0308,0.0814
3.1400,-0.2410,1.0230,0.0938
3.1400,-0.2446,1.0274,0.0794
3.1680,-0.2446,1.0274,0.0794
3.1690,-0.2446,1.0274,0.0794
3.1700,-0.2446,1.0274,0.0794
3.1700,-0.2478,1.0313,0.0723
3.1810,-0.2478,1.0313,0.0723
3.1880,-0.2478,1.0313,0.0723
3.1890,-0.2478,1.0313,0.0723
3.1900,-0.2478,1.0313,0.0723
3.1930,-0.2368,1.0257,0.0767
3.1940,-0.2368,1.0257,0.0767
3.2170,-0.2368,1.0257,0.0767
3.2170,-0.2368,1.0257,0.0767
3.2180,-0.2368,1.0257,0.0767
3.2190,-0.2395,1.0189,0.0934
3.2200,-0.2527,1.0228,0.0921
3.2480,-0.2527,1.0228,0.0921
3.2480,-0.2527,1.0228,0.0921
3.2490,-0.2527,1.0228,0.0921
3.2500,-0.2627,1.0308,0.0738
3.2690,-0.2627,1.0308,0.0738
3.2700,-0.2627,1.0308,0.0738
3.2710,-0.2627,1.0308,0.0738
3.2710,-0.2598,1.0286,0.0787
3.2730,-0.2598,1.0286,0.0787
3.2990,-0.2598,1.0286,0.0787
3.2990,-0.2598,1.0286,0.0787
3.3000,-0.2598,1.0286,0.0787
3.3000,-0.2510,1.0223,0.0929
3.3000,-0.2503,1.0193,0.0929
3.3270,-0.2503,1.0193,0.0929
3.3280,-0.2503,1.0193,0.0929
3.3280,-0.2503,1.0193,0.0929
3.3290,-0.2551,1.0145,0.0894
3.3510,-0.2551,1.0145,0.0894
3.3520,-0.2551,1.0145,0.0894
3.3540,-0.2551,1.0145,0.0894
3.3550,-0.2559,1.0189,0.0960
3.3560,-0.2559,1.0189,0.0960
3.3790,-0.2559,1.0189,0.0960
3.3800,-0.2559,1.0189,0.0960
3.3810,-0.2559,1.0189,0.0960
3.3970,-0.2571,1.0213,0.0824
3.3970,-0.2503,1.0159,0.0782
3.3980,-0.2503,1.0159,0.0782
3.4070,-0.2503,1.0159,0.0782
3.4080,-0.2503,1.0159,0.0782
3.4080,-0.2503,1.0159,0.0782
3.4090,-0.2461,1.0213,0.0885
3.4270,-0.2461,1.0213,0.0885
3.4270,-0.2461,1.0213,0.0885
3.4280,-0.2461,1.0213,0.0885
3.4280,-0.2478,1.0335,0.0838
3.4290,-0.2478,1.0335,0.0838
3.4570,-0.2478,1.0335,0.0838
3.4580,-0.2478,1.0335,0.0838
3.4590,-0.2478,1.0335,0.0838
3.4600,-0.2483,1.0325,0.0745
3.4600,-0.2532,1.0257,0.0914
3.4870,-0.2532,1.0257,0.0914
3.4880,-0.2532,1.0257,0.0914
3.4880,-0.2532,1.0257,0.0914
3.4890,-0.2459,1.0318,0.0860
3.5100,-0.2459,1.0318,0.0860
3.5110,-0.2459,1.0318,0.0860
3.5120,-0.2459,1.0318,0.0860
3.5130,-0.2390,1.0345,0.0626
3.5150,-0.2390,1.0345,0.0626
3.5380,-0.2390,1.0345,0.0626
3.5390,-0.2390,1.0345,0.0626
3.5400,-0.2390,1.0345,0.0626
3.5410,-0.2410,1.0220,0.0814
3.5420,-0.2527,1.0172,0.1022
3.5680,-0.2527,1.0172,0.1022
3.5690,-0.2527,1.0172,0.1022
3.5700,-0.2527,1.0172,0.1022
3.5710,-0.2591,1.0294,0.0902
3.5810,-0.2591,1.0294,0.0902
3.5920,-0.2591,1.0294,0.0902
3.5960,-0.2591,1.0294,0.0902
3.5970,-0.2591,1.0294,0.0902
3.5970,-0.2498,1.0306,0.0716
3.5980,-0.2498,1.0306,0.0716
3.6170,-0.2498,1.0306,0.0716
3.6180,-0.2498,1.0306,0.0716
3.6190,-0.2498,1.0306,0.0716
3.6200,-0.2444,1.0189,0.0741
3.6210,-0.2466,1.0220,0.0880
3.6480,-0.2466,1.0220,0.0880
3.6490,-0.2466,1.0220,0.0880
3.6500,-0.2466,1.0220,0.0880
3.6500,-0.2622,1.0245,0.0809
3.6690,-0.2622,1.0245,0.0809
3.6700,-0.2622,1.0245,0.0809
3.6710,-0.2622,1.0245,0.0809
3.6730,-0.2647,1.0230,0.0748
3.6770,-0.2647,1.0230,0.0748
3.6970,-0.2647,1.0230,0.0748
3.6980,-0.2647,1.0230,0.0748
3.6990,-0.2647,1.0230,0.0748
3.7000,-0.2591,1.0169,0.0843
3.7000,-0.2569,1.0140,0.0887
3.7280,-0.2569,1.0140,0.0887
3.7300,-0.2569,1.0140,0.0887
3.7310,-0.2569,1.0140,0.0887
3.7320,-0.2554,1.0274,0.0811
3.7480,-0.2554,1.0274,0.0811
3.7480,-0.2554,1.0274,0.0811
3.7490,-0.2554,1.0274,0.0811
3.7530,-0.2583,1.0299,0.0741
3.7550,-0.2583,1.0299,0.0741
3.7770,-0.2583,1.0299,0.0741
3.7780,-0.2583,1.0299,0.0741
3.7780,-0.2583,1.0299,0.0741
3.7820,-0.2595,1.0274,0.0802
3.7820,-0.2608,1.0296,0.0782
3.7830,-0.2608,1.0296,0.0782
3.8080,-0.2608,1.0296,0.0782
3.8110,-0.2608,1.0296,0.0782
3.8120,-0.2608,1.0296,0.0782
3.8130,-0.2647,1.0262,0.0723
3.8300,-0.2647,1.0262,0.0723
3.8300,-0.2647,1.0262,0.0723
3.8310,-0.2647,1.0262,0.0723
3.8320,-0.2613,1.0162,0.0887
3.8320,-0.2613,1.0162,0.0887
3.8580,-0.2613,1.0162,0.0887
3.8590,-0.2613,1.0162,0.0887
3.8600,-0.2613,1.0162,0.0887
3.8610,-0.2461,1.0184,0.0855
3.8610,-0.2346,1.0286,0.0797
3.8880,-0.2346,1.0286,0.0797
3.8890,-0.2346,1.0286,0.0797
3.8900,-0.2346,1.0286,0.0797
3.8900,-0.2385,1.0303,0.0706
3.9080,-0.2385,1.0303,0.0706
3.9080,-0.2385,1.0303,0.0706
3.9090,-0.2385,1.0303,0.0706
3.9100,-0.2478,1.0262,0.0767
3.9110,-0.2478,1.0262,0.0767
3.9380,-0.2478,1.0262,0.0767
3.9380,-0.2478,1.0262,0.0767
3.9580,-0.2478,1.0262,0.0767
3.9590,-0.2481,1.0218,0.0806
3.9600,-0.2473,1.0247,0.0863
3.9690,-0.2473,1.0247,0.0863
3.9700,-0.2473,1.0247,0.0863
3.9700,-0.2473,1.0247,0.0863
3.9710,-0.2503,1.0347,0.0731
3.9810,-0.2503,1.0347,0.0731
3.9880,-0.2503,1.0347,0.0731
3.9920,-0.2503,1.0347,0.0731
3.9930,-0.2503,1.0347,0.0731
3.9950,-0.2510,1.0291,0.0643
3.9960,-0.2510,1.0291,0.0643
4.0180,-0.2510,1.0291,0.0643
4.0180,-0.2510,1.0291,0.0643
4.0200,-0.2510,1.0291,0.0643
4.0200,-0.2561,1.0272,0.0775
4.0210,-0.2615,1.0235,0.0843
4.0470,-0.2615,1.0235,0.0843
4.0480,-0.2615,1.0235,0.0843
4.0480,-0.2615,1.0235,0.0843
4.0490,-0.2720,1.0137,0.0892
4.0760,-0.2720,1.0137,0.0892
4.0770,-0.2720,1.0137,0.0892
4.0780,-0.2720,1.0137,0.0892
4.0790,-0.2720,1.0201,0.0890
4.0800,-0.2720,1.0201,0.0890
4.0970,-0.2720,1.0201,0.0890
4.0980,-0.2720,1.0201,0.0890
4.0980,-0.2720,1.0201,0.0890
4.0980,-0.2669,1.0250,0.0755
4.0990,-0.2642,1.0179,0.0811
4.1290,-0.2642,1.0179,0.0811
4.1300,-0.2642,1.0179,0.0811
4.1300,-0.2642,1.0179,0.0811
4.1300,-0.2532,1.0186,0.0916
4.1500,-0.2532,1.0186,0.0916
4.1500,-0.2532,1.0186,0.0916
4.1500,-0.2532,1.0186,0.0916
4.1510,-0.2498,1.0157,0.1017
4.1510,-0.2498,1.0157,0.1017
4.1790,-0.2498,1.0157,0.1017
4.1800,-0.2498,1.0157,0.1017
4.1800,-0.2498,1.0157,0.1017
4.1800,-0.2542,1.0137,0.0970
4.1800,-0.2583,1.0267,0.0738
4.1850,-0.2583,1.0267,0.0738
4.2120,-0.2583,1.0267,0.0738
4.2120,-0.2583,1.0267,0.0738
4.2120,-0.2583,1.0267,0.0738
4.2130,-0.2512,1.0394,0.0635
4.2330,-0.2512,1.0394,0.0635
4.2330,-0.2512,1.0394,0.0635
4.2330,-0.2512,1.0394,0.0635
4.2340,-0.2451,1.0325,0.0787
4.2340,-0.2451,1.0325,0.0787
4.2610,-0.2451,1.0325,0.0787
4.2620,-0.2451,1.0325,0.0787
4.2620,-0.2451,1.0325,0.0787
4.2620,-0.2441,1.0172,0.0965
4.2630,-0.2444,1.0228,0.0902
4.2930,-0.2444,1.0228,0.0902
4.2930,-0.2444,1.0228,0.0902
4.2930,-0.2444,1.0228,0.0902
4.2930,-0.2419,1.0274,0.0784
4.3140,-0.2419,1.0274,0.0784
4.3140,-0.2419,1.0274,0.0784
4.3150,-0.2419,1.0274,0.0784
4.3190,-0.2463,1.0169,0.0868
4.3190,-0.2463,1.0169,0.0868
4.3400,-0.2463,1.0169,0.0868
4.3400,-0.2463,1.0169,0.0868
4.3410,-0.2463,1.0169,0.0868
4.3410,-0.2522,1.0167,0.0912
4.3410,-0.2600,1.0299,0.0858
4.3730,-0.2600,1.0299,0.0858
4.3730,-0.2600,1.0299,0.0858
4.3730,-0.2600,1.0299,0.0858
4.3730,-0.2566,1.0350,0.0694
4.3850,-0.2566,1.0350,0.0694
4.3920,-0.2566,1.0350,0.0694
4.3930,-0.2566,1.0350,0.0694
4.3930,-0.2566,1.0350,0.0694
4.3960,-0.2515,1.0340,0.0765
4.3960,-0.2515,1.0340,0.0765
4.4210,-0.2515,1.0340,0.0765
4.4210,-0.2515,1.0340,0.0765
4.4220,-0.2515,1.0340,0.0765
4.4220,-0.2547,1.0281,0.0887
4.4220,-0.2591,1.0201,0.0863
4.4520,-0.2591,1.0201,0.0863
4.4530,-0.2591,1.0201,0.0863
4.4530,-0.2591,1.0201,0.0863
4.4530,-0.2551,1.0184,0.0892
4.4730,-0.2551,1.0184,0.0892
4.4730,-0.2551,1.0184,0.0892
4.4730,-0.2551,1.0184,0.0892
4.4740,-0.2410,1.0267,0.0841
4.4740,-0.2410,1.0267,0.0841
4.5000,-0.2410,1.0267,0.0841
4.5110,-0.2410,1.0267,0.0841
4.5120,-0.2410,1.0267,0.0841
4.5120,-0.2361,1.0303,0.0750
4.5130,-0.2397,1.0257,0.0865
4.5270,-0.2397,1.0257,0.0865
4.5270,-0.2397,1.0257,0.0865
4.5270,-0.2397,1.0257,0.0865
4.5280,-0.2434,1.0318,0.0802
4.5470,-0.2434,1.0318,0.0802
4.5480,-0.2434,1.0318,0.0802
4.5490,-0.2434,1.0318,0.0802
4.5490,-0.2353,1.0306,0.0819
4.5490,-0.2353,1.0306,0.0819
4.5810,-0.2353,1.0306,0.0819
4.5810,-0.2353,1.0306,0.0819
4.5810,-0.2353,1.0306,0.0819
4.5820,-0.2407,1.0196,0.0902
4.5820,-0.2527,1.0218,0.0814
4.5820,-0.2527,1.0218,0.0814
4.6070,-0.2527,1.0218,0.0814
4.6080,-0.2527,1.0218,0.0814
4.6080,-0.2527,1.0218,0.0814
4.6080,-0.2676,1.0259,0.0816
4.6270,-0.2676,1.0259,0.0816
4.6280,-0.2676,1.0259,0.0816
4.6280,-0.2676,1.0259,0.0816
4.6290,-0.2627,1.0203,0.0760
4.6290,-0.2627,1.0203,0.0760
4.6580,-0.2627,1.0203,0.0760
4.6580,-0.2627,1.0203,0.0760
4.6580,-0.2627,1.0203,0.0760
4.6590,-0.2559,1.0162,0.1000
4.6590,-0.2554,1.0252,0.0965
4.6880,-0.2554,1.0252,0.0965
4.6890,-0.2554,1.0252,0.0965
4.6890,-0.2554,1.0252,0.0965
4.6890,-0.2542,1.0301,0.0621
4.7080,-0.2542,1.0301,0.0621
4.7090,-0.2542,1.0301,0.0621
4.7090,-0.2542,1.0301,0.0621
4.7100,-0.2549,1.0203,0.0745
4.7100,-0.2549,1.0203,0.0745
4.7380,-0.2549,1.0203,0.0745
4.7380,-0.2549,1.0203,0.0745
4.7380,-0.2549,1.0203,0.0745
4.7390,-0.2434,1.0274,0.0765
4.7390,-0.2314,1.0360,0.0596
4.7690,-0.2314,1.0360,0.0596
4.7690,-0.2314,1.0360,0.0596
4.7700,-0.2314,1.0360,0.0596
4.7700,-0.2317,1.0301,0.0640
4.7810,-0.2317,1.0301,0.0640
4.7880,-0.2317,1.0301,0.0640
4.7890,-0.2317,1.0301,0.0640
4.7900,-0.2317,1.0301,0.0640
4.7900,-0.2429,1.0198,0.0870
4.7900,-0.2429,1.0198,0.0870
4.8180,-0.2429,1.0198,0.0870
4.8190,-0.2429,1.0198,0.0870
4.8190,-0.2429,1.0198,0.0870
4.9340,-0.2503,1.0220,0.0870
4.9350,-0.2429,1.0303,0.0687
4.9380,-0.2429,1.0303,0.0687
4.9390,-0.2429,1.0303,0.0687
4.9390,-0.2429,1.0303,0.0687
4.9400,-0.2429,1.0303,0.0687
4.9400,-0.2429,1.0303,0.0687
4.9400,-0.2429,1.0303,0.0687
4.9410,-0.2429,1.0303,0.0687
4.9410,-0.2429,1.0303,0.0687
4.9420,-0.2429,1.0303,0.0687
4.9420,-0.2429,1.0303,0.0687
4.9420,-0.2429,1.0303,0.0687
4.9430,-0.2429,1.0303,0.0687
4.9430,-0.2476,1.0284,0.0811
4.9440,-0.2603,1.0162,0.0924
4.9440,-0.2659,1.0172,0.0846
4.9440,-0.2703,1.0169,0.0784
4.9450,-0.2686,1.0215,0.0816
4.9450,-0.2686,1.0215,0.0816
4.9490,-0.2686,1.0215,0.0816
4.9500,-0.2686,1.0215,0.0816
4.9500,-0.2686,1.0215,0.0816
4.9510,-0.2659,1.0206,0.0828
4.9510,-0.2659,1.0206,0.0828
4.9790,-0.2659,1.0206,0.0828
4.9790,-0.2659,1.0206,0.0828
4.9800,-0.2659,1.0206,0.0828
4.9800,-0.2723,1.0125,0.0960
4.9800,-0.2727,1.0162,0.0943
4.9850,-0.2727,1.0162,0.0943
5.0090,-0.2727,1.0162,0.0943
5.0100,-0.2727,1.0162,0.0943
5.0100,-0.2727,1.0162,0.0943
5.0110,-0.2649,1.0247,0.0748
5.0290,-0.2649,1.0247,0.0748
5.0290,-0.2649,1.0247,0.0748
5.0300,-0.2649,1.0247,0.0748
5.0300,-0.2657,1.0140,0.0924
5.0300,-0.2657,1.0140,0.0924
5.0600,-0.2657,1.0140,0.0924
5.0610,-0.2657,1.0140,0.0924
5.0610,-0.2657,1.0140,0.0924
5.0610,-0.2725,1.0084,0.1176
5.0620,-0.2652,1.0218,0.0872
5.0890,-0.2652,1.0218,0.0872
5.0890,-0.2652,1.0218,0.0872
5.0890,-0.2652,1.0218,0.0872
5.0900,-0.2512,1.0382,0.0716
5.1070,-0.2512,1.0382,0.0716
5.1080,-0.2512,1.0382,0.0716
5.1080,-0.2512,1.0382,0.0716
5.1090,-0.2437,1.0303,0.0907
5.1090,-0.2437,1.0303,0.0907
5.1370,-0.2437,1.0303,0.0907
5.1380,-0.2437,1.0303,0.0907
5.1380,-0.2437,1.0303,0.0907
5.1380,-0.2424,1.0201,0.0948
5.1380,-0.2380,1.0299,0.0794
5.1680,-0.2380,1.0299,0.0794
5.1690,-0.2380,1.0299,0.0794
5.1690,-0.2380,1.0299,0.0794
5.1690,-0.2356,1.0355,0.0628
5.1800,-0.2356,1.0355,0.0628
5.1880,-0.2356,1.0355,0.0628
5.1900,-0.2356,1.0355,0.0628
5.1900,-0.2356,1.0355,0.0628
5.1900,-0.2441,1.0311,0.0863
5.1910,-0.2441,1.0311,0.0863
5.2180,-0.2441,1.0311,0.0863
5.2190,-0.2441,1.0311,0.0863
5.2190,-0.2441,1.0311,0.0863
5.2190,-0.2493,1.0203,0.0958
5.2190,-0.2539,1.0225,0.0914
5.2480,-0.2539,1.0225,0.0914
5.2490,-0.2539,1.0225,0.0914
5.2500,-0.2539,1.0225,0.0914
5.2500,-0.2615,1.0208,0.0765
5.2690,-0.2615,1.0208,0.0765
5.2690,-0.2615,1.0208,0.0765
5.2700,-0.2615,1.0208,0.0765
5.2700,-0.2683,1.0211,0.0792
5.2700,-0.2683,1.0211,0.0792
5.2990,-0.2683,1.0211,0.0792
5.2990,-0.2683,1.0211,0.0792
5.2990,-0.2683,1.0211,0.0792
5.3000,-0.2642,1.0157,0.0899
5.3000,-0.2561,1.0218,0.0865
5.3290,-0.2561,1.0218,0.0865
5.3300,-0.2561,1.0218,0.0865
5.3300,-0.2561,1.0218,0.0865
5.3300,-0.2561,1.0316,0.0780
5.3500,-0.2561,1.0316,0.0780
5.3500,-0.2561,1.0316,0.0780
5.3510,-0.2561,1.0316,0.0780
5.3520,-0.2534,1.0230,0.0767
5.3530,-0.2534,1.0230,0.0767
5.3820,-0.2534,1.0230,0.0767
5.3830,-0.2534,1.0230,0.0767
5.3830,-0.2534,1.0230,0.0767
5.3830,-0.2454,1.0174,0.0892
5.3830,-0.2410,1.0250,0.0960
5.3830,-0.2410,1.0250,0.0960
5.4100,-0.2410,1.0250,0.0960
5.4110,-0.2410,1.0250,0.0960
5.4110,-0.2410,1.0250,0.0960
5.4110,-0.2478,1.0316,0.0780
5.4310,-0.2478,1.0316,0.0780
5.4320,-0.2478,1.0316,0.0780
5.4320,-0.2478,1.0316,0.0780
5.4330,-0.2547,1.0252,0.0748
5.4330,-0.2547,1.0252,0.0748
5.4600,-0.2547,1.0252,0.0748
5.4600,-0.2547,1.0252,0.0748
5.4610,-0.2547,1.0252,0.0748
5.4610,-0.2534,1.0213,0.0912
5.4610,-0.2466,1.0240,0.0960
5.4890,-0.2466,1.0240,0.0960
5.4900,-0.2466,1.0240,0.0960
5.4900,-0.2466,1.0240,0.0960
5.4900,-0.2529,1.0218,0.0797
5.5130,-0.2529,1.0218,0.0797
5.5130,-0.2529,1.0218,0.0797
5.5130,-0.2529,1.0218,0.0797
5.5140,-0.2671,1.0176,0.0841
5.5140,-0.2671,1.0176,0.0841
5.5410,-0.2671,1.0176,0.0841
5.5410,-0.2671,1.0176,0.0841
5.5420,-0.2671,1.0176,0.0841
5.5420,-0.2674,1.0225,0.0858
5.5430,-0.2578,1.0252,0.0838
5.5720,-0.2578,1.0252,0.0838
5.5720,-0.2578,1.0252,0.0838
5.5720,-0.2578,1.0252,0.0838
5.5720,-0.2556,1.0176,0.0912
5.5840,-0.2556,1.0176,0.0912
5.5840,-0.2556,1.0176,0.0912
5.5910,-0.2556,1.0176,0.0912
5.5910,-0.2556,1.0176,0.0912
5.5920,-0.2556,1.0176,0.0912
5.6040,-0.2564,1.0198,0.0941
5.6050,-0.2564,1.0198,0.0941
5.6180,-0.2564,1.0198,0.0941
5.6190,-0.2564,1.0198,0.0941
5.6190,-0.2564,1.0198,0.0941
5.6210,-0.2461,1.0281,0.0821
5.6210,-0.2378,1.0299,0.0777
5.6490,-0.2378,1.0299,0.0777
5.6500,-0.2378,1.0299,0.0777
5.6500,-0.2378,1.0299,0.0777
5.6500,-0.2410,1.0245,0.0860
5.6700,-0.2410,1.0245,0.0860
5.6700,-0.2410,1.0245,0.0860
5.6710,-0.2410,1.0245,0.0860
5.6710,-0.2468,1.0172,0.0912
5.6710,-0.2468,1.0172,0.0912
5.6990,-0.2468,1.0172,0.0912
5.6990,-0.2468,1.0172,0.0912
5.6990,-0.2468,1.0172,0.0912
5.6990,-0.2473,1.0228,0.0892
5.7000,-0.2463,1.0294,0.0870
5.7320,-0.2463,1.0294,0.0870
5.7320,-0.2463,1.0294,0.0870
5.7330,-0.2463,1.0294,0.0870
5.7340,-0.2483,1.0306,0.0894
5.7520,-0.2483,1.0306,0.0894
5.7530,-0.2483,1.0306,0.0894
5.7530,-0.2483,1.0306,0.0894
5.7540,-0.2549,1.0267,0.0902
5.7550,-0.2549,1.0267,0.0902
5.7830,-0.2549,1.0267,0.0902
5.7840,-0.2549,1.0267,0.0902
5.7850,-0.2549,1.0267,0.0902
5.7860,-0.2529,1.0201,0.0965
5.7870,-0.2539,1.0211,0.0858
5.7880,-0.2539,1.0211,0.0858
5.7890,-0.2539,1.0211,0.0858
5.8110,-0.2539,1.0211,0.0858
5.8110,-0.2539,1.0211,0.0858
5.8120,-0.2539,1.0211,0.0858
5.8130,-0.2581,1.0306,0.0701
5.8320,-0.2581,1.0306,0.0701
5.8340,-0.2581,1.0306,0.0701
5.8340,-0.2581,1.0306,0.0701
5.8350,-0.2559,1.0228,0.0855
5.8360,-0.2559,1.0228,0.0855
5.8600,-0.2559,1.0228,0.0855
5.8610,-0.2559,1.0228,0.0855
5.8620,-0.2559,1.0228,0.0855
5.8630,-0.2573,1.0186,0.0992
5.8630,-0.2554,1.0240,0.0882
5.8910,-0.2554,1.0240,0.0882
5.8920,-0.2554,1.0240,0.0882
5.8930,-0.2554,1.0240,0.0882
5.8930,-0.2539,1.0235,0.0799
5.9120,-0.2539,1.0235,0.0799
5.9140,-0.2539,1.0235,0.0799
5.9150,-0.2539,1.0235,0.0799
5.9160,-0.2454,1.0235,0.0701
5.9170,-0.2454,1.0235,0.0701
5.9410,-0.2454,1.0235,0.0701
5.9420,-0.2454,1.0235,0.0701
5.9430,-0.2454,1.0235,0.0701
5.9430,-0.2468,1.0259,0.0753
5.9440,-0.2569,1.0191,0.0890
5.9710,-0.2569,1.0191,0.0890
5.9730,-0.2569,1.0191,0.0890
5.9730,-0.2569,1.0191,0.0890
5.9740,-0.2578,1.0174,0.0836
5.9830,-0.2578,1.0174,0.0836
5.9840,-0.2578,1.0174,0.0836
5.9930,-0.2578,1.0174,0.0836
5.9940,-0.2578,1.0174,0.0836
5.9950,-0.2578,1.0174,0.0836
5.9960,-0.2571,1.0181,0.0838
5.9970,-0.2571,1.0181,0.0838
6.0200,-0.2571,1.0181,0.0838
6.0210,-0.2571,1.0181,0.0838
6.0220,-0.2571,1.0181,0.0838
6.0220,-0.2593,1.0218,0.0863
6.0230,-0.2627,1.0277,0.0772
6.0510,-0.2627,1.0277,0.0772
6.0520,-0.2627,1.0277,0.0772
6.0530,-0.2627,1.0277,0.0772
6.0540,-0.2683,1.0240,0.0802
6.0720,-0.2683,1.0240,0.0802
6.0730,-0.2683,1.0240,0.0802
6.0730,-0.2683,1.0240,0.0802
6.0740,-0.2669,1.0123,0.0953
6.0740,-0.2669,1.0123,0.0953
6.1010,-0.2669,1.0123,0.0953
6.1020,-0.2669,1.0123,0.0953
6.1030,-0.2669,1.0123,0.0953
6.1030,-0.2578,1.0110,0.0904
6.1040,-0.2547,1.0208,0.0806
6.1330,-0.2547,1.0208,0.0806
6.1340,-0.2547,1.0208,0.0806
6.1340,-0.2547,1.0208,0.0806
6.1350,-0.2510,1.0230,0.0799
6.1520,-0.2510,1.0230,0.0799
6.1740,-0.2510,1.0230,0.0799
6.1740,-0.2510,1.0230,0.0799
6.1750,-0.2485,1.0225,0.0894
6.1760,-0.2485,1.0225,0.0894
6.1820,-0.2485,1.0225,0.0894
6.1820,-0.2485,1.0225,0.0894
6.1830,-0.2485,1.0225,0.0894
6.1830,-0.2461,1.0299,0.0821
6.1830,-0.2498,1.0306,0.0738
6.1840,-0.2498,1.0306,0.0738
6.1840,-0.2498,1.0306,0.0738
6.2110,-0.2498,1.0306,0.0738
6.2110,-0.2498,1.0306,0.0738
6.2120,-0.2498,1.0306,0.0738
6.2130,-0.2549,1.0235,0.0826
6.2310,-0.2549,1.0235,0.0826
6.2320,-0.2549,1.0235,0.0826
6.2330,-0.2549,1.0235,0.0826
6.2340,-0.2559,1.0233,0.0931
6.2350,-0.2559,1.0233,0.0931
6.2620,-0.2559,1.0233,0.0931
6.2630,-0.2559,1.0233,0.0931
6.2640,-0.2559,1.0233,0.0931
6.2640,-0.2544,1.0228,0.0880
6.2650,-0.2551,1.0213,0.0814
6.2930,-0.2551,1.0213,0.0814
6.2940,-0.2551,1.0213,0.0814
6.2950,-0.2551,1.0213,0.0814
6.2970,-0.2588,1.0230,0.0860
6.3130,-0.2588,1.0230,0.0860
6.3140,-0.2588,1.0230,0.0860
6.3150,-0.2588,1.0230,0.0860
6.3170,-0.2566,1.0230,0.0806
6.3180,-0.2566,1.0230,0.0806
6.3410,-0.2566,1.0230,0.0806
6.3420,-0.2566,1.0230,0.0806
6.3420,-0.2566,1.0230,0.0806
6.3430,-0.2544,1.0211,0.0831
6.3440,-0.2520,1.0193,0.0890
6.3710,-0.2520,1.0193,0.0890
6.3720,-0.2520,1.0193,0.0890
6.3730,-0.2520,1.0193,0.0890
6.3730,-0.2476,1.0250,0.0777
6.3830,-0.2476,1.0250,0.0777
6.3840,-0.2476,1.0250,0.0777
6.3930,-0.2476,1.0250,0.0777
6.3940,-0.2476,1.0250,0.0777
6.3950,-0.2476,1.0250,0.0777
6.3960,-0.2459,1.0274,0.0719
6.3960,-0.2459,1.0274,0.0719
6.4210,-0.2459,1.0274,0.0719
6.4220,-0.2459,1.0274,0.0719
6.4230,-0.2459,1.0274,0.0719
6.4230,-0.2471,1.0277,0.0860
6.4240,-0.2532,1.0269,0.0926
6.4540,-0.2532,1.0269,0.0926
6.4550,-0.2532,1.0269,0.0926
6.4560,-0.2532,1.0269,0.0926
6.4570,-0.2542,1.0281,0.0831
6.4740,-0.2542,1.0281,0.0831
6.4750,-0.2542,1.0281,0.0831
6.4780,-0.2542,1.0281,0.0831
6.4790,-0.2532,1.0225,0.0814
6.4800,-0.2532,1.0225,0.0814
6.5020,-0.2532,1.0225,0.0814
6.5030,-0.2532,1.0225,0.0814
6.5040,-0.2532,1.0225,0.0814
6.5050,-0.2495,1.0169,0.0909
6.5060,-0.2485,1.0289,0.0784
6.5320,-0.2485,1.0289,0.0784
6.5330,-0.2485,1.0289,0.0784
6.5340,-0.2485,1.0289,0.0784
6.5340,-0.2481,1.0291,0.0826
6.5520,-0.2481,1.0291,0.0826
6.5530,-0.2481,1.0291,0.0826
6.5540,-0.2481,1.0291,0.0826
6.5540,-0.2488,1.0223,0.0907
6.5550,-0.2488,1.0223,0.0907
6.5830,-0.2488,1.0223,0.0907
6.5840,-0.2488,1.0223,0.0907
6.5840,-0.2488,1.0223,0.0907
6.5850,-0.2473,1.0233,0.0797
6.5860,-0.2466,1.0206,0.0821
6.5860,-0.2466,1.0206,0.0821
6.6120,-0.2466,1.0206,0.0821
6.6150,-0.2466,1.0206,0.0821
6.6160,-0.2466,1.0206,0.0821
6.6170,-0.2512,1.0264,0.0924
6.6330,-0.2512,1.0264,0.0924
6.6340,-0.2512,1.0264,0.0924
6.6350,-0.2512,1.0264,0.0924
6.6360,-0.2503,1.0286,0.0843
6.6370,-0.2503,1.0286,0.0843
6.6620,-0.2503,1.0286,0.0843
6.6630,-0.2503,1.0286,0.0843
6.6660,-0.2503,1.0286,0.0843
6.6670,-0.2473,1.0218,0.0860
6.6680,-0.2415,1.0220,0.0848
6.6940,-0.2415,1.0220,0.0848
6.6940,-0.2415,1.0220,0.0848
6.7140,-0.2415,1.0220,0.0848
6.7150,-0.2388,1.0272,0.0721
6.7150,-0.2388,1.0272,0.0721
6.7160,-0.2388,1.0272,0.0721
6.7180,-0.2388,1.0272,0.0721
6.7180,-0.2417,1.0311,0.0865
6.7180,-0.2417,1.0311,0.0865
6.7400,-0.2417,1.0311,0.0865
6.7400,-0.2417,1.0311,0.0865
6.7410,-0.2417,1.0311,0.0865
6.7410,-0.2466,1.0274,0.0846
6.7410,-0.2410,1.0233,0.0880
6.7710,-0.2410,1.0233,0.0880
6.7710,-0.2410,1.0233,0.0880
6.7720,-0.2410,1.0233,0.0880
6.7720,-0.2437,1.0274,0.0858
6.7800,-0.2437,1.0274,0.0858
6.7910,-0.2437,1.0274,0.0858
6.7920,-0.2437,1.0274,0.0858
6.7930,-0.2437,1.0274,0.0858
6.7950,-0.2554,1.0242,0.0765
6.7950,-0.2554,1.0242,0.0765
6.8200,-0.2554,1.0242,0.0765
6.8210,-0.2554,1.0242,0.0765
6.8210,-0.2554,1.0242,0.0765
6.8220,-0.2659,1.0225,0.0836
6.8230,-0.2622,1.0245,0.0914
6.8510,-0.2622,1.0245,0.0914
6.8510,-0.2622,1.0245,0.0914
6.8520,-0.2622,1.0245,0.0914
6.8530,-0.2534,1.0284,0.0814
6.8720,-0.2534,1.0284,0.0814
6.8730,-0.2534,1.0284,0.0814
6.8760,-0.2534,1.0284,0.0814
6.8770,-0.2439,1.0272,0.0868
6.8770,-0.2439,1.0272,0.0868
6.9010,-0.2439,1.0272,0.0868
6.9020,-0.2439,1.0272,0.0868
6.9030,-0.2439,1.0272,0.0868
6.9030,-0.2485,1.0189,0.0982
6.9040,-0.2434,1.0259,0.0782
6.9320,-0.2434,1.0259,0.0782
6.9340,-0.2434,1.0259,0.0782
6.9360,-0.2434,1.0259,0.0782
6.9370,-0.2395,1.0318,0.0699
6.9530,-0.2395,1.0318,0.0699
6.9540,-0.2395,1.0318,0.0699
6.9560,-0.2395,1.0318,0.0699
6.9570,-0.2498,1.0291,0.0877
6.9580,-0.2498,1.0291,0.0877
6.9820,-0.2498,1.0291,0.0877
6.9860,-0.2498,1.0291,0.0877
6.9870,-0.2498,1.0291,0.0877
6.9880,-0.2498,1.0291,0.0877
6.9890,-0.2549,1.0218,0.0902
6.9900,-0.2534,1.0223,0.0907
7.0120,-0.2534,1.0223,0.0907
7.0130,-0.2534,1.0223,0.0907
7.0130,-0.2534,1.0223,0.0907
7.0140,-0.2439,1.0196,0.0931
7.0360,-0.2439,1.0196,0.0931
7.0360,-0.2439,1.0196,0.0931
7.0370,-0.2439,1.0196,0.0931
7.0380,-0.2368,1.0318,0.0846
7.0390,-0.2368,1.0318,0.0846
7.0650,-0.2368,1.0318,0.0846
7.0670,-0.2368,1.0318,0.0846
7.0670,-0.2368,1.0318,0.0846
7.0680,-0.2427,1.0391,0.0672
7.0710,-0.2522,1.0228,0.0853
7.0920,-0.2522,1.0228,0.0853
7.0920,-0.2522,1.0228,0.0853
7.0930,-0.2522,1.0228,0.0853
7.0930,-0.2544,1.0103,0.1110
7.1170,-0.2544,1.0103,0.1110
7.1190,-0.2544,1.0103,0.1110
7.1190,-0.2544,1.0103,0.1110
7.1200,-0.2498,1.0201,0.0968
7.1200,-0.2498,1.0201,0.0968
7.1430,-0.2498,1.0201,0.0968
7.1440,-0.2498,1.0201,0.0968
7.1450,-0.2498,1.0201,0.0968
7.1460,-0.2437,1.0328,0.0719
7.1470,-0.2515,1.0294,0.0711
7.1730,-0.2515,1.0294,0.0711
7.1740,-0.2515,1.0294,0.0711
7.1750,-0.2515,1.0294,0.0711
7.1760,-0.2581,1.0215,0.0890
7.1810,-0.2581,1.0215,0.0890
7.1930,-0.2581,1.0215,0.0890
7.1940,-0.2581,1.0215,0.0890
7.1950,-0.2581,1.0215,0.0890
7.1960,-0.2549,1.0201,0.1095
7.1960,-0.2549,1.0201,0.1095
7.2230,-0.2549,1.0201,0.1095
7.2240,-0.2549,1.0201,0.1095
7.2250,-0.2549,1.0201,0.1095
7.2260,-0.2549,1.0208,0.0948
7.2260,-0.2488,1.0291,0.0721
7.2520,-0.2488,1.0291,0.0721
7.2720,-0.2488,1.0291,0.0721
7.2730,-0.2488,1.0291,0.0721
7.2730,-0.2405,1.0345,0.0675
7.2740,-0.2405,1.0345,0.0675
7.2740,-0.2405,1.0345,0.0675
7.2750,-0.2405,1.0345,0.0675
7.2750,-0.2410,1.0294,0.0799
7.2760,-0.2410,1.0294,0.0799
7.3020,-0.2410,1.0294,0.0799
7.3030,-0.2410,1.0294,0.0799
7.3030,-0.2410,1.0294,0.0799
7.3030,-0.2488,1.0225,0.0919
7.3040,-0.2485,1.0206,0.1092
7.3320,-0.2485,1.0206,0.1092
7.3330,-0.2485,1.0206,0.1092
7.3340,-0.2485,1.0206,0.1092
7.3350,-0.2485,1.0242,0.1019
7.3520,-0.2485,1.0242,0.1019
7.3530,-0.2485,1.0242,0.1019
7.3540,-0.2485,1.0242,0.1019
7.3550,-0.2481,1.0279,0.0733
7.3560,-0.2481,1.0279,0.0733
7.3820,-0.2481,1.0279,0.0733
7.3850,-0.2481,1.0279,0.0733
7.3860,-0.2481,1.0279,0.0733
7.3870,-0.2481,1.0279,0.0733
7.3880,-0.2534,1.0306,0.0780
7.3900,-0.2591,1.0240,0.0885
7.4130,-0.2591,1.0240,0.0885
7.4140,-0.2591,1.0240,0.0885
7.4150,-0.2591,1.0240,0.0885
7.4160,-0.2566,1.0193,0.1024
7.4330,-0.2566,1.0193,0.1024
7.4340,-0.2566,1.0193,0.1024
7.4340,-0.2566,1.0193,0.1024
7.4380,-0.2537,1.0174,0.1112
7.4390,-0.2537,1.0174,0.1112
7.4640,-0.2537,1.0174,0.1112
7.4650,-0.2537,1.0174,0.1112
7.4660,-0.2537,1.0174,0.1112
7.4670,-0.2485,1.0159,0.0985
7.4680,-0.2495,1.0218,0.0855
7.4940,-0.2495,1.0218,0.0855
7.4960,-0.2495,1.0218,0.0855
7.4970,-0.2495,1.0218,0.0855
7.4980,-0.2527,1.0291,0.0750
7.5150,-0.2527,1.0291,0.0750
7.5170,-0.2527,1.0291,0.0750
7.5180,-0.2527,1.0291,0.0750
7.5220,-0.2520,1.0330,0.0877
7.5230,-0.2520,1.0330,0.0877
7.5430,-0.2520,1.0330,0.0877
7.5440,-0.2520,1.0330,0.0877
7.5440,-0.2520,1.0330,0.0877
7.5450,-0.2525,1.0262,0.0968
7.5460,-0.2483,1.0174,0.0921
7.5730,-0.2483,1.0174,0.0921
7.5740,-0.2483,1.0174,0.0921
7.5740,-0.2483,1.0174,0.0921
7.5750,-0.2473,1.0193,0.0914
7.5820,-0.2473,1.0193,0.0914
7.5940,-0.2473,1.0193,0.0914
7.5990,-0.2473,1.0193,0.0914
7.6010,-0.2473,1.0193,0.0914
7.6010,-0.2520,1.0252,0.0946
7.6030,-0.2520,1.0252,0.0946
7.6240,-0.2520,1.0252,0.0946
7.6250,-0.2520,1.0252,0.0946
7.6260,-0.2520,1.0252,0.0946
7.6260,-0.2554,1.0313,0.0902
7.6270,-0.2522,1.0279,0.0826
7.6530,-0.2522,1.0279,0.0826
7.6540,-0.2522,1.0279,0.0826
7.6540,-0.2522,1.0279,0.0826
7.6550,-0.2481,1.0213,0.0885
7.6730,-0.2481,1.0213,0.0885
7.6730,-0.2481,1.0213,0.0885
7.6740,-0.2481,1.0213,0.0885
7.6740,-0.2463,1.0218,0.0926
7.6740,-0.2463,1.0218,0.0926
7.7020,-0.2463,1.0218,0.0926
7.7020,-0.2463,1.0218,0.0926
7.7030,-0.2463,1.0218,0.0926
7.7030,-0.2441,1.0281,0.0904
7.7030,-0.2390,1.0286,0.0890
7.7330,-0.2390,1.0286,0.0890
7.7340,-0.2390,1.0286,0.0890
7.7350,-0.2390,1.0286,0.0890
7.7360,-0.2437,1.0247,0.0946
7.7530,-0.2437,1.0247,0.0946
7.7560,-0.2437,1.0247,0.0946
7.7570,-0.2437,1.0247,0.0946
7.7580,-0.2551,1.0281,0.0914
7.7590,-0.2551,1.0281,0.0914
7.7850,-0.2551,1.0281,0.0914
7.7860,-0.2551,1.0281,0.0914
7.7860,-0.2551,1.0281,0.0914
7.7870,-0.2551,1.0281,0.0914
7.7870,-0.2698,1.0193,0.0811
7.7880,-0.2691,1.0176,0.0943
7.8260,-0.2691,1.0176,0.0943
7.8260,-0.2691,1.0176,0.0943
7.8270,-0.2691,1.0176,0.0943
7.8270,-0.2610,1.0255,0.0860
7.8310,-0.2610,1.0255,0.0860
7.8320,-0.2610,1.0255,0.0860
7.8330,-0.2610,1.0255,0.0860
7.8330,-0.2561,1.0272,0.0855
7.8330,-0.2561,1.0272,0.0855
7.8620,-0.2561,1.0272,0.0855
7.8620,-0.2561,1.0272,0.0855
7.8620,-0.2561,1.0272,0.0855
7.8630,-0.2529,1.0247,0.0953
7.8630,-0.2522,1.0225,0.0890
7.8920,-0.2522,1.0225,0.0890
7.8930,-0.2522,1.0225,0.0890
7.8940,-0.2522,1.0225,0.0890
7.8940,-0.2588,1.0193,0.0802
7.9130,-0.2588,1.0193,0.0802
7.9130,-0.2588,1.0193,0.0802
7.9140,-0.2588,1.0193,0.0802
7.9140,-0.2591,1.0264,0.0877
7.9150,-0.2591,1.0264,0.0877
7.9440,-0.2591,1.0264,0.0877
7.9440,-0.2591,1.0264,0.0877
7.9450,-0.2591,1.0264,0.0877
7.9460,-0.2507,1.0303,0.0892
7.9460,-0.2434,1.0274,0.0872
7.9730,-0.2434,1.0274,0.0872
7.9740,-0.2434,1.0274,0.0872
7.9750,-0.2434,1.0274,0.0872
7.9760,-0.2490,1.0201,0.0885
7.9820,-0.2490,1.0201,0.0885
7.9950,-0.2490,1.0201,0.0885
7.9960,-0.2490,1.0201,0.0885
7.9970,-0.2490,1.0201,0.0885
8.0000,-0.2488,1.0193,0.0890
8.0000,-0.2488,1.0193,0.0890
8.0230,-0.2488,1.0193,0.0890
8.0240,-0.2488,1.0193,0.0890
8.0250,-0.2488,1.0193,0.0890
8.0270,-0.2422,1.0279,0.0855
8.0280,-0.2485,1.0338,0.0848
8.0570,-0.2485,1.0338,0.0848
8.0570,-0.2485,1.0338,0.0848
8.0580,-0.2485,1.0338,0.0848
8.0600,-0.2676,1.0191,0.0997
8.0760,-0.2676,1.0191,0.0997
8.0770,-0.2676,1.0191,0.0997
8.0770,-0.2676,1.0191,0.0997
8.0780,-0.2803,1.0040,0.1210
8.0790,-0.2803,1.0040,0.1210
8.1080,-0.2803,1.0040,0.1210
8.1130,-0.2803,1.0040,0.1210
8.1140,-0.2803,1.0040,0.1210
8.1140,-0.2705,1.0128,0.1022
8.1160,-0.2588,1.0365,0.0723
8.1340,-0.2588,1.0365,0.0723
8.1350,-0.2588,1.0365,0.0723
8.1360,-0.2588,1.0365,0.0723
8.1370,-0.2576,1.0379,0.0789
8.1580,-0.2576,1.0379,0.0789
8.1600,-0.2576,1.0379,0.0789
8.1610,-0.2576,1.0379,0.0789
8.1620,-0.2605,1.0179,0.0997
8.1620,-0.2605,1.0179,0.0997
8.1820,-0.2605,1.0179,0.0997
8.1850,-0.2605,1.0179,0.0997
8.1860,-0.2605,1.0179,0.0997
8.1870,-0.2605,1.0179,0.0997
8.1870,-0.2527,1.0181,0.0926
8.1880,-0.2427,1.0272,0.0780
8.2180,-0.2427,1.0272,0.0780
8.2200,-0.2427,1.0272,0.0780
8.2200,-0.2427,1.0272,0.0780
8.2210,-0.2383,1.0311,0.0870
8.2370,-0.2383,1.0311,0.0870
8.2380,-0.2383,1.0311,0.0870
8.2390,-0.2383,1.0311,0.0870
8.2400,-0.2397,1.0252,0.0963
8.2410,-0.2397,1.0252,0.0963
8.2640,-0.2397,1.0252,0.0963
8.2650,-0.2397,1.0252,0.0963
8.2660,-0.2397,1.0252,0.0963
8.2660,-0.2495,1.0203,0.0892
8.2670,-0.2586,1.0257,0.0872
8.3010,-0.2586,1.0257,0.0872
8.3030,-0.2586,1.0257,0.0872
8.3040,-0.2586,1.0257,0.0872
8.3040,-0.2610,1.0311,0.0907
8.3160,-0.2610,1.0311,0.0907
8.3170,-0.2610,1.0311,0.0907
8.3180,-0.2610,1.0311,0.0907
8.3180,-0.2617,1.0277,0.0799
8.3190,-0.2617,1.0277,0.0799
8.3440,-0.2617,1.0277,0.0799
8.3440,-0.2617,1.0277,0.0799
8.3450,-0.2617,1.0277,0.0799
8.3460,-0.2564,1.0189,0.0814
8.3460,-0.2478,1.0201,0.1070
8.3730,-0.2478,1.0201,0.1070
8.3730,-0.2478,1.0201,0.1070
8.3740,-0.2478,1.0201,0.1070
8.3740,-0.2471,1.0225,0.0941
8.3840,-0.2471,1.0225,0.0941
8.3960,-0.2471,1.0225,0.0941
8.3970,-0.2471,1.0225,0.0941
8.3980,-0.2471,1.0225,0.0941
8.3990,-0.2500,1.0272,0.0838
8.4000,-0.2500,1.0272,0.0838
8.4260,-0.2500,1.0272,0.0838
8.4270,-0.2500,1.0272,0.0838
8.4280,-0.2500,1.0272,0.0838
8.4280,-0.2505,1.0325,0.0809
8.4290,-0.2483,1.0352,0.0721
8.4590,-0.2483,1.0352,0.0721
8.4610,-0.2483,1.0352,0.0721
8.4620,-0.2483,1.0352,0.0721
8.4640,-0.2527,1.0240,0.0870
8.4770,-0.2527,1.0240,0.0870
8.4770,-0.2527,1.0240,0.0870
8.4780,-0.2527,1.0240,0.0870
8.4790,-0.2534,1.0123,0.1048
8.4800,-0.2534,1.0123,0.1048
8.5050,-0.2534,1.0123,0.1048
8.5060,-0.2534,1.0123,0.1048
8.5070,-0.2534,1.0123,0.1048
8.5080,-0.2490,1.0186,0.0953
8.5090,-0.2493,1.0301,0.0831
8.5360,-0.2493,1.0301,0.0831
8.5370,-0.2493,1.0301,0.0831
8.5370,-0.2493,1.0301,0.0831
8.5380,-0.2507,1.0325,0.0819
8.5570,-0.2507,1.0325,0.0819
8.5580,-0.2507,1.0325,0.0819
8.5590,-0.2507,1.0325,0.0819
8.5590,-0.2525,1.0242,0.0951
8.5600,-0.2525,1.0242,0.0951
8.5820,-0.2525,1.0242,0.0951
8.5860,-0.2525,1.0242,0.0951
8.5860,-0.2525,1.0242,0.0951
8.5870,-0.2525,1.0242,0.0951
8.5870,-0.2551,1.0247,0.0992
8.5880,-0.2581,1.0262,0.0848
8.5880,-0.2581,1.0262,0.0848
8.6150,-0.2581,1.0262,0.0848
8.6160,-0.2581,1.0262,0.0848
8.6160,-0.2581,1.0262,0.0848
8.6170,-0.2495,1.0228,0.0897
8.6360,-0.2495,1.0228,0.0897
8.6360,-0.2495,1.0228,0.0897
8.6370,-0.2495,1.0228,0.0897
8.6380,-0.2373,1.0172,0.0916
8.6390,-0.2373,1.0172,0.0916
8.6640,-0.2373,1.0172,0.0916
8.6650,-0.2373,1.0172,0.0916
8.6660,-0.2373,1.0172,0.0916
8.6670,-0.2373,1.0159,0.0946
8.6670,-0.2378,1.0250,0.0916
8.6960,-0.2378,1.0250,0.0916
8.6970,-0.2378,1.0250,0.0916
8.6980,-0.2378,1.0250,0.0916
8.6990,-0.2402,1.0421,0.0631
8.7160,-0.2402,1.0421,0.0631
8.7170,-0.2402,1.0421,0.0631
8.7180,-0.2402,1.0421,0.0631
8.7190,-0.2495,1.0335,0.0806
8.7200,-0.2495,1.0335,0.0806
8.7450,-0.2495,1.0335,0.0806
8.7460,-0.2495,1.0335,0.0806
8.7470,-0.2495,1.0335,0.0806
8.7480,-0.2591,1.0125,0.1154
8.7490,-0.2647,1.0191,0.0985
8.7770,-0.2647,1.0191,0.0985
8.7780,-0.2647,1.0191,0.0985
8.7800,-0.2647,1.0191,0.0985
8.7810,-0.2661,1.0301,0.0745
8.7820,-0.2661,1.0301,0.0745
8.7960,-0.2661,1.0301,0.0745
8.7970,-0.2661,1.0301,0.0745
8.7980,-0.2661,1.0301,0.0745
8.7980,-0.2620,1.0264,0.0916
8.7990,-0.2620,1.0264,0.0916
8.8250,-0.2620,1.0264,0.0916
8.8270,-0.2620,1.0264,0.0916
8.8280,-0.2620,1.0264,0.0916
8.8310,-0.2566,1.0206,0.0997
8.8320,-0.2507,1.0215,0.0931
8.8550,-0.2507,1.0215,0.0931
8.8560,-0.2507,1.0215,0.0931
8.8600,-0.2507,1.0215,0.0931
8.8610,-0.2485,1.0201,0.0938
8.8770,-0.2485,1.0201,0.0938
8.8780,-0.2485,1.0201,0.0938
8.8790,-0.2485,1.0201,0.0938
8.8800,-0.2493,1.0252,0.0777
8.8810,-0.2493,1.0252,0.0777
8.8810,-0.2493,1.0252,0.0777
8.9070,-0.2493,1.0252,0.0777
8.9080,-0.2493,1.0252,0.0777
8.9320,-0.2493,1.0252,0.0777
8.9330,-0.2485,1.0311,0.0706
8.9340,-0.2488,1.0247,0.0912
8.9350,-0.2488,1.0247,0.0912
8.9390,-0.2488,1.0247,0.0912
8.9400,-0.2488,1.0247,0.0912
8.9400,-0.2495,1.0225,0.0936
8.9530,-0.2495,1.0225,0.0936
8.9540,-0.2495,1.0225,0.0936
8.9550,-0.2495,1.0225,0.0936
8.9550,-0.2507,1.0245,0.0897
8.9550,-0.2507,1.0245,0.0897
8.9800,-0.2507,1.0245,0.0897
8.9850,-0.2507,1.0245,0.0897
8.9850,-0.2507,1.0245,0.0897
8.9860,-0.2507,1.0245,0.0897
8.9860,-0.2551,1.0240,0.0868
8.9860,-0.2600,1.0191,0.0880
9.0140,-0.2600,1.0191,0.0880
9.0140,-0.2600,1.0191,0.0880
9.0150,-0.2600,1.0191,0.0880
9.0150,-0.2583,1.0174,0.0953
9.0330,-0.2583,1.0174,0.0953
9.0340,-0.2583,1.0174,0.0953
9.0360,-0.2583,1.0174,0.0953
9.0370,-0.2637,1.0259,0.0936
9.0380,-0.2637,1.0259,0.0936
9.0650,-0.2637,1.0259,0.0936
9.0660,-0.2637,1.0259,0.0936
9.0670,-0.2637,1.0259,0.0936
9.0680,-0.2671,1.0252,0.0797
9.0690,-0.2639,1.0208,0.0831
9.0960,-0.2639,1.0208,0.0831
9.0970,-0.2639,1.0208,0.0831
9.0970,-0.2639,1.0208,0.0831
9.0980,-0.2625,1.0237,0.0968
9.1190,-0.2625,1.0237,0.0968
9.1200,-0.2625,1.0237,0.0968
9.1210,-0.2625,1.0237,0.0968
9.1220,-0.2598,1.0203,0.0943
9.1220,-0.2598,1.0203,0.0943
9.1450,-0.2598,1.0203,0.0943
9.1450,-0.2598,1.0203,0.0943
9.1460,-0.2598,1.0203,0.0943
9.1470,-0.2515,1.0142,0.0956
9.1470,-0.2493,1.0279,0.0855
9.1760,-0.2493,1.0279,0.0855
9.1770,-0.2493,1.0279,0.0855
9.1780,-0.2493,1.0279,0.0855
9.1800,-0.2551,1.0299,0.0753
9.1870,-0.2551,1.0299,0.0753
9.1880,-0.2551,1.0299,0.0753
9.1960,-0.2551,1.0299,0.0753
9.1970,-0.2551,1.0299,0.0753
9.1980,-0.2551,1.0299,0.0753
9.1980,-0.2639,1.0159,0.1017
9.1990,-0.2639,1.0159,0.1017
9.2250,-0.2639,1.0159,0.1017
9.2260,-0.2639,1.0159,0.1017
9.2270,-0.2639,1.0159,0.1017
9.2270,-0.2642,1.0130,0.1080
9.2280,-0.2547,1.0220,0.0931
9.2550,-0.2547,1.0220,0.0931
9.2570,-0.2547,1.0220,0.0931
9.2580,-0.2547,1.0220,0.0931
9.2590,-0.2498,1.0301,0.0826
9.2790,-0.2498,1.0301,0.0826
9.2800,-0.2498,1.0301,0.0826
9.2810,-0.2498,1.0301,0.0826
9.2820,-0.2556,1.0218,0.0865
9.2820,-0.2556,1.0218,0.0865
9.3050,-0.2556,1.0218,0.0865
9.3060,-0.2556,1.0218,0.0865
9.3070,-0.2556,1.0218,0.0865
9.3070,-0.2622,1.0140,0.1063
9.3080,-0.2625,1.0228,0.0963
9.3350,-0.2625,1.0228,0.0963
9.3360,-0.2625,1.0228,0.0963
9.3370,-0.2625,1.0228,0.0963
9.3380,-0.2549,1.0321,0.0855
9.3570,-0.2549,1.0321,0.0855
9.3580,-0.2549,1.0321,0.0855
9.3590,-0.2549,1.0321,0.0855
9.3600,-0.2527,1.0255,0.0980
9.3610,-0.2527,1.0255,0.0980
9.3820,-0.2527,1.0255,0.0980
9.3880,-0.2527,1.0255,0.0980
9.3920,-0.2527,1.0255,0.0980
9.3960,-0.2527,1.0255,0.0980
9.3960,-0.2581,1.0169,0.1024
9.3970,-0.2581,1.0179,0.0938
9.4170,-0.2581,1.0179,0.0938
9.4180,-0.2581,1.0179,0.0938
9.4180,-0.2581,1.0179,0.0938
9.4190,-0.2512,1.0301,0.0877
9.4370,-0.2512,1.0301,0.0877
9.4380,-0.2512,1.0301,0.0877
9.4400,-0.2512,1.0301,0.0877
9.4410,-0.2463,1.0340,0.0784
9.4420,-0.2463,1.0340,0.0784
9.4650,-0.2463,1.0340,0.0784
9.4650,-0.2463,1.0340,0.0784
9.4660,-0.2463,1.0340,0.0784
9.4670,-0.2471,1.0211,0.0912
9.4680,-0.2478,1.0130,0.1075
9.4960,-0.2478,1.0130,0.1075
9.4970,-0.2478,1.0130,0.1075
9.4980,-0.2478,1.0130,0.1075
9.4990,-0.2534,1.0237,0.0982
9.5170,-0.2534,1.0237,0.0982
9.5170,-0.2534,1.0237,0.0982
9.5180,-0.2534,1.0237,0.0982
9.5180,-0.2539,1.0345,0.0794
9.5190,-0.2539,1.0345,0.0794
9.5450,-0.2539,1.0345,0.0794
9.5460,-0.2539,1.0345,0.0794
9.5470,-0.2539,1.0345,0.0794
9.5480,-0.2542,1.0235,0.0848
9.5480,-0.2527,1.0179,0.0946
9.5810,-0.2527,1.0179,0.0946
9.5820,-0.2527,1.0179,0.0946
9.5830,-0.2527,1.0179,0.0946
9.5840,-0.2520,1.0237,0.0919
9.5840,-0.2520,1.0237,0.0919
9.5970,-0.2520,1.0237,0.0919
9.5980,-0.2520,1.0237,0.0919
9.5980,-0.2520,1.0237,0.0919
9.5990,-0.2525,1.0296,0.0970
9.6000,-0.2525,1.0296,0.0970
9.6260,-0.2525,1.0296,0.0970
9.6260,-0.2525,1.0296,0.0970
9.6270,-0.2525,1.0296,0.0970
9.6270,-0.2444,1.0252,0.0956
9.6280,-0.2361,1.0176,0.0956
9.6570,-0.2361,1.0176,0.0956
9.6580,-0.2361,1.0176,0.0956
9.6590,-0.2361,1.0176,0.0956
9.6600,-0.2459,1.0198,0.0985
9.6770,-0.2459,1.0198,0.0985
9.6770,-0.2459,1.0198,0.0985
9.6780,-0.2459,1.0198,0.0985
9.6790,-0.2610,1.0286,0.0924
9.6790,-0.2610,1.0286,0.0924
9.7070,-0.2610,1.0286,0.0924
9.7080,-0.2610,1.0286,0.0924
9.7090,-0.2610,1.0286,0.0924
9.7090,-0.2615,1.0313,0.0924
9.7100,-0.2559,1.0237,0.0980
9.7360,-0.2559,1.0237,0.0980
9.7370,-0.2559,1.0237,0.0980
9.7390,-0.2559,1.0237,0.0980
9.7400,-0.2525,1.0218,0.0978
9.7560,-0.2525,1.0218,0.0978
9.7570,-0.2525,1.0218,0.0978
9.7570,-0.2525,1.0218,0.0978
9.7580,-0.2495,1.0237,0.0938
9.7590,-0.2495,1.0237,0.0938
9.7820,-0.2495,1.0237,0.0938
9.7870,-0.2495,1.0237,0.0938
9.7880,-0.2495,1.0237,0.0938
9.7890,-0.2495,1.0237,0.0938
9.7890,-0.2522,1.0225,0.0921
9.7900,-0.2542,1.0230,0.1007
9.8170,-0.2542,1.0230,0.1007
9.8180,-0.2542,1.0230,0.1007
9.8190,-0.2542,1.0230,0.1007
9.8200,-0.2468,1.0223,0.0943
9.8370,-0.2468,1.0223,0.0943
9.8380,-0.2468,1.0223,0.0943
9.8380,-0.2468,1.0223,0.0943
9.8390,-0.2417,1.0257,0.0789
9.8390,-0.2417,1.0257,0.0789
9.8670,-0.2417,1.0257,0.0789
9.8680,-0.2417,1.0257,0.0789
9.8690,-0.2417,1.0257,0.0789
9.8690,-0.2481,1.0284,0.0870
9.8700,-0.2600,1.0201,0.0997
9.9000,-0.2600,1.0201,0.0997
9.9010,-0.2600,1.0201,0.0997
9.9020,-0.2600,1.0201,0.0997
9.9070,-0.2571,1.0206,0.1012
9.9180,-0.2571,1.0206,0.1012
9.9190,-0.2571,1.0206,0.1012
9.9200,-0.2571,1.0206,0.1012
9.9200,-0.2505,1.0269,0.0828
9.9210,-0.2505,1.0269,0.0828
9.9460,-0.2505,1.0269,0.0828
9.9460,-0.2505,1.0269,0.0828
9.9470,-0.2505,1.0269,0.0828
9.9470,-0.2512,1.0267,0.0880
9.9480,-0.2517,1.0264,0.0975
9.9770,-0.2517,1.0264,0.0975
9.9780,-0.2517,1.0264,0.0975
9.9790,-0.2517,1.0264,0.0975
9.9800,-0.2510,1.0237,0.0912
9.9840,-0.2510,1.0237,0.0912
9.9980,-0.2510,1.0237,0.0912
9.9990,-0.2510,1.0237,0.0912
10.0000,-0.2510,1.0237,0.0912
10.0000,-0.2549,1.0225,0.0912
10.0200,-0.2549,1.0225,0.0912
10.0260,-0.2549,1.0225,0.0912
10.0270,-0.2549,1.0225,0.0912
10.0280,-0.2549,1.0225,0.0912
10.0280,-0.2566,1.0267,0.0887
10.0290,-0.2515,1.0289,0.0880
10.0530,-0.2515,1.0289,0.0880
10.0540,-0.2515,1.0289,0.0880
10.0540,-0.2515,1.0289,0.0880
10.0540,-0.2437,1.0193,0.0841
10.0740,-0.2437,1.0193,0.0841
10.0750,-0.2437,1.0193,0.0841
10.0760,-0.2437,1.0193,0.0841
10.0760,-0.2444,1.0162,0.0887
10.0760,-0.2444,1.0162,0.0887
10.1050,-0.2444,1.0162,0.0887
10.1060,-0.2444,1.0162,0.0887
10.1070,-0.2444,1.0162,0.0887
10.1080,-0.2424,1.0215,0.0924
10.1080,-0.2437,1.0284,0.0843
10.1410,-0.2437,1.0284,0.0843
10.1430,-0.2437,1.0284,0.0843
10.1440,-0.2437,1.0284,0.0843
10.1450,-0.2517,1.0247,0.0855
10.1560,-0.2517,1.0247,0.0855
10.1570,-0.2517,1.0247,0.0855
10.1580,-0.2517,1.0247,0.0855
10.1590,-0.2627,1.0181,0.0970
10.1600,-0.2627,1.0181,0.0970
10.1830,-0.2627,1.0181,0.0970
10.1880,-0.2627,1.0181,0.0970
10.1890,-0.2627,1.0181,0.0970
10.1910,-0.2627,1.0181,0.0970
10.1910,-0.2647,1.0198,0.0931
10.1930,-0.2554,1.0313,0.0833
10.2200,-0.2554,1.0313,0.0833
10.2210,-0.2554,1.0313,0.0833
10.2220,-0.2554,1.0313,0.0833
10.2220,-0.2456,1.0247,0.0858
10.2380,-0.2456,1.0247,0.0858
10.2390,-0.2456,1.0247,0.0858
10.2400,-0.2456,1.0247,0.0858
10.2410,-0.2424,1.0120,0.1019
10.2420,-0.2424,1.0120,0.1019
10.2670,-0.2424,1.0120,0.1019
10.2680,-0.2424,1.0120,0.1019
10.2680,-0.2424,1.0120,0.1019
10.2690,-0.2471,1.0164,0.1009
10.2700,-0.2500,1.0325,0.0848
10.2980,-0.2500,1.0325,0.0848
10.2990,-0.2500,1.0325,0.0848
10.3000,-0.2500,1.0325,0.0848
10.3000,-0.2476,1.0338,0.0782
10.3160,-0.2476,1.0338,0.0782
10.3170,-0.2476,1.0338,0.0782
10.3180,-0.2476,1.0338,0.0782
10.3180,-0.2459,1.0220,0.0870
10.3200,-0.2459,1.0220,0.0870
10.3480,-0.2459,1.0220,0.0870
10.3490,-0.2459,1.0220,0.0870
10.3500,-0.2459,1.0220,0.0870
10.3510,-0.2424,1.0252,0.0875
10.3520,-0.2441,1.0225,0.0902
10.3780,-0.2441,1.0225,0.0902
10.3800,-0.2441,1.0225,0.0902
10.3800,-0.2441,1.0225,0.0902
10.3810,-0.2507,1.0164,0.0995
10.3820,-0.2507,1.0164,0.0995
10.3960,-0.2507,1.0164,0.0995
10.3970,-0.2507,1.0164,0.0995
10.3980,-0.2507,1.0164,0.0995
10.3990,-0.2559,1.0235,0.0978
10.4000,-0.2559,1.0235,0.0978
10.4270,-0.2559,1.0235,0.0978
10.4270,-0.2559,1.0235,0.0978
10.4280,-0.2559,1.0235,0.0978
10.4280,-0.2583,1.0269,0.0926
10.4290,-0.2632,1.0252,0.0904
10.4560,-0.2632,1.0252,0.0904
10.4570,-0.2632,1.0252,0.0904
10.4580,-0.2632,1.0252,0.0904
10.4590,-0.2603,1.0274,0.0858
10.4770,-0.2603,1.0274,0.0858
10.4780,-0.2603,1.0274,0.0858
10.4790,-0.2603,1.0274,0.0858
10.4800,-0.2454,1.0252,0.0907
10.4810,-0.2454,1.0252,0.0907
10.5060,-0.2454,1.0252,0.0907
10.5070,-0.2454,1.0252,0.0907
10.5070,-0.2454,1.0252,0.0907
10.5090,-0.2385,1.0240,0.1041
10.5160,-0.2410,1.0225,0.0921
10.5400,-0.2410,1.0225,0.0921
10.5410,-0.2410,1.0225,0.0921
10.5420,-0.2410,1.0225,0.0921
10.5430,-0.2444,1.0262,0.0860
10.5590,-0.2444,1.0262,0.0860
10.5600,-0.2444,1.0262,0.0860
10.5600,-0.2444,1.0262,0.0860
10.5610,-0.2439,1.0330,0.0875
10.5810,-0.2439,1.0330,0.0875
10.5810,-0.2439,1.0330,0.0875
10.5870,-0.2439,1.0330,0.0875
10.5880,-0.2439,1.0330,0.0875
10.5880,-0.2439,1.0330,0.0875
10.5880,-0.2495,1.0296,0.0865
10.5890,-0.2520,1.0218,0.0985
10.6150,-0.2520,1.0218,0.0985
10.6160,-0.2520,1.0218,0.0985
10.6170,-0.2520,1.0218,0.0985
10.6170,-0.2532,1.0201,0.1034
10.6370,-0.2532,1.0201,0.1034
10.6370,-0.2532,1.0201,0.1034
10.6380,-0.2532,1.0201,0.1034
10.6380,-0.2529,1.0277,0.0934
10.6390,-0.2529,1.0277,0.0934
10.6660,-0.2529,1.0277,0.0934
10.6660,-0.2529,1.0277,0.0934
10.6660,-0.2529,1.0277,0.0934
10.6670,-0.2529,1.0330,0.0931
10.6670,-0.2520,1.0245,0.0958
10.6970,-0.2520,1.0245,0.0958
10.6980,-0.2520,1.0245,0.0958
10.6980,-0.2520,1.0245,0.0958
10.7000,-0.2476,1.0230,0.0855
10.7170,-0.2476,1.0230,0.0855
10.7170,-0.2476,1.0230,0.0855
10.7180,-0.2476,1.0230,0.0855
10.7180,-0.2503,1.0225,0.0894
10.7190,-0.2503,1.0225,0.0894
10.7470,-0.2503,1.0225,0.0894
10.7470,-0.2503,1.0225,0.0894
10.7480,-0.2503,1.0225,0.0894
10.7480,-0.2549,1.0176,0.0953
10.7490,-0.2532,1.0230,0.0938
10.7790,-0.2532,1.0230,0.0938
10.7800,-0.2532,1.0230,0.0938
10.7810,-0.2532,1.0230,0.0938
10.7830,-0.2466,1.0257,0.0919
10.7850,-0.2466,1.0257,0.0919
10.8000,-0.2466,1.0257,0.0919
10.8030,-0.2466,1.0257,0.0919
10.8040,-0.2466,1.0257,0.0919
10.8050,-0.2441,1.0274,0.0836
10.8060,-0.2441,1.0274,0.0836
10.8260,-0.2441,1.0274,0.0836
10.8270,-0.2441,1.0274,0.0836
10.8280,-0.2441,1.0274,0.0836
10.8310,-0.2419,1.0294,0.0733
10.8320,-0.2488,1.0233,0.0846
10.8580,-0.2488,1.0233,0.0846
10.8590,-0.2488,1.0233,0.0846
10.8600,-0.2488,1.0233,0.0846
10.8610,-0.2559,1.0135,0.1024
10.8770,-0.2559,1.0135,0.1024
10.8780,-0.2559,1.0135,0.1024
10.8790,-0.2559,1.0135,0.1024
10.8800,-0.2576,1.0164,0.0970
10.8810,-0.2576,1.0164,0.0970
10.9060,-0.2576,1.0164,0.0970
10.9070,-0.2576,1.0164,0.0970
10.9070,-0.2576,1.0164,0.0970
10.9080,-0.2578,1.0296,0.0780
10.9090,-0.2573,1.0335,0.0777
10.9380,-0.2573,1.0335,0.0777
10.9390,-0.2573,1.0335,0.0777
10.9400,-0.2573,1.0335,0.0777
10.9410,-0.2583,1.0259,0.0953
10.9580,-0.2583,1.0259,0.0953
10.9580,-0.2583,1.0259,0.0953
10.9600,-0.2583,1.0259,0.0953
10.9610,-0.2561,1.0186,0.1036
10.9620,-0.2561,1.0186,0.1036
10.9820,-0.2561,1.0186,0.1036
10.9890,-0.2561,1.0186,0.1036
10.9900,-0.2561,1.0186,0.1036
10.9910,-0.2561,1.0186,0.1036
10.9910,-0.2559,1.0208,0.0956
10.9920,-0.2564,1.0257,0.0824
11.0180,-0.2564,1.0257,0.0824
11.0200,-0.2564,1.0257,0.0824
11.0210,-0.2564,1.0257,0.0824
11.0220,-0.2500,1.0284,0.0806
11.0380,-0.2500,1.0284,0.0806
11.0390,-0.2500,1.0284,0.0806
11.0400,-0.2500,1.0284,0.0806
11.0410,-0.2490,1.0215,0.0951
11.0410,-0.2490,1.0215,0.0951
11.0700,-0.2490,1.0215,0.0951
11.0710,-0.2490,1.0215,0.0951
11.0720,-0.2490,1.0215,0.0951
11.0720,-0.2532,1.0218,0.1009
11.0730,-0.2510,1.0230,0.0909
11.0980,-0.2510,1.0230,0.0909
11.1000,-0.2510,1.0230,0.0909
11.1010,-0.2510,1.0230,0.0909
11.1020,-0.2498,1.0255,0.0824
11.1180,-0.2498,1.0255,0.0824
11.1200,-0.2498,1.0255,0.0824
11.1210,-0.2498,1.0255,0.0824
11.1430,-0.2571,1.0245,0.0843
11.1440,-0.2571,1.0245,0.0843
11.1470,-0.2571,1.0245,0.0843
11.1480,-0.2571,1.0245,0.0843
11.1480,-0.2571,1.0245,0.0843
11.1480,-0.2625,1.0201,0.1019
11.1490,-0.2666,1.0218,0.1063
11.1760,-0.2666,1.0218,0.1063
11.1760,-0.2666,1.0218,0.1063
11.1770,-0.2666,1.0218,0.1063
11.1770,-0.2569,1.0289,0.0890
11.1810,-0.2569,1.0289,0.0890
11.1960,-0.2569,1.0289,0.0890
11.1960,-0.2569,1.0289,0.0890
11.1970,-0.2569,1.0289,0.0890
11.1970,-0.2515,1.0274,0.0799
11.1970,-0.2515,1.0274,0.0799
11.2270,-0.2515,1.0274,0.0799
11.2280,-0.2515,1.0274,0.0799
11.2280,-0.2515,1.0274,0.0799
11.2290,-0.2500,1.0228,0.1004
11.2290,-0.2505,1.0167,0.1092
11.2560,-0.2505,1.0167,0.1092
11.2570,-0.2505,1.0167,0.1092
11.2580,-0.2505,1.0167,0.1092
11.2580,-0.2498,1.0176,0.1034
11.2770,-0.2498,1.0176,0.1034
11.2820,-0.2498,1.0176,0.1034
11.2830,-0.2498,1.0176,0.1034
11.2840,-0.2468,1.0306,0.0848
11.2850,-0.2468,1.0306,0.0848
11.3070,-0.2468,1.0306,0.0848
11.3070,-0.2468,1.0306,0.0848
11.3080,-0.2468,1.0306,0.0848
11.3080,-0.2549,1.0313,0.0748
11.3090,-0.2578,1.0250,0.0953
11.3360,-0.2578,1.0250,0.0953
11.3360,-0.2578,1.0250,0.0953
11.3370,-0.2578,1.0250,0.0953
11.3400,-0.2537,1.0240,0.1029
11.3590,-0.2537,1.0240,0.1029
11.3610,-0.2537,1.0240,0.1029
11.3620,-0.2537,1.0240,0.1029
11.3620,-0.2527,1.0159,0.0902
11.3630,-0.2527,1.0159,0.0902
11.3830,-0.2527,1.0159,0.0902
11.3880,-0.2527,1.0159,0.0902
11.3880,-0.2527,1.0159,0.0902
11.3890,-0.2527,1.0159,0.0902
11.3890,-0.2564,1.0115,0.0951
11.3900,-0.2566,1.0242,0.0916
11.4170,-0.2566,1.0242,0.0916
11.4180,-0.2566,1.0242,0.0916
11.4190,-0.2566,1.0242,0.0916
11.4200,-0.2512,1.0367,0.0894
11.4380,-0.2512,1.0367,0.0894
11.4390,-0.2512,1.0367,0.0894
11.4400,-0.2512,1.0367,0.0894
11.4410,-0.2498,1.0294,0.0934
11.4420,-0.2498,1.0294,0.0934
11.4680,-0.2498,1.0294,0.0934
11.4690,-0.2498,1.0294,0.0934
11.4690,-0.2498,1.0294,0.0934
11.4700,-0.2503,1.0176,0.0970
11.4710,-0.2534,1.0176,0.0958
11.4990,-0.2534,1.0176,0.0958
11.5000,-0.2534,1.0176,0.0958
11.5010,-0.2534,1.0176,0.0958
11.5020,-0.2510,1.0264,0.0882
11.5170,-0.2510,1.0264,0.0882
11.5180,-0.2510,1.0264,0.0882
11.5190,-0.2510,1.0264,0.0882
11.5190,-0.2407,1.0321,0.0924
11.5200,-0.2407,1.0321,0.0924
11.5470,-0.2407,1.0321,0.0924
11.5480,-0.2407,1.0321,0.0924
11.5490,-0.2407,1.0321,0.0924
11.5490,-0.2339,1.0257,0.0916
11.5490,-0.2353,1.0252,0.1024
11.5790,-0.2353,1.0252,0.1024
11.5800,-0.2353,1.0252,0.1024
11.5800,-0.2353,1.0252,0.1024
11.5820,-0.2498,1.0264,0.0953
11.5820,-0.2498,1.0264,0.0953
11.5990,-0.2498,1.0264,0.0953
11.6010,-0.2498,1.0264,0.0953
11.6010,-0.2498,1.0264,0.0953
11.6020,-0.2537,1.0242,0.0916
11.6030,-0.2537,1.0242,0.0916
11.6280,-0.2537,1.0242,0.0916
11.6290,-0.2537,1.0242,0.0916
11.6300,-0.2537,1.0242,0.0916
11.6310,-0.2451,1.0186,0.1053
11.6320,-0.2468,1.0225,0.0941
11.6580,-0.2468,1.0225,0.0941
11.6590,-0.2468,1.0225,0.0941
11.6590,-0.2468,1.0225,0.0941
11.6600,-0.2564,1.0203,0.1024
11.6800,-0.2564,1.0203,0.1024
11.6830,-0.2564,1.0203,0.1024
11.7050,-0.2564,1.0203,0.1024
11.7060,-0.2532,1.0237,0.1058
11.7070,-0.2532,1.0237,0.1058
11.7070,-0.2532,1.0237,0.1058
11.7070,-0.2532,1.0237,0.1058
11.7080,-0.2532,1.0237,0.1058
11.7080,-0.2505,1.0299,0.0904
11.7080,-0.2561,1.0267,0.0990
11.7360,-0.2561,1.0267,0.0990
11.7370,-0.2561,1.0267,0.0990
11.7370,-0.2561,1.0267,0.0990
11.7380,-0.2525,1.0201,0.1053
11.7580,-0.2525,1.0201,0.1053
11.7590,-0.2525,1.0201,0.1053
11.7600,-0.2525,1.0201,0.1053
11.7610,-0.2446,1.0252,0.0978
11.7620,-0.2446,1.0252,0.0978
11.7820,-0.2446,1.0252,0.0978
11.7880,-0.2446,1.0252,0.0978
11.7880,-0.2446,1.0252,0.0978
11.7890,-0.2446,1.0252,0.0978
11.7900,-0.2380,1.0321,0.0904
11.7900,-0.2432,1.0259,0.0919
11.8180,-0.2432,1.0259,0.0919
11.8190,-0.2432,1.0259,0.0919
11.8190,-0.2432,1.0259,0.0919
11.8200,-0.2485,1.0257,0.0924
11.8400,-0.2485,1.0257,0.0924
11.8410,-0.2485,1.0257,0.0924
11.8410,-0.2485,1.0257,0.0924
11.8420,-0.2478,1.0262,0.0936
11.8420,-0.2478,1.0262,0.0936
11.8680,-0.2478,1.0262,0.0936
11.8700,-0.2478,1.0262,0.0936
11.8720,-0.2478,1.0262,0.0936
11.8730,-0.2495,1.0213,0.1022
11.8740,-0.2451,1.0257,0.0963
11.9000,-0.2451,1.0257,0.0963
11.9010,-0.2451,1.0257,0.0963
11.9020,-0.2451,1.0257,0.0963
11.9030,-0.2451,1.0230,0.0831
11.9200,-0.2451,1.0230,0.0831
11.9210,-0.2451,1.0230,0.0831
11.9210,-0.2451,1.0230,0.0831
11.9220,-0.2449,1.0215,0.0965
11.9230,-0.2449,1.0215,0.0965
11.9530,-0.2449,1.0215,0.0965
11.9540,-0.2449,1.0215,0.0965
11.9560,-0.2449,1.0215,0.0965
11.9560,-0.2485,1.0277,0.0951
11.9570,-0.2493,1.0240,0.0934
11.9790,-0.2493,1.0240,0.0934
11.9800,-0.2493,1.0240,0.0934
11.9810,-0.2493,1.0240,0.0934
11.9810,-0.2459,1.0169,0.0997
11.9840,-0.2459,1.0169,0.0997
11.9990,-0.2459,1.0169,0.0997
12.0000,-0.2459,1.0169,0.0997
12.0010,-0.2459,1.0169,0.0997
12.0010,-0.2471,1.0191,0.0960
12.0020,-0.2471,1.0191,0.0960
12.0280,-0.2471,1.0191,0.0960
12.0280,-0.2471,1.0191,0.0960
12.0300,-0.2471,1.0191,0.0960
12.0310,-0.2468,1.0286,0.0892
12.0320,-0.2490,1.0303,0.0892
12.0580,-0.2490,1.0303,0.0892
12.0590,-0.2490,1.0303,0.0892
12.0600,-0.2490,1.0303,0.0892
12.0610,-0.2522,1.0213,0.1009
12.0800,-0.2522,1.0213,0.1009
12.0800,-0.2522,1.0213,0.1009
12.0810,-0.2522,1.0213,0.1009
12.0810,-0.2505,1.0189,0.0987
12.0820,-0.2505,1.0189,0.0987
12.1070,-0.2505,1.0189,0.0987
12.1080,-0.2505,1.0189,0.0987
12.1080,-0.2505,1.0189,0.0987
12.1090,-0.2454,1.0294,0.0860
12.1090,-0.2463,1.0264,0.0877
12.1380,-0.2463,1.0264,0.0877
12.1380,-0.2463,1.0264,0.0877
12.1400,-0.2463,1.0264,0.0877
12.1400,-0.2522,1.0215,0.0948
12.1610,-0.2522,1.0215,0.0948
12.1630,-0.2522,1.0215,0.0948
12.1640,-0.2522,1.0215,0.0948
12.1660,-0.2554,1.0198,0.0916
12.1670,-0.2554,1.0198,0.0916
12.1820,-0.2554,1.0198,0.0916
12.1890,-0.2554,1.0198,0.0916
12.1900,-0.2554,1.0198,0.0916
12.1910,-0.2554,1.0198,0.0916
12.1920,-0.2578,1.0211,0.0995
12.1930,-0.2498,1.0259,0.0924
12.2180,-0.2498,1.0259,0.0924
12.2190,-0.2498,1.0259,0.0924
12.2200,-0.2498,1.0259,0.0924
12.2210,-0.2412,1.0206,0.0794
12.2390,-0.2412,1.0206,0.0794
12.2560,-0.2412,1.0206,0.0794
12.2560,-0.2412,1.0206,0.0794
12.2570,-0.2449,1.0150,0.1063
12.2580,-0.2449,1.0150,0.1063
12.2700,-0.2449,1.0150,0.1063
12.2710,-0.2449,1.0150,0.1063
12.2720,-0.2449,1.0150,0.1063
12.2730,-0.2527,1.0191,0.1154
12.2740,-0.2556,1.0218,0.0982
12.2970,-0.2556,1.0218,0.0982
12.2980,-0.2556,1.0218,0.0982
12.2980,-0.2556,1.0218,0.0982
12.2980,-0.2539,1.0252,0.0890
12.3210,-0.2539,1.0252,0.0890
12.3210,-0.2539,1.0252,0.0890
12.3220,-0.2539,1.0252,0.0890
12.3230,-0.2525,1.0374,0.0784
12.3240,-0.2525,1.0374,0.0784
12.3500,-0.2525,1.0374,0.0784
12.3520,-0.2525,1.0374,0.0784
12.3540,-0.2525,1.0374,0.0784
12.3560,-0.2500,1.0242,0.0860
12.3560,-0.2483,1.0174,0.1139
12.3790,-0.2483,1.0174,0.1139
12.3800,-0.2483,1.0174,0.1139
12.3820,-0.2483,1.0174,0.1139
12.3830,-0.2434,1.0223,0.0958
12.3840,-0.2434,1.0223,0.0958
12.3990,-0.2434,1.0223,0.0958
12.4000,-0.2434,1.0223,0.0958
12.4010,-0.2434,1.0223,0.0958
12.4010,-0.2429,1.0267,0.0858
12.4020,-0.2429,1.0267,0.0858
12.4300,-0.2429,1.0267,0.0858
12.4310,-0.2429,1.0267,0.0858
12.4330,-0.2429,1.0267,0.0858
12.4340,-0.2466,1.0252,0.1004
12.4350,-0.2517,1.0220,0.0953
12.4590,-0.2517,1.0220,0.0953
12.4600,-0.2517,1.0220,0.0953
12.4600,-0.2517,1.0220,0.0953
12.4610,-0.2500,1.0235,0.0853
12.4800,-0.2500,1.0235,0.0853
12.4820,-0.2500,1.0235,0.0853
12.4830,-0.2500,1.0235,0.0853
12.4840,-0.2520,1.0252,0.0904
12.4850,-0.2520,1.0252,0.0904
12.5100,-0.2520,1.0252,0.0904
12.5110,-0.2520,1.0252,0.0904
12.5120,-0.2520,1.0252,0.0904
12.5130,-0.2483,1.0245,0.0929
12.5140,-0.2454,1.0259,0.0936
12.5390,-0.2454,1.0259,0.0936
12.5400,-0.2454,1.0259,0.0936
12.5400,-0.2454,1.0259,0.0936
12.5410,-0.2459,1.0279,0.0904
12.5630,-0.2459,1.0279,0.0904
12.5640,-0.2459,1.0279,0.0904
12.5650,-0.2459,1.0279,0.0904
12.5650,-0.2510,1.0245,0.0909
12.5660,-0.2510,1.0245,0.0909
12.5820,-0.2510,1.0245,0.0909
12.5890,-0.2510,1.0245,0.0909
12.5900,-0.2510,1.0245,0.0909
12.5900,-0.2510,1.0245,0.0909
12.5910,-0.2547,1.0211,0.0904
12.5910,-0.2539,1.0193,0.0970
12.6180,-0.2539,1.0193,0.0970
12.6190,-0.2539,1.0193,0.0970
12.6200,-0.2539,1.0193,0.0970
12.6200,-0.2505,1.0262,0.0990
12.6390,-0.2505,1.0262,0.0990
12.6400,-0.2505,1.0262,0.0990
12.6400,-0.2505,1.0262,0.0990
12.6410,-0.2493,1.0259,0.0872
12.6410,-0.2493,1.0259,0.0872
12.6680,-0.2493,1.0259,0.0872
12.6690,-0.2493,1.0259,0.0872
12.6690,-0.2493,1.0259,0.0872
12.6700,-0.2444,1.0294,0.0890
12.6700,-0.2385,1.0303,0.0914
12.7000,-0.2385,1.0303,0.0914
12.7010,-0.2385,1.0303,0.0914
12.7010,-0.2385,1.0303,0.0914
12.7020,-0.2344,1.0267,0.0887
12.7200,-0.2344,1.0267,0.0887
12.7210,-0.2344,1.0267,0.0887
12.7220,-0.2344,1.0267,0.0887
12.7230,-0.2356,1.0296,0.0953
12.7230,-0.2356,1.0296,0.0953
12.7490,-0.2356,1.0296,0.0953
12.7500,-0.2356,1.0296,0.0953
12.7520,-0.2356,1.0296,0.0953
12.7530,-0.2407,1.0284,0.0912
12.7530,-0.2483,1.0196,0.0904
12.7830,-0.2483,1.0196,0.0904
12.7840,-0.2483,1.0196,0.0904
12.7840,-0.2483,1.0196,0.0904
12.7850,-0.2483,1.0237,0.0938
12.7860,-0.2483,1.0237,0.0938
12.8090,-0.2483,1.0237,0.0938
12.8100,-0.2483,1.0237,0.0938
12.8100,-0.2483,1.0237,0.0938
12.8110,-0.2432,1.0250,0.0982
12.8110,-0.2432,1.0250,0.0982
12.8290,-0.2432,1.0250,0.0982
12.8300,-0.2432,1.0250,0.0982
12.8310,-0.2432,1.0250,0.0982
12.8310,-0.2454,1.0255,0.1012
12.8320,-0.2476,1.0264,0.0934
12.8600,-0.2476,1.0264,0.0934
12.8600,-0.2476,1.0264,0.0934
12.8610,-0.2476,1.0264,0.0934
12.8620,-0.2459,1.0269,0.0846
12.8800,-0.2459,1.0269,0.0846
12.8800,-0.2459,1.0269,0.0846
12.8810,-0.2459,1.0269,0.0846
12.8820,-0.2358,1.0267,0.0894
12.8820,-0.2358,1.0267,0.0894
12.9100,-0.2358,1.0267,0.0894
12.9100,-0.2358,1.0267,0.0894
12.9120,-0.2358,1.0267,0.0894
12.9130,-0.2346,1.0299,0.0902
12.9140,-0.2402,1.0318,0.0929
12.9400,-0.2402,1.0318,0.0929
12.9410,-0.2402,1.0318,0.0929
12.9410,-0.2402,1.0318,0.0929
12.9420,-0.2373,1.0237,0.0982
12.9610,-0.2373,1.0237,0.0982
12.9620,-0.2373,1.0237,0.0982
12.9630,-0.2373,1.0237,0.0982
12.9640,-0.2302,1.0193,0.0978
12.9650,-0.2302,1.0193,0.0978
12.9820,-0.2302,1.0193,0.0978
12.9920,-0.2302,1.0193,0.0978
12.9930,-0.2302,1.0193,0.0978
12.9930,-0.2302,1.0193,0.0978
12.9940,-0.2324,1.0286,0.0821
12.9950,-0.2439,1.0387,0.0821
13.0200,-0.2439,1.0387,0.0821
13.0210,-0.2439,1.0387,0.0821
13.0220,-0.2439,1.0387,0.0821
13.0230,-0.2517,1.0279,0.1026
13.0410,-0.2517,1.0279,0.1026
13.0420,-0.2517,1.0279,0.1026
13.0430,-0.2517,1.0279,0.1026
13.0440,-0.2525,1.0103,0.1151
13.0450,-0.2525,1.0103,0.1151
13.0700,-0.2525,1.0103,0.1151
13.0710,-0.2525,1.0103,0.1151
13.0710,-0.2525,1.0103,0.1151
13.0720,-0.2517,1.0184,0.1029
13.0730,-0.2454,1.0352,0.0726
13.1010,-0.2454,1.0352,0.0726
13.1020,-0.2454,1.0352,0.0726
13.1030,-0.2454,1.0352,0.0726
13.1040,-0.2368,1.0355,0.0836
13.1200,-0.2368,1.0355,0.0836
13.1210,-0.2368,1.0355,0.0836
13.1220,-0.2368,1.0355,0.0836
13.1230,-0.2307,1.0267,0.1034
13.1230,-0.2307,1.0267,0.1034
13.1510,-0.2307,1.0267,0.1034
13.1520,-0.2307,1.0267,0.1034
13.1540,-0.2307,1.0267,0.1034
13.1550,-0.2334,1.0181,0.1063
13.1560,-0.2371,1.0191,0.0943
13.1820,-0.2371,1.0191,0.0943
13.1830,-0.2371,1.0191,0.0943
13.1840,-0.2371,1.0191,0.0943
13.1840,-0.2395,1.0306,0.0828
13.1850,-0.2395,1.0306,0.0828
13.2010,-0.2395,1.0306,0.0828
13.2010,-0.2395,1.0306,0.0828
13.2020,-0.2395,1.0306,0.0828
13.2030,-0.2441,1.0330,0.0934
13.2040,-0.2441,1.0330,0.0934
13.2310,-0.2441,1.0330,0.0934
13.2320,-0.2441,1.0330,0.0934
13.2330,-0.2441,1.0330,0.0934
13.2340,-0.2483,1.0303,0.1002
13.2350,-0.2419,1.0237,0.0965
13.2640,-0.2419,1.0237,0.0965
13.2650,-0.2419,1.0237,0.0965
13.2660,-0.2419,1.0237,0.0965
13.2670,-0.2410,1.0245,0.0924
13.2820,-0.2410,1.0245,0.0924
13.2830,-0.2410,1.0245,0.0924
13.2830,-0.2410,1.0245,0.0924
13.2840,-0.2451,1.0203,0.0992
13.2840,-0.2451,1.0203,0.0992
13.3110,-0.2451,1.0203,0.0992
13.3140,-0.2451,1.0203,0.0992
13.3140,-0.2451,1.0203,0.0992
13.3150,-0.2515,1.0230,0.1068
13.3160,-0.2485,1.0245,0.0850
13.3440,-0.2485,1.0245,0.0850
13.3450,-0.2485,1.0245,0.0850
13.3460,-0.2485,1.0245,0.0850
13.3460,-0.2417,1.0286,0.0762
13.3800,-0.2417,1.0286,0.0762
13.3810,-0.2417,1.0286,0.0762
13.3810,-0.2417,1.0286,0.0762
13.3820,-0.2471,1.0262,0.0890
13.3820,-0.2471,1.0262,0.0890
13.3820,-0.2471,1.0262,0.0890
13.3880,-0.2471,1.0262,0.0890
13.3890,-0.2471,1.0262,0.0890
13.3890,-0.2471,1.0262,0.0890
13.3900,-0.2522,1.0240,0.0965
13.3900,-0.2515,1.0225,0.0975
13.4190,-0.2515,1.0225,0.0975
13.4200,-0.2515,1.0225,0.0975
13.4210,-0.2515,1.0225,0.0975
13.4210,-0.2493,1.0245,0.0912
13.4400,-0.2493,1.0245,0.0912
13.4410,-0.2493,1.0245,0.0912
13.4420,-0.2493,1.0245,0.0912
13.4430,-0.2468,1.0257,0.0838
13.4440,-0.2468,1.0257,0.0838
13.4700,-0.2468,1.0257,0.0838
13.4710,-0.2468,1.0257,0.0838
13.4710,-0.2468,1.0257,0.0838
13.4720,-0.2434,1.0245,0.0934
13.4730,-0.2393,1.0250,0.1007
13.5000,-0.2393,1.0250,0.1007
13.5010,-0.2393,1.0250,0.1007
13.5010,-0.2393,1.0250,0.1007
13.5020,-0.2410,1.0247,0.0848
13.5210,-0.2410,1.0247,0.0848
13.5210,-0.2410,1.0247,0.0848
13.5220,-0.2410,1.0247,0.0848
13.5230,-0.2466,1.0245,0.0882
13.5230,-0.2466,1.0245,0.0882
13.5500,-0.2466,1.0245,0.0882
13.5510,-0.2466,1.0245,0.0882
13.5530,-0.2466,1.0245,0.0882
13.5540,-0.2490,1.0281,0.0924
13.5550,-0.2481,1.0233,0.1041
13.5820,-0.2481,1.0233,0.1041
13.5830,-0.2481,1.0233,0.1041
13.5840,-0.2481,1.0233,0.1041
13.5850,-0.2498,1.0172,0.1095
13.5860,-0.2498,1.0172,0.1095
13.6010,-0.2498,1.0172,0.1095
13.6020,-0.2498,1.0172,0.1095
13.6020,-0.2498,1.0172,0.1095
13.6030,-0.2507,1.0237,0.0973
13.6030,-0.2507,1.0237,0.0973
13.6300,-0.2507,1.0237,0.0973
13.6320,-0.2507,1.0237,0.0973
13.6330,-0.2507,1.0237,0.0973
13.6330,-0.2505,1.0267,0.0904
13.6340,-0.2537,1.0296,0.0872
13.6610,-0.2537,1.0296,0.0872
13.6630,-0.2537,1.0296,0.0872
13.6640,-0.2537,1.0296,0.0872
13.6640,-0.2532,1.0223,0.0975
13.6800,-0.2532,1.0223,0.0975
13.6810,-0.2532,1.0223,0.0975
13.6820,-0.2532,1.0223,0.0975
13.6830,-0.2444,1.0137,0.1063
13.6840,-0.2444,1.0137,0.1063
13.7110,-0.2444,1.0137,0.1063
13.7120,-0.2444,1.0137,0.1063
13.7120,-0.2444,1.0137,0.1063
13.7130,-0.2400,1.0201,0.0885
13.7130,-0.2481,1.0245,0.0846
13.7410,-0.2481,1.0245,0.0846
13.7430,-0.2481,1.0245,0.0846
13.7450,-0.2481,1.0245,0.0846
13.7450,-0.2544,1.0252,0.0958
13.7610,-0.2544,1.0252,0.0958
13.7610,-0.2544,1.0252,0.0958
13.7620,-0.2544,1.0252,0.0958
13.7630,-0.2493,1.0237,0.0907
13.7630,-0.2493,1.0237,0.0907
13.7810,-0.2493,1.0237,0.0907
13.7920,-0.2493,1.0237,0.0907
13.7940,-0.2493,1.0237,0.0907
13.7940,-0.2493,1.0237,0.0907
13.7950,-0.2449,1.0201,0.0936
13.7950,-0.2478,1.0242,0.1092
13.8200,-0.2478,1.0242,0.1092
13.8210,-0.2478,1.0242,0.1092
13.8210,-0.2478,1.0242,0.1092
13.8210,-0.2459,1.0242,0.0968
13.8410,-0.2459,1.0242,0.0968
13.8420,-0.2459,1.0242,0.0968
13.8420,-0.2459,1.0242,0.0968
13.8430,-0.2449,1.0203,0.0943
13.8440,-0.2449,1.0203,0.0943
13.8720,-0.2449,1.0203,0.0943
13.8730,-0.2449,1.0203,0.0943
13.8740,-0.2449,1.0203,0.0943
13.8760,-0.2495,1.0272,0.0924
13.8770,-0.2515,1.0277,0.0836
13.9020,-0.2515,1.0277,0.0836
13.9030,-0.2515,1.0277,0.0836
13.9040,-0.2515,1.0277,0.0836
13.9260,-0.2422,1.0213,0.1024
13.9270,-0.2422,1.0213,0.1024
13.9270,-0.2422,1.0213,0.1024
13.9280,-0.2422,1.0213,0.1024
13.9290,-0.2397,1.0193,0.1107
13.9300,-0.2397,1.0193,0.1107
13.9510,-0.2397,1.0193,0.1107
13.9510,-0.2397,1.0193,0.1107
13.9520,-0.2397,1.0193,0.1107
13.9530,-0.2454,1.0233,0.0958
13.9530,-0.2466,1.0313,0.0887
13.9820,-0.2466,1.0313,0.0887
13.9830,-0.2466,1.0313,0.0887
13.9840,-0.2466,1.0313,0.0887
13.9850,-0.2485,1.0264,0.0875
13.9860,-0.2485,1.0264,0.0875
14.0010,-0.2485,1.0264,0.0875
14.0020,-0.2485,1.0264,0.0875
14.0030,-0.2485,1.0264,0.0875
14.0030,-0.2561,1.0145,0.0995
14.0040,-0.2561,1.0145,0.0995
14.0300,-0.2561,1.0145,0.0995
14.0310,-0.2561,1.0145,0.0995
14.0320,-0.2561,1.0145,0.0995
14.0330,-0.2556,1.0201,0.1110
14.0360,-0.2481,1.0269,0.0936
14.0630,-0.2481,1.0269,0.0936
14.0640,-0.2481,1.0269,0.0936
14.0640,-0.2481,1.0269,0.0936
14.0650,-0.2368,1.0296,0.0929
14.0810,-0.2368,1.0296,0.0929
14.0820,-0.2368,1.0296,0.0929
14.0830,-0.2368,1.0296,0.0929
14.0840,-0.2400,1.0230,0.1056
14.0850,-0.2400,1.0230,0.1056
14.1130,-0.2400,1.0230,0.1056
14.1140,-0.2400,1.0230,0.1056
14.1160,-0.2400,1.0230,0.1056
14.1170,-0.2441,1.0262,0.0929
14.1180,-0.2485,1.0299,0.0850
14.1420,-0.2485,1.0299,0.0850
14.1430,-0.2485,1.0299,0.0850
14.1440,-0.2485,1.0299,0.0850
14.1440,-0.2525,1.0262,0.0980
14.1610,-0.2525,1.0262,0.0980
14.1620,-0.2525,1.0262,0.0980
14.1630,-0.2525,1.0262,0.0980
14.1640,-0.2512,1.0157,0.1058
14.1650,-0.2512,1.0157,0.1058
14.1830,-0.2512,1.0157,0.1058
14.1940,-0.2512,1.0157,0.1058
14.1950,-0.2512,1.0157,0.1058
14.1960,-0.2512,1.0157,0.1058
14.1970,-0.2473,1.0206,0.1017
14.1970,-0.2441,1.0308,0.0848
14.2220,-0.2441,1.0308,0.0848
14.2230,-0.2441,1.0308,0.0848
14.2240,-0.2441,1.0308,0.0848
14.2250,-0.2429,1.0281,0.0819
14.2430,-0.2429,1.0281,0.0819
14.2440,-0.2429,1.0281,0.0819
14.2450,-0.2429,1.0281,0.0819
14.2460,-0.2441,1.0220,0.1029
14.2470,-0.2441,1.0220,0.1029
14.2740,-0.2441,1.0220,0.1029
14.2750,-0.2441,1.0220,0.1029
14.2770,-0.2441,1.0220,0.1029
14.2780,-0.2500,1.0181,0.1070
14.2790,-0.2578,1.0252,0.0858
14.3020,-0.2578,1.0252,0.0858
14.3030,-0.2578,1.0252,0.0858
14.3040,-0.2578,1.0252,0.0858
14.3040,-0.2556,1.0225,0.0882
14.3230,-0.2556,1.0225,0.0882
14.3240,-0.2556,1.0225,0.0882
14.3250,-0.2556,1.0225,0.0882
14.3260,-0.2478,1.0235,0.0980
14.3260,-0.2478,1.0235,0.0980
14.3530,-0.2478,1.0235,0.0980
14.3540,-0.2478,1.0235,0.0980
14.3550,-0.2478,1.0235,0.0980
14.3560,-0.2422,1.0286,0.0919
14.3580,-0.2488,1.0259,0.0882
14.3840,-0.2488,1.0259,0.0882
14.3850,-0.2488,1.0259,0.0882
14.3860,-0.2488,1.0259,0.0882
14.3870,-0.2478,1.0225,0.0892
14.3880,-0.2478,1.0225,0.0892
14.4020,-0.2478,1.0225,0.0892
14.4030,-0.2478,1.0225,0.0892
14.4040,-0.2478,1.0225,0.0892
14.4050,-0.2490,1.0225,0.0870
14.4060,-0.2490,1.0225,0.0870
14.4340,-0.2490,1.0225,0.0870
14.4350,-0.2490,1.0225,0.0870
14.4370,-0.2490,1.0225,0.0870
14.4380,-0.2559,1.0294,0.0907
14.4390,-0.2556,1.0264,0.0953
14.4610,-0.2556,1.0264,0.0953
14.4630,-0.2556,1.0264,0.0953
14.4890,-0.2556,1.0264,0.0953
14.4900,-0.2527,1.0142,0.1078
14.4910,-0.2527,1.0142,0.1078
14.4910,-0.2527,1.0142,0.1078
14.4920,-0.2527,1.0142,0.1078
14.4920,-0.2539,1.0198,0.0941
14.4930,-0.2539,1.0198,0.0941
14.5100,-0.2539,1.0198,0.0941
14.5100,-0.2539,1.0198,0.0941
14.5100,-0.2539,1.0198,0.0941
14.5110,-0.2564,1.0323,0.0831
14.5110,-0.2593,1.0240,0.0943
14.5400,-0.2593,1.0240,0.0943
14.5410,-0.2593,1.0240,0.0943
14.5410,-0.2593,1.0240,0.0943
14.5420,-0.2571,1.0220,0.0968
14.5600,-0.2571,1.0220,0.0968
14.5610,-0.2571,1.0220,0.0968
14.5610,-0.2571,1.0220,0.0968
14.5620,-0.2532,1.0206,0.0982
14.5620,-0.2532,1.0206,0.0982
14.5840,-0.2532,1.0206,0.0982
14.5910,-0.2532,1.0206,0.0982
14.5920,-0.2532,1.0206,0.0982
14.5930,-0.2532,1.0206,0.0982
14.5940,-0.2525,1.0211,0.1029
14.5940,-0.2463,1.0269,0.0833
14.6210,-0.2463,1.0269,0.0833
14.6230,-0.2463,1.0269,0.0833
14.6240,-0.2463,1.0269,0.0833
14.6250,-0.2446,1.0264,0.0877
14.6460,-0.2446,1.0264,0.0877
14.6470,-0.2446,1.0264,0.0877
14.6470,-0.2446,1.0264,0.0877
14.6480,-0.2473,1.0203,0.1044
14.6480,-0.2473,1.0203,0.1044
14.6730,-0.2473,1.0203,0.1044
14.6740,-0.2473,1.0203,0.1044
14.6750,-0.2473,1.0203,0.1044
14.6760,-0.2512,1.0257,0.1061
14.6760,-0.2537,1.0269,0.0904
14.7020,-0.2537,1.0269,0.0904
14.7030,-0.2537,1.0269,0.0904
14.7040,-0.2537,1.0269,0.0904
14.7040,-0.2598,1.0255,0.0909
14.7230,-0.2598,1.0255,0.0909
14.7240,-0.2598,1.0255,0.0909
14.7250,-0.2598,1.0255,0.0909
14.7250,-0.2551,1.0259,0.0992
14.7260,-0.2551,1.0259,0.0992
14.7530,-0.2551,1.0259,0.0992
14.7550,-0.2551,1.0259,0.0992
14.7560,-0.2551,1.0259,0.0992
14.7560,-0.2456,1.0259,0.0924
14.7570,-0.2405,1.0247,0.0877
14.7840,-0.2405,1.0247,0.0877
14.7850,-0.2405,1.0247,0.0877
14.7860,-0.2405,1.0247,0.0877
14.7860,-0.2429,1.0257,0.0909
14.7870,-0.2429,1.0257,0.0909
14.7890,-0.2429,1.0257,0.0909
14.8040,-0.2429,1.0257,0.0909
14.8050,-0.2429,1.0257,0.0909
14.8060,-0.2429,1.0257,0.0909
14.8070,-0.2439,1.0252,0.0916
14.8080,-0.2439,1.0252,0.0916
14.8330,-0.2439,1.0252,0.0916
14.8330,-0.2439,1.0252,0.0916
14.8340,-0.2439,1.0252,0.0916
14.8340,-0.2446,1.0225,0.0948
14.8350,-0.2517,1.0259,0.0860
14.8630,-0.2517,1.0259,0.0860
14.8640,-0.2517,1.0259,0.0860
14.8640,-0.2517,1.0259,0.0860
14.8650,-0.2559,1.0257,0.0882
14.8840,-0.2559,1.0257,0.0882
14.8840,-0.2559,1.0257,0.0882
14.8850,-0.2559,1.0257,0.0882
14.8860,-0.2515,1.0218,0.0985
14.8860,-0.2515,1.0218,0.0985
14.9130,-0.2515,1.0218,0.0985
14.9130,-0.2515,1.0218,0.0985
14.9140,-0.2515,1.0218,0.0985
14.9140,-0.2461,1.0233,0.0926
14.9160,-0.2481,1.0257,0.0946
14.9430,-0.2481,1.0257,0.0946
14.9430,-0.2481,1.0257,0.0946
14.9440,-0.2481,1.0257,0.0946
14.9450,-0.2466,1.0255,0.0907
14.9630,-0.2466,1.0255,0.0907
14.9640,-0.2466,1.0255,0.0907
14.9650,-0.2466,1.0255,0.0907
14.9660,-0.2468,1.0291,0.0882
14.9670,-0.2468,1.0291,0.0882
14.9850,-0.2468,1.0291,0.0882
14.9860,-0.2468,1.0291,0.0882
14.9930,-0.2468,1.0291,0.0882
14.9940,-0.2468,1.0291,0.0882
14.9950,-0.2468,1.0291,0.0882
14.9960,-0.2559,1.0233,0.0929
15.0150,-0.2598,1.0201,0.1017
15.0210,-0.2598,1.0201,0.1017
15.0220,-0.2598,1.0201,0.1017
15.0230,-0.2598,1.0201,0.1017
15.0250,-0.2481,1.0145,0.0997
15.0420,-0.2481,1.0145,0.0997
15.0430,-0.2481,1.0145,0.0997
15.0430,-0.2481,1.0145,0.0997
15.0440,-0.2373,1.0218,0.0907
15.0450,-0.2373,1.0218,0.0907
15.0720,-0.2373,1.0218,0.0907
15.0730,-0.2373,1.0218,0.0907
15.0730,-0.2373,1.0218,0.0907
15.0740,-0.2400,1.0296,0.0912
15.0750,-0.2473,1.0262,0.0951
15.1020,-0.2473,1.0262,0.0951
15.1030,-0.2473,1.0262,0.0951
15.1040,-0.2473,1.0262,0.0951
15.1040,-0.2537,1.0242,0.0980
15.1230,-0.2537,1.0242,0.0980
15.1230,-0.2537,1.0242,0.0980
15.1240,-0.2537,1.0242,0.0980
15.1240,-0.2566,1.0218,0.1102
15.1250,-0.2566,1.0218,0.1102
15.1550,-0.2566,1.0218,0.1102
15.1560,-0.2566,1.0218,0.1102
15.1560,-0.2566,1.0218,0.1102
15.1570,-0.2561,1.0220,0.1066
15.1570,-0.2527,1.0281,0.0872
15.1820,-0.2527,1.0281,0.0872
15.1850,-0.2527,1.0281,0.0872
15.1860,-0.2527,1.0281,0.0872
15.1860,-0.2527,1.0281,0.0872
15.1870,-0.2466,1.0306,0.0877
15.1880,-0.2466,1.0306,0.0877
15.2060,-0.2466,1.0306,0.0877
15.2070,-0.2466,1.0306,0.0877
15.2070,-0.2466,1.0306,0.0877
15.2080,-0.2461,1.0186,0.1014
15.2090,-0.2461,1.0186,0.1014
15.2340,-0.2461,1.0186,0.1014
15.2340,-0.2461,1.0186,0.1014
15.2350,-0.2461,1.0186,0.1014
15.2360,-0.2483,1.0142,0.1090
15.2370,-0.2532,1.0242,0.1034
15.2620,-0.2532,1.0242,0.1034
15.2630,-0.2532,1.0242,0.1034
15.2640,-0.2532,1.0242,0.1034
15.2640,-0.2559,1.0233,0.0921
15.2840,-0.2559,1.0233,0.0921
15.2840,-0.2559,1.0233,0.0921
15.2850,-0.2559,1.0233,0.0921
15.2870,-0.2554,1.0257,0.0882
15.2870,-0.2554,1.0257,0.0882
15.3130,-0.2554,1.0257,0.0882
15.3140,-0.2554,1.0257,0.0882
15.3150,-0.2554,1.0257,0.0882
15.3160,-0.2503,1.0228,0.0892
15.3170,-0.2476,1.0208,0.0990
15.3430,-0.2476,1.0208,0.0990
15.3430,-0.2476,1.0208,0.0990
15.3440,-0.2476,1.0208,0.0990
15.3450,-0.2483,1.0257,0.1085
15.3630,-0.2483,1.0257,0.1085
15.3640,-0.2483,1.0257,0.1085
15.3650,-0.2483,1.0257,0.1085
15.3650,-0.2520,1.0223,0.1009
15.3660,-0.2520,1.0223,0.1009
15.3840,-0.2520,1.0223,0.1009
15.3850,-0.2520,1.0223,0.1009
15.3920,-0.2520,1.0223,0.1009
15.3930,-0.2520,1.0223,0.1009
15.3940,-0.2520,1.0223,0.1009
15.3950,-0.2495,1.0228,0.0890
15.3960,-0.2534,1.0264,0.0850
15.4230,-0.2534,1.0264,0.0850
15.4240,-0.2534,1.0264,0.0850
15.4250,-0.2534,1.0264,0.0850
15.4260,-0.2564,1.0220,0.0946
15.4440,-0.2564,1.0220,0.0946
15.4440,-0.2564,1.0220,0.0946
15.4450,-0.2564,1.0220,0.0946
15.4450,-0.2473,1.0211,0.1053
15.4460,-0.2473,1.0211,0.1053
15.4740,-0.2473,1.0211,0.1053
15.4750,-0.2473,1.0211,0.1053
15.4760,-0.2473,1.0211,0.1053
15.4770,-0.2490,1.0208,0.1051
15.4780,-0.2547,1.0213,0.1048
15.5030,-0.2547,1.0213,0.1048
15.5040,-0.2547,1.0213,0.1048
15.5050,-0.2547,1.0213,0.1048
15.5080,-0.2532,1.0240,0.0968
15.5230,-0.2532,1.0240,0.0968
15.5240,-0.2532,1.0240,0.0968
15.5250,-0.2532,1.0240,0.0968
15.5260,-0.2488,1.0272,0.0865
15.5260,-0.2488,1.0272,0.0865
15.5550,-0.2488,1.0272,0.0865
15.5560,-0.2488,1.0272,0.0865
15.5780,-0.2488,1.0272,0.0865
15.5780,-0.2454,1.0237,0.0926
15.5790,-0.2446,1.0225,0.0997
15.5820,-0.2446,1.0225,0.0997
15.5870,-0.2446,1.0225,0.0997
15.5900,-0.2446,1.0225,0.0997
15.5900,-0.2446,1.0225,0.0997
15.5910,-0.2424,1.0272,0.0863
15.5910,-0.2424,1.0272,0.0863
15.6020,-0.2424,1.0272,0.0863
15.6020,-0.2424,1.0272,0.0863
15.6020,-0.2424,1.0272,0.0863
15.6030,-0.2424,1.0289,0.0828
15.6030,-0.2424,1.0289,0.0828
15.6320,-0.2424,1.0289,0.0828
15.6320,-0.2424,1.0289,0.0828
15.6330,-0.2424,1.0289,0.0828
15.6330,-0.2483,1.0215,0.0946
15.6330,-0.2554,1.0071,0.1442
15.6620,-0.2554,1.0071,0.1442
15.6630,-0.2554,1.0071,0.1442
15.6630,-0.2554,1.0071,0.1442
15.6630,-0.2581,0.9991,0.2214
15.6820,-0.2581,0.9991,0.2214
15.6830,-0.2581,0.9991,0.2214
15.6830,-0.2581,0.9991,0.2214
15.6840,-0.2630,1.0186,0.0909
15.6840,-0.2630,1.0186,0.0909
15.7120,-0.2630,1.0186,0.0909
15.7130,-0.2630,1.0186,0.0909
15.7130,-0.2630,1.0186,0.0909
15.7140,-0.2683,1.0460,-0.0298
15.7140,-0.2481,1.0374,0.0161
15.7430,-0.2481,1.0374,0.0161
15.7440,-0.2481,1.0374,0.0161
15.7450,-0.2481,1.0374,0.0161
15.7460,-0.2397,1.0096,0.1144
15.7640,-0.2397,1.0096,0.1144
15.7650,-0.2397,1.0096,0.1144
15.7660,-0.2397,1.0096,0.1144
15.7660,-0.2454,1.0118,0.1156
15.7680,-0.2454,1.0118,0.1156
15.7830,-0.2454,1.0118,0.1156
15.7930,-0.2454,1.0118,0.1156
15.7940,-0.2454,1.0118,0.1156
15.7950,-0.2454,1.0118,0.1156
15.7950,-0.2522,1.0338,0.0819
15.7960,-0.2537,1.0428,0.0533
15.8240,-0.2537,1.0428,0.0533
15.8250,-0.2537,1.0428,0.0533
15.8260,-0.2537,1.0428,0.0533
15.8270,-0.2490,1.0338,0.0687
15.8460,-0.2490,1.0338,0.0687
15.8460,-0.2490,1.0338,0.0687
15.8470,-0.2490,1.0338,0.0687
15.8480,-0.2461,1.0174,0.1039
15.8480,-0.2461,1.0174,0.1039
15.8740,-0.2461,1.0174,0.1039
15.8750,-0.2461,1.0174,0.1039
15.8760,-0.2461,1.0174,0.1039
15.8770,-0.2427,1.0174,0.0985
15.8770,-0.2476,1.0208,0.0997
15.9070,-0.2476,1.0208,0.0997
15.9080,-0.2476,1.0208,0.0997
15.9090,-0.2476,1.0208,0.0997
15.9100,-0.2537,1.0269,0.0938
15.9240,-0.2537,1.0269,0.0938
15.9240,-0.2537,1.0269,0.0938
15.9250,-0.2537,1.0269,0.0938
15.9250,-0.2566,1.0335,0.0689
15.9260,-0.2566,1.0335,0.0689
15.9540,-0.2566,1.0335,0.0689
15.9550,-0.2566,1.0335,0.0689
15.9560,-0.2566,1.0335,0.0689
15.9570,-0.2556,1.0289,0.0743
15.9570,-0.2586,1.0142,0.0931
15.9850,-0.2586,1.0142,0.0931
15.9870,-0.2586,1.0142,0.0931
15.9880,-0.2586,1.0142,0.0931
15.9880,-0.2586,1.0142,0.0931
15.9890,-0.2569,1.0169,0.0953
16.0050,-0.2569,1.0169,0.0953
16.0060,-0.2569,1.0169,0.0953
16.0070,-0.2569,1.0169,0.0953
16.0070,-0.2520,1.0242,0.0956
16.0080,-0.2520,1.0242,0.0956
16.0320,-0.2520,1.0242,0.0956
16.0330,-0.2520,1.0242,0.0956
16.0330,-0.2520,1.0242,0.0956
16.0330,-0.2432,1.0215,0.0870
16.0340,-0.2410,1.0245,0.0743
16.0620,-0.2410,1.0245,0.0743
16.0630,-0.2410,1.0245,0.0743
16.0630,-0.2410,1.0245,0.0743
16.0630,-0.2591,1.0257,0.0787
16.0830,-0.2591,1.0257,0.0787
16.0830,-0.2591,1.0257,0.0787
16.0840,-0.2591,1.0257,0.0787
16.0840,-0.2588,1.0360,0.0550
16.0840,-0.2588,1.0360,0.0550
16.1110,-0.2588,1.0360,0.0550
16.1110,-0.2588,1.0360,0.0550
16.1120,-0.2588,1.0360,0.0550
16.1120,-0.2380,1.0374,0.0530
16.1120,-0.2283,1.0242,0.0714
16.1410,-0.2283,1.0242,0.0714
16.1420,-0.2283,1.0242,0.0714
16.1420,-0.2283,1.0242,0.0714
16.1420,-0.2473,1.0096,0.0833
16.1620,-0.2473,1.0096,0.0833
16.1630,-0.2473,1.0096,0.0833
16.1630,-0.2473,1.0096,0.0833
16.1630,-0.2593,1.0237,0.0650
16.1640,-0.2593,1.0237,0.0650
16.1810,-0.2593,1.0237,0.0650
16.1920,-0.2593,1.0237,0.0650
16.1920,-0.2593,1.0237,0.0650
16.1930,-0.2593,1.0237,0.0650
16.1930,-0.2566,1.0404,0.0477
16.1930,-0.2525,1.0352,0.0369
