
time,AccelerometerX,AccelerometerY,AccelerometerZ
0.0190,-0.2300,1.0325,0.1114
0.0200,-0.2300,1.0325,0.1114
0.0200,-0.2300,1.0325,0.1114
0.0200,-0.2248,1.0321,0.0965
0.0210,-0.2395,1.0081,0.1403
0.0570,-0.2395,1.0081,0.1403
0.0570,-0.2395,1.0081,0.1403
0.0580,-0.2395,1.0081,0.1403
0.0580,-0.2395,1.0081,0.1403
0.0580,-0.2314,1.0316,0.1141
0.0640,-0.2314,1.0316,0.1141
0.0650,-0.2314,1.0316,0.1141
0.0650,-0.2314,1.0316,0.1141
0.0660,-0.2334,1.0387,0.1124
0.0660,-0.2334,1.0387,0.1124
0.0930,-0.2334,1.0387,0.1124
0.0930,-0.2334,1.0387,0.1124
0.0940,-0.2334,1.0387,0.1124
0.0940,-0.2427,1.0252,0.1100
0.0940,-0.2434,1.0269,0.1198
0.1220,-0.2434,1.0269,0.1198
0.1220,-0.2434,1.0269,0.1198
0.1220,-0.2434,1.0269,0.1198
0.1220,-0.2419,1.0252,0.1261
0.1430,-0.2419,1.0252,0.1261
0.1430,-0.2419,1.0252,0.1261
0.1430,-0.2419,1.0252,0.1261
0.1440,-0.2466,1.0242,0.1180
0.1440,-0.2466,1.0242,0.1180
0.1720,-0.2466,1.0242,0.1180
0.1720,-0.2466,1.0242,0.1180
0.1730,-0.2466,1.0242,0.1180
0.1730,-0.2424,1.0233,0.1119
0.1740,-0.2358,1.0279,0.1132
0.2020,-0.2358,1.0279,0.1132
0.2020,-0.2358,1.0279,0.1132
0.2030,-0.2358,1.0279,0.1132
0.2030,-0.2351,1.0279,0.1061
0.2230,-0.2351,1.0279,0.1061
0.2250,-0.2351,1.0279,0.1061
0.2250,-0.2351,1.0279,0.1061
0.2250,-0.2344,1.0242,0.1151
0.2250,-0.2344,1.0242,0.1151
0.2420,-0.2344,1.0242,0.1151
0.2450,-0.2344,1.0242,0.1151
0.2520,-0.2344,1.0242,0.1151
0.2520,-0.2344,1.0242,0.1151
0.2530,-0.2344,1.0242,0.1151
0.2540,-0.2305,1.0306,0.1097
0.2540,-0.2371,1.0245,0.1122
0.2830,-0.2371,1.0245,0.1122
0.2830,-0.2371,1.0245,0.1122
0.2830,-0.2371,1.0245,0.1122
0.2850,-0.2341,1.0196,0.1241
0.3030,-0.2341,1.0196,0.1241
0.3040,-0.2341,1.0196,0.1241
0.3040,-0.2341,1.0196,0.1241
0.3050,-0.2226,1.0328,0.1095
0.3050,-0.2226,1.0328,0.1095
0.3320,-0.2226,1.0328,0.1095
0.3330,-0.2226,1.0328,0.1095
0.3330,-0.2226,1.0328,0.1095
0.3350,-0.2197,1.0325,0.0956
0.3350,-0.2243,1.0267,0.1158
0.3630,-0.2243,1.0267,0.1158
0.3630,-0.2243,1.0267,0.1158
0.3630,-0.2243,1.0267,0.1158
0.3640,-0.2368,1.0269,0.1151
0.3830,-0.2368,1.0269,0.1151
0.3840,-0.2368,1.0269,0.1151
0.3850,-0.2368,1.0269,0.1151
0.3850,-0.2444,1.0274,0.1092
0.3850,-0.2444,1.0274,0.1092
0.4130,-0.2444,1.0274,0.1092
0.4130,-0.2444,1.0274,0.1092
0.4130,-0.2444,1.0274,0.1092
0.4140,-0.2559,1.0184,0.1259
0.4140,-0.2659,1.0181,0.1303
0.4430,-0.2659,1.0181,0.1303
0.4460,-0.2659,1.0181,0.1303
0.4540,-0.2659,1.0181,0.1303
0.4550,-0.2659,1.0181,0.1303
0.4550,-0.2573,1.0291,0.1144
0.4550,-0.2573,1.0291,0.1144
0.4630,-0.2573,1.0291,0.1144
0.4640,-0.2573,1.0291,0.1144
0.4640,-0.2573,1.0291,0.1144
0.4640,-0.2444,1.0294,0.1046
0.4650,-0.2444,1.0294,0.1046
0.4930,-0.2444,1.0294,0.1046
0.4930,-0.2444,1.0294,0.1046
0.4930,-0.2444,1.0294,0.1046
0.4940,-0.2383,1.0215,0.1056
0.4950,-0.2361,1.0206,0.1200
0.5240,-0.2361,1.0206,0.1200
0.5240,-0.2361,1.0206,0.1200
0.5240,-0.2361,1.0206,0.1200
0.5240,-0.2363,1.0279,0.1215
0.5440,-0.2363,1.0279,0.1215
0.5450,-0.2363,1.0279,0.1215
0.5450,-0.2363,1.0279,0.1215
0.5460,-0.2312,1.0277,0.1129
0.5460,-0.2312,1.0277,0.1129
0.5720,-0.2312,1.0277,0.1129
0.5730,-0.2312,1.0277,0.1129
0.5730,-0.2312,1.0277,0.1129
0.5740,-0.2256,1.0213,0.1144
0.5740,-0.2312,1.0279,0.1102
0.6030,-0.2312,1.0279,0.1102
0.6040,-0.2312,1.0279,0.1102
0.6040,-0.2312,1.0279,0.1102
0.6040,-0.2383,1.0350,0.1041
0.6240,-0.2383,1.0350,0.1041
0.6250,-0.2383,1.0350,0.1041
0.6260,-0.2383,1.0350,0.1041
0.6260,-0.2419,1.0252,0.1075
0.6260,-0.2419,1.0252,0.1075
0.6420,-0.2419,1.0252,0.1075
0.6460,-0.2419,1.0252,0.1075
0.6530,-0.2419,1.0252,0.1075
0.6530,-0.2419,1.0252,0.1075
0.6540,-0.2419,1.0252,0.1075
0.6550,-0.2461,1.0167,0.1249
0.6560,-0.2488,1.0218,0.1278
0.6830,-0.2488,1.0218,0.1278
0.6830,-0.2488,1.0218,0.1278
0.6840,-0.2488,1.0218,0.1278
0.6840,-0.2471,1.0211,0.1149
0.7040,-0.2471,1.0211,0.1149
0.7060,-0.2471,1.0211,0.1149
0.7070,-0.2471,1.0211,0.1149
0.7070,-0.2385,1.0203,0.1193
0.7070,-0.2385,1.0203,0.1193
0.7340,-0.2385,1.0203,0.1193
0.7340,-0.2385,1.0203,0.1193
0.7350,-0.2385,1.0203,0.1193
0.7350,-0.2344,1.0255,0.1136
0.7350,-0.2410,1.0252,0.1141
0.7630,-0.2410,1.0252,0.1141
0.7640,-0.2410,1.0252,0.1141
0.7650,-0.2410,1.0252,0.1141
0.7650,-0.2478,1.0196,0.1173
0.7840,-0.2478,1.0196,0.1173
0.7850,-0.2478,1.0196,0.1173
0.7860,-0.2478,1.0196,0.1173
0.7860,-0.2468,1.0189,0.1256
0.7860,-0.2468,1.0189,0.1256
0.8140,-0.2468,1.0189,0.1256
0.8140,-0.2468,1.0189,0.1256
0.8140,-0.2468,1.0189,0.1256
0.8150,-0.2397,1.0281,0.1149
0.8150,-0.2373,1.0323,0.1046
0.8420,-0.2373,1.0323,0.1046
0.8460,-0.2373,1.0323,0.1046
0.8460,-0.2373,1.0323,0.1046
0.8470,-0.2373,1.0323,0.1046
0.8470,-0.2417,1.0240,0.1132
0.8470,-0.2417,1.0240,0.1132
0.8650,-0.2417,1.0240,0.1132
0.8660,-0.2417,1.0240,0.1132
0.8660,-0.2417,1.0240,0.1132
0.8660,-0.2441,1.0189,0.1239
0.8670,-0.2441,1.0189,0.1239
0.8940,-0.2441,1.0189,0.1239
0.8950,-0.2441,1.0189,0.1239
0.8950,-0.2441,1.0189,0.1239
0.8950,-0.2434,1.0189,0.1198
0.8960,-0.2488,1.0211,0.1239
0.9260,-0.2488,1.0211,0.1239
0.9260,-0.2488,1.0211,0.1239
0.9270,-0.2488,1.0211,0.1239
0.9270,-0.2449,1.0338,0.1044
0.9470,-0.2449,1.0338,0.1044
0.9470,-0.2449,1.0338,0.1044
0.9480,-0.2449,1.0338,0.1044
0.9480,-0.2368,1.0296,0.1083
0.9480,-0.2368,1.0296,0.1083
0.9770,-0.2368,1.0296,0.1083
0.9780,-0.2368,1.0296,0.1083
0.9780,-0.2368,1.0296,0.1083
1.0000,-0.2388,1.0169,0.1325
1.0000,-0.2437,1.0142,0.1185
1.0040,-0.2437,1.0142,0.1185
1.0040,-0.2437,1.0142,0.1185
1.0040,-0.2437,1.0142,0.1185
1.0040,-0.2314,1.0303,0.1154
1.0260,-0.2314,1.0303,0.1154
1.0260,-0.2314,1.0303,0.1154
1.0260,-0.2314,1.0303,0.1154
1.0270,-0.2300,1.0321,0.1066
1.0270,-0.2300,1.0321,0.1066
1.0420,-0.2300,1.0321,0.1066
1.0460,-0.2300,1.0321,0.1066
1.0540,-0.2300,1.0321,0.1066
1.0550,-0.2300,1.0321,0.1066
1.0550,-0.2300,1.0321,0.1066
1.0550,-0.2490,1.0215,0.1105
1.0560,-0.2600,1.0262,0.1222
1.0840,-0.2600,1.0262,0.1222
1.0840,-0.2600,1.0262,0.1222
1.0850,-0.2600,1.0262,0.1222
1.0850,-0.2556,1.0269,0.1039
1.1050,-0.2556,1.0269,0.1039
1.1060,-0.2556,1.0269,0.1039
1.1060,-0.2556,1.0269,0.1039
1.1070,-0.2485,1.0174,0.1114
1.1070,-0.2485,1.0174,0.1114
1.1340,-0.2485,1.0174,0.1114
1.1340,-0.2485,1.0174,0.1114
1.1340,-0.2485,1.0174,0.1114
1.1350,-0.2466,1.0193,0.1229
1.1350,-0.2454,1.0213,0.1185
1.1640,-0.2454,1.0213,0.1185
1.1650,-0.2454,1.0213,0.1185
1.1650,-0.2454,1.0213,0.1185
1.1650,-0.2419,1.0169,0.1168
1.1850,-0.2419,1.0169,0.1168
1.1860,-0.2419,1.0169,0.1168
1.1860,-0.2419,1.0169,0.1168
1.1860,-0.2417,1.0228,0.1180
1.1860,-0.2417,1.0228,0.1180
1.2140,-0.2417,1.0228,0.1180
1.2140,-0.2417,1.0228,0.1180
1.2150,-0.2417,1.0228,0.1180
1.2150,-0.2424,1.0233,0.1149
1.2150,-0.2444,1.0172,0.1173
1.2420,-0.2444,1.0172,0.1173
1.2460,-0.2444,1.0172,0.1173
1.2460,-0.2444,1.0172,0.1173
1.2460,-0.2444,1.0172,0.1173
1.2470,-0.2446,1.0230,0.1183
1.2480,-0.2446,1.0230,0.1183
1.2650,-0.2446,1.0230,0.1183
1.2670,-0.2446,1.0230,0.1183
1.2670,-0.2446,1.0230,0.1183
1.2670,-0.2432,1.0269,0.1168
1.2670,-0.2432,1.0269,0.1168
1.2940,-0.2432,1.0269,0.1168
1.2940,-0.2432,1.0269,0.1168
1.2940,-0.2432,1.0269,0.1168
1.2960,-0.2415,1.0274,0.1300
1.2960,-0.2412,1.0245,0.1151
1.3250,-0.2412,1.0245,0.1151
1.3250,-0.2412,1.0245,0.1151
1.3250,-0.2412,1.0245,0.1151
1.3250,-0.2456,1.0220,0.1151
1.3440,-0.2456,1.0220,0.1151
1.3460,-0.2456,1.0220,0.1151
1.3460,-0.2456,1.0220,0.1151
1.3460,-0.2547,1.0245,0.1171
1.3470,-0.2547,1.0245,0.1171
1.3740,-0.2547,1.0245,0.1171
1.3740,-0.2547,1.0245,0.1171
1.3750,-0.2547,1.0245,0.1171
1.3750,-0.2534,1.0264,0.1183
1.3750,-0.2429,1.0228,0.1237
1.4040,-0.2429,1.0228,0.1237
1.4050,-0.2429,1.0228,0.1237
1.4050,-0.2429,1.0228,0.1237
1.4050,-0.2444,1.0137,0.1249
1.4250,-0.2444,1.0137,0.1249
1.4260,-0.2444,1.0137,0.1249
1.4260,-0.2444,1.0137,0.1249
1.4270,-0.2500,1.0181,0.1232
1.4270,-0.2500,1.0181,0.1232
1.4420,-0.2500,1.0181,0.1232
1.4540,-0.2500,1.0181,0.1232
1.4540,-0.2500,1.0181,0.1232
1.4540,-0.2500,1.0181,0.1232
1.4550,-0.2471,1.0289,0.1122
1.4560,-0.2402,1.0274,0.1107
1.4840,-0.2402,1.0274,0.1107
1.4850,-0.2402,1.0274,0.1107
1.4850,-0.2402,1.0274,0.1107
1.4850,-0.2383,1.0230,0.1190
1.5050,-0.2383,1.0230,0.1190
1.5060,-0.2383,1.0230,0.1190
1.5060,-0.2383,1.0230,0.1190
1.5060,-0.2334,1.0191,0.1166
1.5070,-0.2334,1.0191,0.1166
1.5340,-0.2334,1.0191,0.1166
1.5350,-0.2334,1.0191,0.1166
1.5350,-0.2334,1.0191,0.1166
1.5360,-0.2405,1.0189,0.1185
1.5360,-0.2478,1.0240,0.1122
1.5650,-0.2478,1.0240,0.1122
1.5660,-0.2478,1.0240,0.1122
1.5670,-0.2478,1.0240,0.1122
1.5680,-0.2537,1.0245,0.1134
1.5860,-0.2537,1.0245,0.1134
1.5860,-0.2537,1.0245,0.1134
1.5870,-0.2537,1.0245,0.1134
1.5870,-0.2554,1.0208,0.1237
1.5880,-0.2554,1.0208,0.1237
1.6160,-0.2554,1.0208,0.1237
1.6170,-0.2554,1.0208,0.1237
1.6180,-0.2554,1.0208,0.1237
1.6180,-0.2405,1.0237,0.1139
1.6190,-0.2334,1.0193,0.1132
1.6420,-0.2334,1.0193,0.1132
1.6460,-0.2334,1.0193,0.1132
1.6460,-0.2334,1.0193,0.1132
1.6470,-0.2334,1.0193,0.1132
1.6470,-0.2437,1.0176,0.1246
1.6670,-0.2437,1.0176,0.1246
1.6680,-0.2437,1.0176,0.1246
1.6690,-0.2437,1.0176,0.1246
1.6720,-0.2507,1.0235,0.1217
1.6730,-0.2507,1.0235,0.1217
1.6950,-0.2507,1.0235,0.1217
1.6950,-0.2507,1.0235,0.1217
1.6960,-0.2507,1.0235,0.1217
1.6970,-0.2446,1.0277,0.1171
1.6970,-0.2368,1.0255,0.1156
1.7250,-0.2368,1.0255,0.1156
1.7260,-0.2368,1.0255,0.1156
1.7270,-0.2368,1.0255,0.1156
1.7270,-0.2305,1.0196,0.1183
1.7460,-0.2305,1.0196,0.1183
1.7480,-0.2305,1.0196,0.1183
1.7480,-0.2305,1.0196,0.1183
1.7490,-0.2351,1.0223,0.1163
1.7500,-0.2351,1.0223,0.1163
1.7760,-0.2351,1.0223,0.1163
1.7770,-0.2351,1.0223,0.1163
1.7780,-0.2351,1.0223,0.1163
1.7790,-0.2373,1.0274,0.1132
1.7800,-0.2388,1.0281,0.1205
1.8050,-0.2388,1.0281,0.1205
1.8060,-0.2388,1.0281,0.1205
1.8060,-0.2388,1.0281,0.1205
1.8070,-0.2451,1.0240,0.1220
1.8270,-0.2451,1.0240,0.1220
1.8280,-0.2451,1.0240,0.1220
1.8280,-0.2451,1.0240,0.1220
1.8320,-0.2549,1.0215,0.1163
1.8340,-0.2549,1.0215,0.1163
1.8420,-0.2549,1.0215,0.1163
1.8570,-0.2549,1.0215,0.1163
1.8580,-0.2549,1.0215,0.1163
1.8600,-0.2549,1.0215,0.1163
1.8610,-0.2454,1.0233,0.1114
1.8620,-0.2353,1.0203,0.1193
1.8860,-0.2353,1.0203,0.1193
1.8870,-0.2353,1.0203,0.1193
1.8870,-0.2353,1.0203,0.1193
1.8880,-0.2309,1.0240,0.1205
1.9090,-0.2309,1.0240,0.1205
1.9110,-0.2309,1.0240,0.1205
1.9120,-0.2309,1.0240,0.1205
1.9130,-0.2346,1.0233,0.1246
1.9130,-0.2346,1.0233,0.1246
1.9360,-0.2346,1.0233,0.1246
1.9360,-0.2346,1.0233,0.1246
1.9370,-0.2346,1.0233,0.1246
1.9380,-0.2439,1.0206,0.1185
1.9380,-0.2493,1.0306,0.1122
1.9660,-0.2493,1.0306,0.1122
1.9670,-0.2493,1.0306,0.1122
1.9680,-0.2493,1.0306,0.1122
1.9690,-0.2485,1.0340,0.1107
1.9880,-0.2485,1.0340,0.1107
1.9880,-0.2485,1.0340,0.1107
1.9890,-0.2485,1.0340,0.1107
1.9890,-0.2397,1.0274,0.1232
1.9950,-0.2397,1.0274,0.1232
2.0170,-0.2397,1.0274,0.1232
2.0170,-0.2397,1.0274,0.1232
2.0180,-0.2397,1.0274,0.1232
2.0180,-0.2353,1.0218,0.1205
2.0190,-0.2463,1.0201,0.1188
2.0430,-0.2463,1.0201,0.1188
2.0470,-0.2463,1.0201,0.1188
2.0480,-0.2463,1.0201,0.1188
2.0490,-0.2463,1.0201,0.1188
2.0520,-0.2471,1.0269,0.1200
2.0680,-0.2471,1.0269,0.1200
2.0680,-0.2471,1.0269,0.1200
2.0700,-0.2471,1.0269,0.1200
2.0750,-0.2356,1.0237,0.1227
2.0890,-0.2356,1.0237,0.1227
2.0960,-0.2356,1.0237,0.1227
2.0960,-0.2356,1.0237,0.1227
2.0970,-0.2356,1.0237,0.1227
2.0970,-0.2317,1.0186,0.1217
2.0980,-0.2358,1.0237,0.1183
2.1250,-0.2358,1.0237,0.1183
2.1250,-0.2358,1.0237,0.1183
2.1260,-0.2358,1.0237,0.1183
2.1260,-0.2383,1.0240,0.1107
2.1470,-0.2383,1.0240,0.1107
2.1480,-0.2383,1.0240,0.1107
2.1490,-0.2383,1.0240,0.1107
2.1490,-0.2424,1.0186,0.1146
2.1500,-0.2424,1.0186,0.1146
2.1770,-0.2424,1.0186,0.1146
2.1780,-0.2424,1.0186,0.1146
2.1780,-0.2424,1.0186,0.1146
2.1790,-0.2451,1.0201,0.1276
2.1790,-0.2385,1.0277,0.1129
2.2070,-0.2385,1.0277,0.1129
2.2080,-0.2385,1.0277,0.1129
2.2090,-0.2385,1.0277,0.1129
2.2090,-0.2346,1.0291,0.1166
2.2280,-0.2346,1.0291,0.1166
2.2320,-0.2346,1.0291,0.1166
2.2330,-0.2346,1.0291,0.1166
2.2360,-0.2400,1.0245,0.1220
2.2370,-0.2400,1.0245,0.1220
2.2440,-0.2400,1.0245,0.1220
2.2570,-0.2400,1.0245,0.1220
2.2590,-0.2400,1.0245,0.1220
2.2600,-0.2400,1.0245,0.1220
2.2600,-0.2500,1.0184,0.1283
2.2610,-0.2493,1.0257,0.1139
2.2880,-0.2493,1.0257,0.1139
2.2930,-0.2493,1.0257,0.1139
2.2960,-0.2493,1.0257,0.1139
2.2970,-0.2544,1.0198,0.1129
2.3080,-0.2544,1.0198,0.1129
2.3080,-0.2544,1.0198,0.1129
2.3090,-0.2544,1.0198,0.1129
2.3090,-0.2527,1.0193,0.1234
2.3100,-0.2527,1.0193,0.1234
2.3370,-0.2527,1.0193,0.1234
2.3370,-0.2527,1.0193,0.1234
2.3380,-0.2527,1.0193,0.1234
2.3380,-0.2378,1.0264,0.1178
2.3390,-0.2300,1.0233,0.1227
2.3680,-0.2300,1.0233,0.1227
2.3690,-0.2300,1.0233,0.1227
2.3700,-0.2300,1.0233,0.1227
2.3710,-0.2361,1.0196,0.1195
2.3880,-0.2361,1.0196,0.1195
2.3900,-0.2361,1.0196,0.1195
2.3910,-0.2361,1.0196,0.1195
2.3920,-0.2407,1.0233,0.1124
2.3940,-0.2407,1.0233,0.1124
2.4180,-0.2407,1.0233,0.1124
2.4190,-0.2407,1.0233,0.1124
2.4190,-0.2407,1.0233,0.1124
2.4200,-0.2341,1.0321,0.1158
2.4210,-0.2339,1.0303,0.1149
2.4440,-0.2339,1.0303,0.1149
2.4500,-0.2339,1.0303,0.1149
2.4510,-0.2339,1.0303,0.1149
2.4510,-0.2339,1.0303,0.1149
2.4530,-0.2302,1.0245,0.1193
2.4690,-0.2302,1.0245,0.1193
2.4700,-0.2302,1.0245,0.1193
2.4710,-0.2302,1.0245,0.1193
2.4720,-0.2361,1.0218,0.1232
2.4720,-0.2361,1.0218,0.1232
2.4980,-0.2361,1.0218,0.1232
2.5000,-0.2361,1.0218,0.1232
2.5010,-0.2361,1.0218,0.1232
2.5020,-0.2400,1.0267,0.1232
2.5030,-0.2456,1.0306,0.1136
2.5280,-0.2456,1.0306,0.1136
2.5290,-0.2456,1.0306,0.1136
2.5300,-0.2456,1.0306,0.1136
2.5310,-0.2427,1.0325,0.1102
2.5490,-0.2427,1.0325,0.1102
2.5510,-0.2427,1.0325,0.1102
2.5520,-0.2427,1.0325,0.1102
2.5520,-0.2405,1.0262,0.1171
2.5540,-0.2405,1.0262,0.1171
2.5780,-0.2405,1.0262,0.1171
2.5790,-0.2405,1.0262,0.1171
2.5800,-0.2405,1.0262,0.1171
2.5810,-0.2432,1.0167,0.1249
2.5820,-0.2441,1.0198,0.1220
2.6120,-0.2441,1.0198,0.1220
2.6140,-0.2441,1.0198,0.1220
2.6140,-0.2441,1.0198,0.1220
2.6150,-0.2361,1.0255,0.1176
2.6320,-0.2361,1.0255,0.1176
2.6320,-0.2361,1.0255,0.1176
2.6330,-0.2361,1.0255,0.1176
2.6360,-0.2317,1.0269,0.1144
2.6540,-0.2317,1.0269,0.1144
2.6550,-0.2317,1.0269,0.1144
2.6590,-0.2317,1.0269,0.1144
2.6590,-0.2317,1.0269,0.1144
2.6590,-0.2317,1.0269,0.1144
2.6600,-0.2368,1.0240,0.1156
2.6600,-0.2390,1.0237,0.1176
2.6860,-0.2390,1.0237,0.1176
2.6870,-0.2390,1.0237,0.1176
2.6870,-0.2390,1.0237,0.1176
2.6880,-0.2432,1.0213,0.1144
2.7070,-0.2432,1.0213,0.1144
2.7090,-0.2432,1.0213,0.1144
2.7120,-0.2432,1.0213,0.1144
2.7130,-0.2446,1.0213,0.1127
2.7150,-0.2446,1.0213,0.1127
2.7380,-0.2446,1.0213,0.1127
2.7390,-0.2446,1.0213,0.1127
2.7400,-0.2446,1.0213,0.1127
2.7420,-0.2451,1.0272,0.1136
2.7430,-0.2366,1.0301,0.1251
2.7680,-0.2366,1.0301,0.1251
2.7710,-0.2366,1.0301,0.1251
2.7710,-0.2366,1.0301,0.1251
2.7720,-0.2402,1.0169,0.1232
2.7890,-0.2402,1.0169,0.1232
2.7910,-0.2402,1.0169,0.1232
2.7920,-0.2402,1.0169,0.1232
2.7930,-0.2449,1.0147,0.1224
2.7930,-0.2449,1.0147,0.1224
2.8190,-0.2449,1.0147,0.1224
2.8200,-0.2449,1.0147,0.1224
2.8210,-0.2449,1.0147,0.1224
2.8210,-0.2459,1.0220,0.1234
2.8220,-0.2485,1.0296,0.1176
2.8440,-0.2485,1.0296,0.1176
2.8500,-0.2485,1.0296,0.1176
2.8510,-0.2485,1.0296,0.1176
2.8510,-0.2485,1.0296,0.1176
2.8520,-0.2481,1.0296,0.1151
2.8700,-0.2481,1.0296,0.1151
2.8710,-0.2481,1.0296,0.1151
2.8720,-0.2481,1.0296,0.1151
2.8720,-0.2393,1.0299,0.1185
2.8740,-0.2393,1.0299,0.1185
2.8980,-0.2393,1.0299,0.1185
2.8990,-0.2393,1.0299,0.1185
2.9000,-0.2393,1.0299,0.1185
2.9010,-0.2300,1.0281,0.1132
2.9020,-0.2270,1.0230,0.1207
2.9280,-0.2270,1.0230,0.1207
2.9290,-0.2270,1.0230,0.1207
2.9290,-0.2270,1.0230,0.1207
2.9300,-0.2273,1.0250,0.1259
2.9510,-0.2273,1.0250,0.1259
2.9520,-0.2273,1.0250,0.1259
2.9520,-0.2273,1.0250,0.1259
2.9550,-0.2248,1.0206,0.1217
2.9550,-0.2248,1.0206,0.1217
2.9770,-0.2248,1.0206,0.1217
2.9780,-0.2248,1.0206,0.1217
2.9790,-0.2248,1.0206,0.1217
2.9790,-0.2263,1.0203,0.1234
2.9800,-0.2410,1.0296,0.1207
3.0070,-0.2410,1.0296,0.1207
3.0080,-0.2410,1.0296,0.1207
3.0090,-0.2410,1.0296,0.1207
3.0120,-0.2422,1.0340,0.1122
3.0320,-0.2422,1.0340,0.1122
3.0330,-0.2422,1.0340,0.1122
3.0350,-0.2422,1.0340,0.1122
3.0360,-0.2361,1.0318,0.1166
3.0370,-0.2361,1.0318,0.1166
3.0440,-0.2361,1.0318,0.1166
3.0590,-0.2361,1.0318,0.1166
3.0600,-0.2361,1.0318,0.1166
3.0600,-0.2361,1.0318,0.1166
3.0610,-0.2349,1.0242,0.1224
3.0620,-0.2412,1.0191,0.1202
3.0930,-0.2412,1.0191,0.1202
3.0930,-0.2412,1.0191,0.1202
3.0940,-0.2412,1.0191,0.1202
3.0940,-0.2368,1.0203,0.1190
3.1090,-0.2368,1.0203,0.1190
3.1090,-0.2368,1.0203,0.1190
3.1090,-0.2368,1.0203,0.1190
3.1100,-0.2307,1.0343,0.1156
3.1100,-0.2307,1.0343,0.1156
3.1380,-0.2307,1.0343,0.1156
3.1390,-0.2307,1.0343,0.1156
3.1400,-0.2307,1.0343,0.1156
3.1410,-0.2336,1.0311,0.1134
3.1420,-0.2334,1.0196,0.1185
3.1670,-0.2334,1.0196,0.1185
3.1680,-0.2334,1.0196,0.1185
3.1690,-0.2334,1.0196,0.1185
3.1700,-0.2324,1.0230,0.1234
3.1900,-0.2324,1.0230,0.1234
3.1910,-0.2324,1.0230,0.1234
3.1920,-0.2324,1.0230,0.1234
3.2090,-0.2287,1.0252,0.1163
3.2100,-0.2287,1.0252,0.1163
3.2200,-0.2287,1.0252,0.1163
3.2200,-0.2287,1.0252,0.1163
3.2210,-0.2287,1.0252,0.1163
3.2210,-0.2344,1.0299,0.1193
3.2210,-0.2385,1.0303,0.1173
3.2410,-0.2385,1.0303,0.1173
3.2480,-0.2385,1.0303,0.1173
3.2480,-0.2385,1.0303,0.1173
3.2490,-0.2385,1.0303,0.1173
3.2490,-0.2385,1.0311,0.1163
3.2670,-0.2385,1.0311,0.1163
3.2680,-0.2385,1.0311,0.1163
3.2680,-0.2385,1.0311,0.1163
3.2690,-0.2334,1.0316,0.1117
3.2700,-0.2334,1.0316,0.1117
3.2970,-0.2334,1.0316,0.1117
3.2980,-0.2334,1.0316,0.1117
3.2980,-0.2334,1.0316,0.1117
3.2990,-0.2309,1.0286,0.1122
3.2990,-0.2307,1.0184,0.1317
3.3280,-0.2307,1.0184,0.1317
3.3290,-0.2307,1.0184,0.1317
3.3300,-0.2307,1.0184,0.1317
3.3310,-0.2388,1.0184,0.1320
3.3540,-0.2388,1.0184,0.1320
3.3560,-0.2388,1.0184,0.1320
3.3570,-0.2388,1.0184,0.1320
3.3570,-0.2424,1.0279,0.1107
3.3580,-0.2424,1.0279,0.1107
3.3790,-0.2424,1.0279,0.1107
3.3810,-0.2424,1.0279,0.1107
3.3820,-0.2424,1.0279,0.1107
3.3840,-0.2424,1.0350,0.1134
3.3840,-0.2422,1.0340,0.1215
3.4080,-0.2422,1.0340,0.1215
3.4090,-0.2422,1.0340,0.1215
3.4100,-0.2422,1.0340,0.1215
3.4100,-0.2405,1.0235,0.1190
3.4350,-0.2405,1.0235,0.1190
3.4360,-0.2405,1.0235,0.1190
3.4370,-0.2405,1.0235,0.1190
3.4380,-0.2407,1.0176,0.1193
3.4400,-0.2407,1.0176,0.1193
3.4450,-0.2407,1.0176,0.1193
3.4590,-0.2407,1.0176,0.1193
3.4590,-0.2407,1.0176,0.1193
3.4600,-0.2407,1.0176,0.1193
3.4610,-0.2417,1.0169,0.1183
3.4610,-0.2378,1.0264,0.1158
3.4880,-0.2378,1.0264,0.1158
3.4890,-0.2378,1.0264,0.1158
3.4930,-0.2378,1.0264,0.1158
3.4940,-0.2324,1.0352,0.1141
3.5120,-0.2324,1.0352,0.1141
3.5120,-0.2324,1.0352,0.1141
3.5130,-0.2324,1.0352,0.1141
3.5140,-0.2295,1.0277,0.1173
3.5140,-0.2295,1.0277,0.1173
3.5390,-0.2295,1.0277,0.1173
3.5400,-0.2295,1.0277,0.1173
3.5400,-0.2295,1.0277,0.1173
3.5410,-0.2324,1.0193,0.1227
3.5410,-0.2353,1.0237,0.1114
3.5680,-0.2353,1.0237,0.1114
3.5690,-0.2353,1.0237,0.1114
3.5700,-0.2353,1.0237,0.1114
3.5710,-0.2402,1.0242,0.1176
3.5900,-0.2402,1.0242,0.1176
3.5910,-0.2402,1.0242,0.1176
3.5920,-0.2402,1.0242,0.1176
3.5920,-0.2456,1.0267,0.1229
3.5930,-0.2456,1.0267,0.1229
3.6180,-0.2456,1.0267,0.1229
3.6180,-0.2456,1.0267,0.1229
3.6190,-0.2456,1.0267,0.1229
3.6200,-0.2456,1.0301,0.1097
3.6210,-0.2468,1.0218,0.1198
3.6430,-0.2468,1.0218,0.1198
3.6500,-0.2468,1.0218,0.1198
3.6510,-0.2468,1.0218,0.1198
3.6520,-0.2468,1.0218,0.1198
3.6520,-0.2417,1.0184,0.1276
3.6720,-0.2417,1.0184,0.1276
3.6730,-0.2417,1.0184,0.1276
3.6740,-0.2417,1.0184,0.1276
3.6750,-0.2417,1.0242,0.1202
3.6750,-0.2417,1.0242,0.1202
3.6980,-0.2417,1.0242,0.1202
3.6990,-0.2417,1.0242,0.1202
3.6990,-0.2417,1.0242,0.1202
3.7000,-0.2368,1.0269,0.1134
3.7000,-0.2327,1.0225,0.1144
3.7290,-0.2327,1.0225,0.1144
3.7310,-0.2327,1.0225,0.1144
3.7320,-0.2327,1.0225,0.1144
3.7320,-0.2380,1.0201,0.1200
3.7490,-0.2380,1.0201,0.1200
3.7540,-0.2380,1.0201,0.1200
3.7720,-0.2380,1.0201,0.1200
3.7720,-0.2434,1.0159,0.1163
3.7730,-0.2434,1.0159,0.1163
3.7780,-0.2434,1.0159,0.1163
3.7780,-0.2434,1.0159,0.1163
3.7780,-0.2434,1.0159,0.1163
3.7790,-0.2390,1.0235,0.1217
3.7790,-0.2363,1.0316,0.1241
3.8080,-0.2363,1.0316,0.1241
3.8080,-0.2363,1.0316,0.1241
3.8080,-0.2363,1.0316,0.1241
3.8090,-0.2415,1.0225,0.1232
3.8300,-0.2415,1.0225,0.1232
3.8310,-0.2415,1.0225,0.1232
3.8320,-0.2415,1.0225,0.1232
3.8320,-0.2471,1.0215,0.1180
3.8330,-0.2471,1.0215,0.1180
3.8420,-0.2471,1.0215,0.1180
3.8450,-0.2471,1.0215,0.1180
3.8580,-0.2471,1.0215,0.1180
3.8590,-0.2471,1.0215,0.1180
3.8590,-0.2471,1.0215,0.1180
3.8600,-0.2439,1.0291,0.1078
3.8610,-0.2395,1.0277,0.1188
3.8890,-0.2395,1.0277,0.1188
3.8890,-0.2395,1.0277,0.1188
3.8900,-0.2395,1.0277,0.1188
3.8900,-0.2378,1.0203,0.1202
3.9100,-0.2378,1.0203,0.1202
3.9110,-0.2378,1.0203,0.1202
3.9110,-0.2378,1.0203,0.1202
3.9120,-0.2349,1.0164,0.1234
3.9130,-0.2349,1.0164,0.1234
3.9390,-0.2349,1.0164,0.1234
3.9400,-0.2349,1.0164,0.1234
3.9410,-0.2349,1.0164,0.1234
3.9410,-0.2363,1.0211,0.1239
3.9420,-0.2390,1.0299,0.1122
3.9720,-0.2390,1.0299,0.1122
3.9740,-0.2390,1.0299,0.1122
3.9750,-0.2390,1.0299,0.1122
3.9760,-0.2327,1.0318,0.1053
3.9890,-0.2327,1.0318,0.1053
3.9910,-0.2327,1.0318,0.1053
3.9940,-0.2327,1.0318,0.1053
3.9950,-0.2329,1.0215,0.1298
3.9960,-0.2329,1.0215,0.1298
4.0190,-0.2329,1.0215,0.1298
4.0210,-0.2329,1.0215,0.1298
4.0210,-0.2329,1.0215,0.1298
4.0220,-0.2351,1.0215,0.1271
4.0220,-0.2361,1.0255,0.1124
4.0470,-0.2361,1.0255,0.1124
4.0480,-0.2361,1.0255,0.1124
4.0490,-0.2361,1.0255,0.1124
4.0500,-0.2361,1.0255,0.1124
4.0500,-0.2407,1.0237,0.1154
4.0710,-0.2407,1.0237,0.1154
4.0730,-0.2407,1.0237,0.1154
4.0740,-0.2407,1.0237,0.1154
4.0740,-0.2483,1.0296,0.1097
4.0750,-0.2483,1.0296,0.1097
4.0980,-0.2483,1.0296,0.1097
4.0990,-0.2483,1.0296,0.1097
4.0990,-0.2483,1.0296,0.1097
4.0990,-0.2485,1.0308,0.1173
4.1000,-0.2459,1.0215,0.1271
4.1280,-0.2459,1.0215,0.1271
4.1280,-0.2459,1.0215,0.1271
4.1280,-0.2459,1.0215,0.1271
4.1290,-0.2400,1.0196,0.1166
4.1480,-0.2400,1.0196,0.1166
4.1490,-0.2400,1.0196,0.1166
4.1490,-0.2400,1.0196,0.1166
4.1490,-0.2349,1.0257,0.1166
4.1490,-0.2349,1.0257,0.1166
4.1790,-0.2349,1.0257,0.1166
4.1790,-0.2349,1.0257,0.1166
4.1790,-0.2349,1.0257,0.1166
4.1790,-0.2341,1.0259,0.1168
4.1800,-0.2395,1.0215,0.1163
4.2100,-0.2395,1.0215,0.1163
4.2100,-0.2395,1.0215,0.1163
4.2100,-0.2395,1.0215,0.1163
4.2110,-0.2363,1.0259,0.1088
4.2310,-0.2363,1.0259,0.1088
4.2310,-0.2363,1.0259,0.1088
4.2310,-0.2363,1.0259,0.1088
4.2320,-0.2270,1.0345,0.1066
4.2320,-0.2270,1.0345,0.1066
4.2440,-0.2270,1.0345,0.1066
4.2600,-0.2270,1.0345,0.1066
4.2610,-0.2270,1.0345,0.1066
4.2610,-0.2270,1.0345,0.1066
4.2610,-0.2388,1.0230,0.1261
4.2610,-0.2459,1.0184,0.1298
4.2890,-0.2459,1.0184,0.1298
4.2900,-0.2459,1.0184,0.1298
4.2900,-0.2459,1.0184,0.1298
4.2900,-0.2400,1.0289,0.1129
4.3080,-0.2400,1.0289,0.1129
4.3100,-0.2400,1.0289,0.1129
4.3110,-0.2400,1.0289,0.1129
4.3110,-0.2380,1.0343,0.1080
4.3110,-0.2380,1.0343,0.1080
4.3390,-0.2380,1.0343,0.1080
4.3390,-0.2380,1.0343,0.1080
4.3390,-0.2380,1.0343,0.1080
4.3400,-0.2419,1.0306,0.1163
4.3400,-0.2473,1.0196,0.1251
4.3680,-0.2473,1.0196,0.1251
4.3680,-0.2473,1.0196,0.1251
4.3680,-0.2473,1.0196,0.1251
4.3690,-0.2466,1.0181,0.1276
4.3890,-0.2466,1.0181,0.1276
4.3900,-0.2466,1.0181,0.1276
4.3910,-0.2466,1.0181,0.1276
4.3910,-0.2451,1.0240,0.1234
4.3910,-0.2451,1.0240,0.1234
4.4180,-0.2451,1.0240,0.1234
4.4180,-0.2451,1.0240,0.1234
4.4180,-0.2451,1.0240,0.1234
4.4190,-0.2395,1.0269,0.1092
4.4190,-0.2353,1.0223,0.1127
4.4430,-0.2353,1.0223,0.1127
4.4470,-0.2353,1.0223,0.1127
4.4480,-0.2353,1.0223,0.1127
4.4480,-0.2353,1.0223,0.1127
4.4480,-0.2339,1.0198,0.1320
4.4680,-0.2339,1.0198,0.1320
4.4700,-0.2339,1.0198,0.1320
4.4700,-0.2339,1.0198,0.1320
4.4700,-0.2375,1.0247,0.1249
4.4700,-0.2375,1.0247,0.1249
4.4980,-0.2375,1.0247,0.1249
4.4990,-0.2375,1.0247,0.1249
4.4990,-0.2375,1.0247,0.1249
4.4990,-0.2371,1.0255,0.1132
4.4990,-0.2351,1.0255,0.1149
4.5290,-0.2351,1.0255,0.1149
4.5290,-0.2351,1.0255,0.1149
4.5290,-0.2351,1.0255,0.1149
4.5290,-0.2454,1.0291,0.1168
4.5490,-0.2454,1.0291,0.1168
4.5500,-0.2454,1.0291,0.1168
4.5500,-0.2454,1.0291,0.1168
4.5500,-0.2542,1.0176,0.1195
4.5500,-0.2542,1.0176,0.1195
4.5780,-0.2542,1.0176,0.1195
4.5790,-0.2542,1.0176,0.1195
4.5790,-0.2542,1.0176,0.1195
4.5790,-0.2512,1.0215,0.1239
4.5800,-0.2415,1.0286,0.1227
4.6090,-0.2415,1.0286,0.1227
4.6090,-0.2415,1.0286,0.1227
4.6090,-0.2415,1.0286,0.1227
4.6090,-0.2363,1.0186,0.1210
4.6300,-0.2363,1.0186,0.1210
4.6300,-0.2363,1.0186,0.1210
4.6300,-0.2363,1.0186,0.1210
4.6310,-0.2405,1.0167,0.1180
4.6310,-0.2405,1.0167,0.1180
4.6410,-0.2405,1.0167,0.1180
4.6580,-0.2405,1.0167,0.1180
4.6580,-0.2405,1.0167,0.1180
4.6590,-0.2405,1.0167,0.1180
4.6590,-0.2417,1.0252,0.1141
4.6590,-0.2410,1.0218,0.1185
4.6880,-0.2410,1.0218,0.1185
4.6890,-0.2410,1.0218,0.1185
4.6890,-0.2410,1.0218,0.1185
4.6890,-0.2471,1.0184,0.1239
4.7090,-0.2471,1.0184,0.1239
4.7110,-0.2471,1.0184,0.1239
4.7110,-0.2471,1.0184,0.1239
4.7120,-0.2476,1.0233,0.1249
4.7120,-0.2476,1.0233,0.1249
4.7400,-0.2476,1.0233,0.1249
4.7400,-0.2476,1.0233,0.1249
4.7400,-0.2476,1.0233,0.1249
4.7410,-0.2424,1.0262,0.1217
4.7410,-0.2366,1.0286,0.1220
4.7690,-0.2366,1.0286,0.1220
4.7690,-0.2366,1.0286,0.1220
4.7700,-0.2366,1.0286,0.1220
4.7700,-0.2339,1.0279,0.1183
4.7900,-0.2339,1.0279,0.1183
4.7900,-0.2339,1.0279,0.1183
4.7900,-0.2339,1.0279,0.1183
4.7910,-0.2339,1.0167,0.1261
4.7910,-0.2339,1.0167,0.1261
4.8190,-0.2339,1.0167,0.1261
4.8200,-0.2339,1.0167,0.1261
4.8200,-0.2339,1.0167,0.1261
4.8200,-0.2344,1.0211,0.1149
4.8210,-0.2353,1.0296,0.1166
4.8450,-0.2353,1.0296,0.1166
4.8490,-0.2353,1.0296,0.1166
4.8500,-0.2353,1.0296,0.1166
4.8500,-0.2353,1.0296,0.1166
4.8590,-0.2368,1.0311,0.1178
4.8700,-0.2368,1.0311,0.1178
4.8710,-0.2368,1.0311,0.1178
4.8710,-0.2368,1.0311,0.1178
4.8720,-0.2400,1.0301,0.1144
4.8720,-0.2400,1.0301,0.1144
4.8990,-0.2400,1.0301,0.1144
4.8990,-0.2400,1.0301,0.1144
4.9000,-0.2400,1.0301,0.1144
4.9000,-0.2444,1.0247,0.1168
4.9010,-0.2383,1.0215,0.1246
4.9300,-0.2383,1.0215,0.1246
4.9300,-0.2383,1.0215,0.1246
4.9300,-0.2383,1.0215,0.1246
4.9300,-0.2400,1.0203,0.1334
4.9500,-0.2400,1.0203,0.1334
4.9510,-0.2400,1.0203,0.1334
4.9510,-0.2400,1.0203,0.1334
4.9520,-0.2512,1.0193,0.1342
4.9520,-0.2512,1.0193,0.1342
4.9800,-0.2512,1.0193,0.1342
4.9800,-0.2512,1.0193,0.1342
4.9810,-0.2512,1.0193,0.1342
4.9810,-0.2539,1.0262,0.1139
4.9810,-0.2388,1.0284,0.1051
5.0100,-0.2388,1.0284,0.1051
5.0110,-0.2388,1.0284,0.1051
5.0110,-0.2388,1.0284,0.1051
5.0120,-0.2283,1.0299,0.1136
5.0290,-0.2283,1.0299,0.1136
5.0300,-0.2283,1.0299,0.1136
5.0300,-0.2283,1.0299,0.1136
5.0300,-0.2322,1.0259,0.1237
5.0310,-0.2322,1.0259,0.1237
5.0420,-0.2322,1.0259,0.1237
5.0600,-0.2322,1.0259,0.1237
5.0610,-0.2322,1.0259,0.1237
5.0610,-0.2322,1.0259,0.1237
5.0610,-0.2341,1.0186,0.1249
5.0610,-0.2336,1.0186,0.1200
5.0890,-0.2336,1.0186,0.1200
5.0890,-0.2336,1.0186,0.1200
5.0890,-0.2336,1.0186,0.1200
5.0900,-0.2344,1.0220,0.1229
5.1100,-0.2344,1.0220,0.1229
5.1130,-0.2344,1.0220,0.1229
5.1140,-0.2344,1.0220,0.1229
5.1140,-0.2385,1.0220,0.1259
5.1140,-0.2385,1.0220,0.1259
5.1400,-0.2385,1.0220,0.1259
5.1400,-0.2385,1.0220,0.1259
5.1400,-0.2385,1.0220,0.1259
5.1400,-0.2412,1.0225,0.1193
5.1410,-0.2503,1.0259,0.1161
5.1700,-0.2503,1.0259,0.1161
5.1700,-0.2503,1.0259,0.1161
5.1710,-0.2503,1.0259,0.1161
5.1710,-0.2517,1.0186,0.1241
5.1920,-0.2517,1.0186,0.1241
5.1920,-0.2517,1.0186,0.1241
5.1920,-0.2517,1.0186,0.1241
5.1930,-0.2405,1.0237,0.1237
5.1930,-0.2405,1.0237,0.1237
5.2190,-0.2405,1.0237,0.1237
5.2200,-0.2405,1.0237,0.1237
5.2200,-0.2405,1.0237,0.1237
5.2200,-0.2378,1.0213,0.1273
5.2200,-0.2383,1.0211,0.1254
5.2440,-0.2383,1.0211,0.1254
5.2500,-0.2383,1.0211,0.1254
5.2500,-0.2383,1.0211,0.1254
5.2510,-0.2383,1.0211,0.1254
5.2510,-0.2300,1.0316,0.1171
5.2720,-0.2300,1.0316,0.1171
5.2720,-0.2300,1.0316,0.1171
5.2730,-0.2300,1.0316,0.1171
5.2730,-0.2248,1.0338,0.1166
5.2730,-0.2248,1.0338,0.1166
5.3000,-0.2248,1.0338,0.1166
5.3000,-0.2248,1.0338,0.1166
5.3010,-0.2248,1.0338,0.1166
5.3010,-0.2256,1.0237,0.1183
5.3010,-0.2314,1.0225,0.1117
5.3310,-0.2314,1.0225,0.1117
5.3310,-0.2314,1.0225,0.1117
5.3310,-0.2314,1.0225,0.1117
5.3320,-0.2324,1.0228,0.1210
5.3520,-0.2324,1.0228,0.1210
5.3540,-0.2324,1.0228,0.1210
5.3550,-0.2324,1.0228,0.1210
5.3550,-0.2334,1.0281,0.1237
5.3550,-0.2334,1.0281,0.1237
5.3810,-0.2334,1.0281,0.1237
5.3820,-0.2334,1.0281,0.1237
5.3820,-0.2334,1.0281,0.1237
5.3820,-0.2439,1.0259,0.1180
5.3820,-0.2490,1.0247,0.1224
5.4130,-0.2490,1.0247,0.1224
5.4130,-0.2490,1.0247,0.1224
5.4140,-0.2490,1.0247,0.1224
5.4260,-0.2432,1.0274,0.1220
5.4330,-0.2432,1.0274,0.1220
5.4340,-0.2432,1.0274,0.1220
5.4340,-0.2432,1.0274,0.1220
5.4340,-0.2415,1.0220,0.1144
5.4340,-0.2415,1.0220,0.1144
5.4430,-0.2415,1.0220,0.1144
5.4600,-0.2415,1.0220,0.1144
5.4600,-0.2415,1.0220,0.1144
5.4600,-0.2415,1.0220,0.1144
5.4610,-0.2393,1.0220,0.1178
5.4610,-0.2373,1.0325,0.1198
5.4900,-0.2373,1.0325,0.1198
5.4910,-0.2373,1.0325,0.1198
5.4910,-0.2373,1.0325,0.1198
5.4910,-0.2363,1.0218,0.1246
5.5100,-0.2363,1.0218,0.1246
5.5140,-0.2363,1.0218,0.1246
5.5140,-0.2363,1.0218,0.1246
5.5140,-0.2358,1.0201,0.1217
5.5150,-0.2358,1.0201,0.1217
5.5400,-0.2358,1.0201,0.1217
5.5400,-0.2358,1.0201,0.1217
5.5410,-0.2358,1.0201,0.1217
5.5410,-0.2375,1.0233,0.1100
5.5410,-0.2366,1.0255,0.1190
5.5700,-0.2366,1.0255,0.1190
5.5700,-0.2366,1.0255,0.1190
5.5700,-0.2366,1.0255,0.1190
5.5710,-0.2344,1.0296,0.1168
5.5900,-0.2344,1.0296,0.1168
5.5920,-0.2344,1.0296,0.1168
5.5920,-0.2344,1.0296,0.1168
5.5920,-0.2368,1.0269,0.1144
5.5930,-0.2368,1.0269,0.1144
5.6200,-0.2368,1.0269,0.1144
5.6200,-0.2368,1.0269,0.1144
5.6200,-0.2368,1.0269,0.1144
5.6200,-0.2417,1.0218,0.1176
5.6210,-0.2520,1.0123,0.1224
5.6450,-0.2520,1.0123,0.1224
5.6500,-0.2520,1.0123,0.1224
5.6500,-0.2520,1.0123,0.1224
5.6500,-0.2520,1.0123,0.1224
5.6500,-0.2517,1.0201,0.1229
5.6710,-0.2517,1.0201,0.1229
5.6720,-0.2517,1.0201,0.1229
5.6720,-0.2517,1.0201,0.1229
5.6720,-0.2441,1.0286,0.1227
5.6720,-0.2441,1.0286,0.1227
5.7000,-0.2441,1.0286,0.1227
5.7010,-0.2441,1.0286,0.1227
5.7010,-0.2441,1.0286,0.1227
5.7020,-0.2329,1.0262,0.1215
5.7020,-0.2317,1.0257,0.1244
5.7300,-0.2317,1.0257,0.1244
5.7310,-0.2317,1.0257,0.1244
5.7310,-0.2317,1.0257,0.1244
5.7320,-0.2388,1.0211,0.1178
5.7540,-0.2388,1.0211,0.1178
5.7550,-0.2388,1.0211,0.1178
5.7560,-0.2388,1.0211,0.1178
5.7580,-0.2402,1.0218,0.1163
5.7590,-0.2402,1.0218,0.1163
5.7810,-0.2402,1.0218,0.1163
5.7810,-0.2402,1.0218,0.1163
5.7820,-0.2402,1.0218,0.1163
5.7830,-0.2446,1.0255,0.1244
5.7830,-0.2449,1.0252,0.1246
5.8110,-0.2449,1.0252,0.1246
5.8120,-0.2449,1.0252,0.1246
5.8120,-0.2449,1.0252,0.1246
5.8130,-0.2410,1.0267,0.1227
5.8320,-0.2410,1.0267,0.1227
5.8330,-0.2410,1.0267,0.1227
5.8330,-0.2410,1.0267,0.1227
5.8340,-0.2349,1.0289,0.1136
5.8350,-0.2349,1.0289,0.1136
5.8430,-0.2349,1.0289,0.1136
5.8610,-0.2349,1.0289,0.1136
5.8620,-0.2349,1.0289,0.1136
5.8630,-0.2349,1.0289,0.1136
5.8640,-0.2346,1.0286,0.1156
5.8650,-0.2361,1.0223,0.1349
5.8910,-0.2361,1.0223,0.1349
5.8920,-0.2361,1.0223,0.1349
5.8930,-0.2361,1.0223,0.1349
5.8940,-0.2327,1.0284,0.1237
5.9120,-0.2327,1.0284,0.1237
5.9130,-0.2327,1.0284,0.1237
5.9140,-0.2327,1.0284,0.1237
5.9150,-0.2307,1.0296,0.1151
5.9160,-0.2307,1.0296,0.1151
5.9420,-0.2307,1.0296,0.1151
5.9430,-0.2307,1.0296,0.1151
5.9440,-0.2307,1.0296,0.1151
5.9460,-0.2285,1.0233,0.1161
5.9470,-0.2329,1.0228,0.1163
5.9710,-0.2329,1.0228,0.1163
5.9720,-0.2329,1.0228,0.1163
5.9910,-0.2329,1.0228,0.1163
5.9920,-0.2419,1.0279,0.1139
5.9920,-0.2419,1.0279,0.1139
5.9930,-0.2419,1.0279,0.1139
5.9940,-0.2419,1.0279,0.1139
5.9950,-0.2507,1.0233,0.1227
5.9950,-0.2507,1.0233,0.1227
6.0200,-0.2507,1.0233,0.1227
6.0210,-0.2507,1.0233,0.1227
6.0220,-0.2507,1.0233,0.1227
6.0230,-0.2507,1.0206,0.1224
6.0240,-0.2466,1.0196,0.1254
6.0440,-0.2466,1.0196,0.1254
6.0520,-0.2466,1.0196,0.1254
6.0530,-0.2466,1.0196,0.1254
6.0540,-0.2466,1.0196,0.1254
6.0550,-0.2449,1.0267,0.1176
6.0720,-0.2449,1.0267,0.1176
6.0740,-0.2449,1.0267,0.1176
6.0740,-0.2449,1.0267,0.1176
6.0750,-0.2375,1.0316,0.1014
6.0770,-0.2375,1.0316,0.1014
6.1020,-0.2375,1.0316,0.1014
6.1030,-0.2375,1.0316,0.1014
6.1040,-0.2375,1.0316,0.1014
6.1040,-0.2300,1.0259,0.1158
6.1050,-0.2268,1.0211,0.1241
6.1310,-0.2268,1.0211,0.1241
6.1320,-0.2268,1.0211,0.1241
6.1330,-0.2268,1.0211,0.1241
6.1340,-0.2302,1.0198,0.1259
6.1540,-0.2302,1.0198,0.1259
6.1550,-0.2302,1.0198,0.1259
6.1570,-0.2302,1.0198,0.1259
6.1580,-0.2297,1.0262,0.1237
6.1590,-0.2297,1.0262,0.1237
6.1810,-0.2297,1.0262,0.1237
6.1820,-0.2297,1.0262,0.1237
6.1830,-0.2297,1.0262,0.1237
6.1830,-0.2278,1.0318,0.1029
6.1840,-0.2305,1.0296,0.1141
6.2120,-0.2305,1.0296,0.1141
6.2120,-0.2305,1.0296,0.1141
6.2140,-0.2305,1.0296,0.1141
6.2150,-0.2385,1.0237,0.1210
6.2350,-0.2385,1.0237,0.1210
6.2360,-0.2385,1.0237,0.1210
6.2360,-0.2385,1.0237,0.1210
6.2370,-0.2473,1.0262,0.1190
6.2370,-0.2473,1.0262,0.1190
6.2440,-0.2473,1.0262,0.1190
6.2630,-0.2473,1.0262,0.1190
6.2640,-0.2473,1.0262,0.1190
6.2640,-0.2473,1.0262,0.1190
6.2650,-0.2500,1.0274,0.1261
6.2660,-0.2344,1.0301,0.1180
6.2950,-0.2344,1.0301,0.1180
6.2960,-0.2344,1.0301,0.1180
6.2970,-0.2344,1.0301,0.1180
6.2970,-0.2217,1.0274,0.1195
6.3150,-0.2217,1.0274,0.1195
6.3260,-0.2217,1.0274,0.1195
6.3270,-0.2217,1.0274,0.1195
6.3270,-0.2263,1.0233,0.1200
6.3280,-0.2263,1.0233,0.1200
6.3410,-0.2263,1.0233,0.1200
6.3410,-0.2263,1.0233,0.1200
6.3410,-0.2263,1.0233,0.1200
6.3420,-0.2309,1.0225,0.1107
6.3420,-0.2305,1.0235,0.1215
6.3700,-0.2305,1.0235,0.1215
6.3710,-0.2305,1.0235,0.1215
6.3710,-0.2305,1.0235,0.1215
6.3710,-0.2346,1.0281,0.1276
6.3930,-0.2346,1.0281,0.1276
6.3940,-0.2346,1.0281,0.1276
6.3950,-0.2346,1.0281,0.1276
6.3960,-0.2383,1.0286,0.0960
6.3960,-0.2383,1.0286,0.0960
6.4220,-0.2383,1.0286,0.0960
6.4220,-0.2383,1.0286,0.0960
6.4230,-0.2383,1.0286,0.0960
6.4240,-0.2336,1.0218,0.1127
6.4240,-0.2324,1.0181,0.1263
6.4450,-0.2324,1.0181,0.1263
6.4560,-0.2324,1.0181,0.1263
6.4570,-0.2324,1.0181,0.1263
6.4580,-0.2324,1.0181,0.1263
6.4580,-0.2319,1.0225,0.1234
6.4750,-0.2319,1.0225,0.1234
6.4760,-0.2319,1.0225,0.1234
6.4780,-0.2319,1.0225,0.1234
6.4780,-0.2336,1.0303,0.1249
6.4790,-0.2336,1.0303,0.1249
6.5020,-0.2336,1.0303,0.1249
6.5020,-0.2336,1.0303,0.1249
6.5030,-0.2336,1.0303,0.1249
6.5040,-0.2358,1.0252,0.1151
6.5040,-0.2371,1.0259,0.1163
6.5320,-0.2371,1.0259,0.1163
6.5630,-0.2371,1.0259,0.1163
6.5640,-0.2371,1.0259,0.1163
6.5640,-0.2346,1.0240,0.1200
6.5640,-0.2346,1.0240,0.1200
6.5650,-0.2346,1.0240,0.1200
6.5650,-0.2346,1.0240,0.1200
6.5650,-0.2283,1.0242,0.1273
6.5660,-0.2283,1.0242,0.1273
6.5810,-0.2283,1.0242,0.1273
6.5810,-0.2283,1.0242,0.1273
6.5820,-0.2283,1.0242,0.1273
6.5820,-0.2283,1.0264,0.1232
6.5820,-0.2309,1.0240,0.1251
6.6110,-0.2309,1.0240,0.1251
6.6110,-0.2309,1.0240,0.1251
6.6110,-0.2309,1.0240,0.1251
6.6120,-0.2344,1.0242,0.1173
6.6330,-0.2344,1.0242,0.1173
6.6340,-0.2344,1.0242,0.1173
6.6340,-0.2344,1.0242,0.1173
6.6350,-0.2402,1.0267,0.1183
6.6360,-0.2402,1.0267,0.1183
6.6440,-0.2402,1.0267,0.1183
6.6620,-0.2402,1.0267,0.1183
6.6630,-0.2402,1.0267,0.1183
6.6630,-0.2402,1.0267,0.1183
6.6640,-0.2405,1.0240,0.1244
6.6650,-0.2356,1.0233,0.1188
6.6920,-0.2356,1.0233,0.1188
6.6930,-0.2356,1.0233,0.1188
6.6940,-0.2356,1.0233,0.1188
6.6950,-0.2331,1.0286,0.1139
6.7130,-0.2331,1.0286,0.1139
6.7140,-0.2331,1.0286,0.1139
6.7160,-0.2331,1.0286,0.1139
6.7170,-0.2331,1.0296,0.1183
6.7180,-0.2331,1.0296,0.1183
6.7430,-0.2331,1.0296,0.1183
6.7440,-0.2331,1.0296,0.1183
6.7470,-0.2331,1.0296,0.1183
6.7480,-0.2361,1.0235,0.1266
6.7480,-0.2417,1.0198,0.1285
6.7740,-0.2417,1.0198,0.1285
6.7760,-0.2417,1.0198,0.1285
6.7780,-0.2417,1.0198,0.1285
6.7790,-0.2375,1.0286,0.1083
6.7950,-0.2375,1.0286,0.1083
6.7960,-0.2375,1.0286,0.1083
6.7970,-0.2375,1.0286,0.1083
6.7980,-0.2324,1.0274,0.1070
6.7980,-0.2324,1.0274,0.1070
6.8230,-0.2324,1.0274,0.1070
6.8230,-0.2324,1.0274,0.1070
6.8240,-0.2324,1.0274,0.1070
6.8250,-0.2314,1.0242,0.1249
6.8250,-0.2344,1.0250,0.1185
6.8430,-0.2344,1.0250,0.1185
6.8560,-0.2344,1.0250,0.1185
6.8570,-0.2344,1.0250,0.1185
6.8570,-0.2344,1.0250,0.1185
6.8580,-0.2427,1.0245,0.1151
6.8740,-0.2427,1.0245,0.1151
6.8740,-0.2427,1.0245,0.1151
6.8750,-0.2427,1.0245,0.1151
6.8760,-0.2446,1.0247,0.1278
6.8770,-0.2446,1.0247,0.1278
6.9030,-0.2446,1.0247,0.1278
6.9040,-0.2446,1.0247,0.1278
6.9040,-0.2446,1.0247,0.1278
6.9050,-0.2378,1.0269,0.1180
6.9060,-0.2344,1.0189,0.1193
6.9360,-0.2344,1.0189,0.1193
6.9370,-0.2344,1.0189,0.1193
6.9380,-0.2344,1.0189,0.1193
6.9390,-0.2297,1.0172,0.1237
6.9560,-0.2297,1.0172,0.1237
6.9570,-0.2297,1.0172,0.1237
6.9580,-0.2297,1.0172,0.1237
6.9580,-0.2253,1.0245,0.1178
6.9590,-0.2253,1.0245,0.1178
6.9840,-0.2253,1.0245,0.1178
6.9850,-0.2253,1.0245,0.1178
6.9850,-0.2253,1.0245,0.1178
6.9870,-0.2287,1.0294,0.1180
6.9870,-0.2388,1.0250,0.1259
7.0120,-0.2388,1.0250,0.1259
7.0140,-0.2388,1.0250,0.1259
7.0140,-0.2388,1.0250,0.1259
7.0150,-0.2473,1.0296,0.1168
7.0350,-0.2473,1.0296,0.1168
7.0370,-0.2473,1.0296,0.1168
7.0380,-0.2473,1.0296,0.1168
7.0380,-0.2434,1.0338,0.1139
7.0390,-0.2434,1.0338,0.1139
7.0470,-0.2434,1.0338,0.1139
7.0630,-0.2434,1.0338,0.1139
7.0640,-0.2434,1.0338,0.1139
7.0650,-0.2434,1.0338,0.1139
7.0660,-0.2349,1.0206,0.1251
7.0670,-0.2270,1.0230,0.1278
7.0920,-0.2270,1.0230,0.1278
7.0920,-0.2270,1.0230,0.1278
7.0930,-0.2270,1.0230,0.1278
7.0930,-0.2295,1.0208,0.1220
7.1120,-0.2295,1.0208,0.1220
7.1140,-0.2295,1.0208,0.1220
7.1140,-0.2295,1.0208,0.1220
7.1140,-0.2341,1.0242,0.1259
7.1150,-0.2341,1.0242,0.1259
7.1430,-0.2341,1.0242,0.1259
7.1430,-0.2341,1.0242,0.1259
7.1440,-0.2341,1.0242,0.1259
7.1440,-0.2344,1.0308,0.1183
7.1440,-0.2270,1.0335,0.1168
7.1740,-0.2270,1.0335,0.1168
7.1760,-0.2270,1.0335,0.1168
7.1780,-0.2270,1.0335,0.1168
7.1790,-0.2239,1.0242,0.1205
7.1950,-0.2239,1.0242,0.1205
7.1960,-0.2239,1.0242,0.1205
7.1970,-0.2239,1.0242,0.1205
7.1970,-0.2290,1.0191,0.1210
7.1980,-0.2290,1.0191,0.1210
7.2230,-0.2290,1.0191,0.1210
7.2240,-0.2290,1.0191,0.1210
7.2250,-0.2290,1.0191,0.1210
7.2250,-0.2314,1.0255,0.1146
7.2260,-0.2339,1.0277,0.1212
7.2430,-0.2339,1.0277,0.1212
7.2550,-0.2339,1.0277,0.1212
7.2570,-0.2339,1.0277,0.1212
7.2580,-0.2339,1.0277,0.1212
7.2590,-0.2358,1.0262,0.1281
7.2750,-0.2358,1.0262,0.1281
7.2760,-0.2358,1.0262,0.1281
7.2760,-0.2358,1.0262,0.1281
7.2770,-0.2322,1.0196,0.1190
7.2780,-0.2322,1.0196,0.1190
7.3020,-0.2322,1.0196,0.1190
7.3020,-0.2322,1.0196,0.1190
7.3030,-0.2322,1.0196,0.1190
7.3050,-0.2378,1.0196,0.1198
7.3070,-0.2395,1.0294,0.1215
7.3360,-0.2395,1.0294,0.1215
7.3370,-0.2395,1.0294,0.1215
7.3370,-0.2395,1.0294,0.1215
7.3380,-0.2295,1.0289,0.1161
7.3540,-0.2295,1.0289,0.1161
7.3540,-0.2295,1.0289,0.1161
7.3550,-0.2295,1.0289,0.1161
7.3590,-0.2292,1.0215,0.1266
7.3590,-0.2292,1.0215,0.1266
7.3830,-0.2292,1.0215,0.1266
7.3840,-0.2292,1.0215,0.1266
7.3840,-0.2292,1.0215,0.1266
7.3850,-0.2393,1.0237,0.1244
7.3850,-0.2405,1.0281,0.1190
7.4130,-0.2405,1.0281,0.1190
7.4140,-0.2405,1.0281,0.1190
7.4140,-0.2405,1.0281,0.1190
7.4150,-0.2297,1.0262,0.1188
7.4370,-0.2297,1.0262,0.1188
7.4370,-0.2297,1.0262,0.1188
7.4380,-0.2297,1.0262,0.1188
7.4380,-0.2204,1.0299,0.1239
7.4390,-0.2204,1.0299,0.1239
7.4460,-0.2204,1.0299,0.1239
7.4650,-0.2204,1.0299,0.1239
7.4660,-0.2204,1.0299,0.1239
7.4660,-0.2204,1.0299,0.1239
7.4670,-0.2190,1.0291,0.1283
7.4670,-0.2190,1.0235,0.1229
7.4940,-0.2190,1.0235,0.1229
7.4950,-0.2190,1.0235,0.1229
7.4960,-0.2190,1.0235,0.1229
7.4970,-0.2263,1.0230,0.1222
7.5180,-0.2263,1.0230,0.1222
7.5190,-0.2263,1.0230,0.1222
7.5190,-0.2263,1.0230,0.1222
7.5240,-0.2344,1.0269,0.1276
7.5240,-0.2344,1.0269,0.1276
7.5440,-0.2344,1.0269,0.1276
7.5450,-0.2344,1.0269,0.1276
7.5450,-0.2344,1.0269,0.1276
7.5460,-0.2329,1.0274,0.1212
7.5460,-0.2300,1.0274,0.1239
7.5790,-0.2300,1.0274,0.1239
7.5810,-0.2300,1.0274,0.1239
7.5820,-0.2300,1.0274,0.1239
7.5820,-0.2302,1.0303,0.1198
7.5960,-0.2302,1.0303,0.1198
7.5970,-0.2302,1.0303,0.1198
7.5980,-0.2302,1.0303,0.1198
7.5990,-0.2251,1.0318,0.1156
7.5990,-0.2251,1.0318,0.1156
7.6250,-0.2251,1.0318,0.1156
7.6250,-0.2251,1.0318,0.1156
7.6260,-0.2251,1.0318,0.1156
7.6270,-0.2239,1.0267,0.1202
7.6270,-0.2219,1.0294,0.1271
7.6480,-0.2219,1.0294,0.1271
7.6490,-0.2219,1.0294,0.1271
7.6540,-0.2219,1.0294,0.1271
7.6570,-0.2219,1.0294,0.1271
7.6580,-0.2219,1.0294,0.1271
7.6590,-0.2273,1.0198,0.1276
7.6730,-0.2273,1.0198,0.1276
7.6730,-0.2273,1.0198,0.1276
7.6740,-0.2273,1.0198,0.1276
7.6740,-0.2317,1.0235,0.1127
7.6740,-0.2317,1.0235,0.1127
7.7030,-0.2317,1.0235,0.1127
7.7030,-0.2317,1.0235,0.1127
7.7030,-0.2317,1.0235,0.1127
7.7040,-0.2329,1.0264,0.1141
7.7040,-0.2263,1.0316,0.1156
7.7340,-0.2263,1.0316,0.1156
7.7350,-0.2263,1.0316,0.1156
7.7360,-0.2263,1.0316,0.1156
7.7370,-0.2219,1.0316,0.1227
7.7550,-0.2219,1.0316,0.1227
7.7560,-0.2219,1.0316,0.1227
7.7580,-0.2219,1.0316,0.1227
7.7590,-0.2265,1.0225,0.1356
7.7600,-0.2265,1.0225,0.1356
7.7840,-0.2265,1.0225,0.1356
7.7850,-0.2265,1.0225,0.1356
7.7850,-0.2265,1.0225,0.1356
7.7860,-0.2319,1.0252,0.1295
7.7860,-0.2285,1.0352,0.1144
7.8150,-0.2285,1.0352,0.1144
7.8160,-0.2285,1.0352,0.1144
7.8170,-0.2285,1.0352,0.1144
7.8180,-0.2268,1.0313,0.1078
7.8390,-0.2268,1.0313,0.1078
7.8400,-0.2268,1.0313,0.1078
7.8410,-0.2268,1.0313,0.1078
7.8420,-0.2368,1.0235,0.1229
7.8430,-0.2368,1.0235,0.1229
7.8440,-0.2368,1.0235,0.1229
7.8470,-0.2368,1.0235,0.1229
7.8640,-0.2368,1.0235,0.1229
7.8650,-0.2368,1.0235,0.1229
7.8650,-0.2368,1.0235,0.1229
7.8660,-0.2424,1.0223,0.1285
7.8670,-0.2366,1.0262,0.1303
7.8940,-0.2366,1.0262,0.1303
7.8950,-0.2366,1.0262,0.1303
7.8950,-0.2366,1.0262,0.1303
7.8970,-0.2261,1.0284,0.1224
7.9150,-0.2261,1.0284,0.1224
7.9180,-0.2261,1.0284,0.1224
7.9180,-0.2261,1.0284,0.1224
7.9190,-0.2256,1.0255,0.1202
7.9190,-0.2256,1.0255,0.1202
7.9440,-0.2256,1.0255,0.1202
7.9440,-0.2256,1.0255,0.1202
7.9450,-0.2256,1.0255,0.1202
7.9450,-0.2307,1.0259,0.1278
7.9460,-0.2300,1.0289,0.1239
7.9740,-0.2300,1.0289,0.1239
7.9750,-0.2300,1.0289,0.1239
7.9750,-0.2300,1.0289,0.1239
7.9750,-0.2290,1.0272,0.1188
7.9950,-0.2290,1.0272,0.1188
7.9950,-0.2290,1.0272,0.1188
7.9960,-0.2290,1.0272,0.1188
7.9970,-0.2331,1.0303,0.1232
7.9980,-0.2331,1.0303,0.1232
8.0250,-0.2331,1.0303,0.1232
8.0260,-0.2331,1.0303,0.1232
8.0270,-0.2331,1.0303,0.1232
8.0280,-0.2297,1.0347,0.1158
8.0290,-0.2236,1.0252,0.1261
8.0430,-0.2236,1.0252,0.1261
8.0460,-0.2236,1.0252,0.1261
8.0580,-0.2236,1.0252,0.1261
8.0590,-0.2236,1.0252,0.1261
8.0590,-0.2236,1.0252,0.1261
8.0610,-0.2300,1.0196,0.1317
8.0740,-0.2300,1.0196,0.1317
8.0750,-0.2300,1.0196,0.1317
8.0770,-0.2300,1.0196,0.1317
8.0780,-0.2346,1.0257,0.1132
8.0790,-0.2346,1.0257,0.1132
8.1050,-0.2346,1.0257,0.1132
8.1060,-0.2346,1.0257,0.1132
8.1070,-0.2346,1.0257,0.1132
8.1070,-0.2314,1.0230,0.1210
8.1080,-0.2297,1.0230,0.1325
8.1350,-0.2297,1.0230,0.1325
8.1350,-0.2297,1.0230,0.1325
8.1390,-0.2297,1.0230,0.1325
8.1400,-0.2356,1.0196,0.1271
8.1560,-0.2356,1.0196,0.1271
8.1570,-0.2356,1.0196,0.1271
8.1590,-0.2356,1.0196,0.1271
8.1610,-0.2400,1.0237,0.1254
8.1620,-0.2400,1.0237,0.1254
8.1850,-0.2400,1.0237,0.1254
8.2030,-0.2400,1.0237,0.1254
8.2040,-0.2400,1.0237,0.1254
8.2050,-0.2368,1.0362,0.1031
8.2050,-0.2329,1.0262,0.1180
8.2150,-0.2329,1.0262,0.1180
8.2150,-0.2329,1.0262,0.1180
8.2150,-0.2329,1.0262,0.1180
8.2150,-0.2270,1.0203,0.1364
8.2340,-0.2270,1.0203,0.1364
8.2350,-0.2270,1.0203,0.1364
8.2360,-0.2270,1.0203,0.1364
8.2360,-0.2253,1.0228,0.1237
8.2360,-0.2253,1.0228,0.1237
8.2460,-0.2253,1.0228,0.1237
8.2470,-0.2253,1.0228,0.1237
8.2650,-0.2253,1.0228,0.1237
8.2660,-0.2253,1.0228,0.1237
8.2670,-0.2253,1.0228,0.1237
8.2680,-0.2229,1.0262,0.1303
8.2690,-0.2256,1.0313,0.1134
8.2940,-0.2256,1.0313,0.1134
8.2950,-0.2256,1.0313,0.1134
8.2960,-0.2256,1.0313,0.1134
8.2980,-0.2339,1.0294,0.1119
8.3180,-0.2339,1.0294,0.1119
8.3180,-0.2339,1.0294,0.1119
8.3190,-0.2339,1.0294,0.1119
8.3190,-0.2439,1.0211,0.1259
8.3200,-0.2439,1.0211,0.1259
8.3440,-0.2439,1.0211,0.1259
8.3450,-0.2439,1.0211,0.1259
8.3460,-0.2439,1.0211,0.1259
8.3470,-0.2427,1.0255,0.1281
8.3480,-0.2329,1.0240,0.1180
8.3750,-0.2329,1.0240,0.1180
8.3770,-0.2329,1.0240,0.1180
8.3770,-0.2329,1.0240,0.1180
8.3780,-0.2278,1.0184,0.1188
8.3950,-0.2278,1.0184,0.1188
8.3980,-0.2278,1.0184,0.1188
8.3990,-0.2278,1.0184,0.1188
8.3990,-0.2241,1.0252,0.1259
8.4000,-0.2241,1.0252,0.1259
8.4250,-0.2241,1.0252,0.1259
8.4250,-0.2241,1.0252,0.1259
8.4260,-0.2241,1.0252,0.1259
8.4270,-0.2241,1.0242,0.1224
8.4280,-0.2285,1.0213,0.1254
8.4470,-0.2285,1.0213,0.1254
8.4480,-0.2285,1.0213,0.1254
8.4560,-0.2285,1.0213,0.1254
8.4570,-0.2285,1.0213,0.1254
8.4570,-0.2285,1.0213,0.1254
8.4580,-0.2246,1.0272,0.1198
8.4760,-0.2246,1.0272,0.1198
8.4790,-0.2246,1.0272,0.1198
8.4800,-0.2246,1.0272,0.1198
8.4810,-0.2283,1.0325,0.1185
8.4810,-0.2283,1.0325,0.1185
8.5060,-0.2283,1.0325,0.1185
8.5060,-0.2283,1.0325,0.1185
8.5070,-0.2283,1.0325,0.1185
8.5080,-0.2361,1.0289,0.1285
8.5080,-0.2439,1.0201,0.1232
8.5380,-0.2439,1.0201,0.1232
8.5400,-0.2439,1.0201,0.1232
8.5410,-0.2439,1.0201,0.1232
8.5420,-0.2380,1.0206,0.1315
8.5570,-0.2380,1.0206,0.1315
8.5580,-0.2380,1.0206,0.1315
8.5590,-0.2380,1.0206,0.1315
8.5630,-0.2329,1.0296,0.1254
8.5650,-0.2329,1.0296,0.1254
8.5860,-0.2329,1.0296,0.1254
8.5870,-0.2329,1.0296,0.1254
8.5880,-0.2329,1.0296,0.1254
8.5910,-0.2258,1.0303,0.1190
8.5920,-0.2202,1.0303,0.1215
8.6170,-0.2202,1.0303,0.1215
8.6180,-0.2202,1.0303,0.1215
8.6210,-0.2202,1.0303,0.1215
8.6210,-0.2163,1.0272,0.1161
8.6360,-0.2163,1.0272,0.1161
8.6370,-0.2163,1.0272,0.1161
8.6380,-0.2163,1.0272,0.1161
8.6420,-0.2170,1.0240,0.1293
8.6440,-0.2170,1.0240,0.1293
8.6450,-0.2170,1.0240,0.1293
8.6460,-0.2170,1.0240,0.1293
8.6670,-0.2170,1.0240,0.1293
8.6680,-0.2170,1.0240,0.1293
8.6690,-0.2170,1.0240,0.1293
8.6700,-0.2204,1.0279,0.1224
8.6710,-0.2204,1.0333,0.1066
8.6970,-0.2204,1.0333,0.1066
8.6970,-0.2204,1.0333,0.1066
8.6980,-0.2204,1.0333,0.1066
8.6990,-0.2226,1.0272,0.1139
8.7180,-0.2226,1.0272,0.1139
8.7200,-0.2226,1.0272,0.1139
8.7400,-0.2226,1.0272,0.1139
8.7410,-0.2312,1.0203,0.1263
8.7410,-0.2312,1.0203,0.1263
8.7440,-0.2312,1.0203,0.1263
8.7440,-0.2312,1.0203,0.1263
8.7450,-0.2312,1.0203,0.1263
8.7450,-0.2358,1.0233,0.1278
8.7460,-0.2358,1.0301,0.1290
8.7730,-0.2358,1.0301,0.1290
8.7730,-0.2358,1.0301,0.1290
8.7740,-0.2358,1.0301,0.1290
8.7740,-0.2383,1.0211,0.1259
8.7950,-0.2383,1.0211,0.1259
8.7950,-0.2383,1.0211,0.1259
8.7960,-0.2383,1.0211,0.1259
8.7960,-0.2351,1.0277,0.1220
8.7960,-0.2351,1.0277,0.1220
8.8240,-0.2351,1.0277,0.1220
8.8240,-0.2351,1.0277,0.1220
8.8250,-0.2351,1.0277,0.1220
8.8250,-0.2341,1.0318,0.1210
8.8250,-0.2380,1.0223,0.1220
8.8470,-0.2380,1.0223,0.1220
8.8550,-0.2380,1.0223,0.1220
8.8560,-0.2380,1.0223,0.1220
8.8570,-0.2380,1.0223,0.1220
8.8570,-0.2373,1.0218,0.1173
8.8760,-0.2373,1.0218,0.1173
8.8770,-0.2373,1.0218,0.1173
8.8780,-0.2373,1.0218,0.1173
8.8780,-0.2305,1.0272,0.1239
8.8790,-0.2305,1.0272,0.1239
8.9050,-0.2305,1.0272,0.1239
8.9060,-0.2305,1.0272,0.1239
8.9070,-0.2305,1.0272,0.1239
8.9080,-0.2243,1.0250,0.1295
8.9080,-0.2217,1.0237,0.1190
8.9360,-0.2217,1.0237,0.1190
8.9370,-0.2217,1.0237,0.1190
8.9380,-0.2217,1.0237,0.1190
8.9410,-0.2214,1.0294,0.1202
8.9610,-0.2214,1.0294,0.1202
8.9610,-0.2214,1.0294,0.1202
8.9620,-0.2214,1.0294,0.1202
8.9620,-0.2258,1.0345,0.1217
8.9630,-0.2258,1.0345,0.1217
8.9870,-0.2258,1.0345,0.1217
8.9880,-0.2258,1.0345,0.1217
8.9890,-0.2258,1.0345,0.1217
8.9890,-0.2275,1.0325,0.1168
8.9900,-0.2265,1.0223,0.1344
9.0160,-0.2265,1.0223,0.1344
9.0180,-0.2265,1.0223,0.1344
9.0190,-0.2265,1.0223,0.1344
9.0200,-0.2261,1.0245,0.1332
9.0390,-0.2261,1.0245,0.1332
9.0410,-0.2261,1.0245,0.1332
9.0420,-0.2261,1.0245,0.1332
9.0430,-0.2251,1.0325,0.1205
9.0440,-0.2251,1.0325,0.1205
9.0450,-0.2251,1.0325,0.1205
9.0450,-0.2251,1.0325,0.1205
9.0670,-0.2251,1.0325,0.1205
9.0680,-0.2251,1.0325,0.1205
9.0690,-0.2251,1.0325,0.1205
9.0690,-0.2214,1.0328,0.1151
9.0700,-0.2253,1.0264,0.1232
9.0980,-0.2253,1.0264,0.1232
9.0980,-0.2253,1.0264,0.1232
9.0990,-0.2253,1.0264,0.1232
9.1000,-0.2351,1.0245,0.1334
9.1200,-0.2351,1.0245,0.1334
9.1210,-0.2351,1.0245,0.1334
9.1210,-0.2351,1.0245,0.1334
9.1220,-0.2339,1.0242,0.1195
9.1230,-0.2339,1.0242,0.1195
9.1470,-0.2339,1.0242,0.1195
9.1480,-0.2339,1.0242,0.1195
9.1490,-0.2339,1.0242,0.1195
9.1550,-0.2327,1.0321,0.1129
9.1560,-0.2251,1.0355,0.1136
9.1770,-0.2251,1.0355,0.1136
9.1780,-0.2251,1.0355,0.1136
9.1780,-0.2251,1.0355,0.1136
9.1790,-0.2224,1.0252,0.1256
9.1980,-0.2224,1.0252,0.1256
9.1980,-0.2224,1.0252,0.1256
9.1990,-0.2224,1.0252,0.1256
9.1990,-0.2287,1.0196,0.1305
9.2030,-0.2287,1.0196,0.1305
9.2270,-0.2287,1.0196,0.1305
9.2280,-0.2287,1.0196,0.1305
9.2290,-0.2287,1.0196,0.1305
9.2320,-0.2309,1.0262,0.1220
9.2330,-0.2280,1.0330,0.1202
9.2480,-0.2280,1.0330,0.1202
9.2480,-0.2280,1.0330,0.1202
9.2650,-0.2280,1.0330,0.1202
9.2660,-0.2280,1.0330,0.1202
9.2670,-0.2280,1.0330,0.1202
9.2850,-0.2258,1.0284,0.1166
9.2860,-0.2258,1.0284,0.1166
9.2860,-0.2258,1.0284,0.1166
9.2860,-0.2258,1.0284,0.1166
9.2860,-0.2283,1.0252,0.1190
9.2870,-0.2283,1.0252,0.1190
9.3030,-0.2283,1.0252,0.1190
9.3040,-0.2283,1.0252,0.1190
9.3040,-0.2283,1.0252,0.1190
9.3040,-0.2261,1.0255,0.1100
9.3040,-0.2200,1.0279,0.1222
9.3340,-0.2200,1.0279,0.1222
9.3350,-0.2200,1.0279,0.1222
9.3360,-0.2200,1.0279,0.1222
9.3380,-0.2246,1.0306,0.1173
9.3560,-0.2246,1.0306,0.1173
9.3560,-0.2246,1.0306,0.1173
9.3560,-0.2246,1.0306,0.1173
9.3570,-0.2380,1.0247,0.1183
9.3570,-0.2380,1.0247,0.1183
9.3850,-0.2380,1.0247,0.1183
9.3850,-0.2380,1.0247,0.1183
9.3860,-0.2380,1.0247,0.1183
9.3860,-0.2378,1.0296,0.1254
9.3870,-0.2329,1.0269,0.1215
9.4170,-0.2329,1.0269,0.1215
9.4200,-0.2329,1.0269,0.1215
9.4200,-0.2329,1.0269,0.1215
9.4210,-0.2317,1.0252,0.1288
9.4380,-0.2317,1.0252,0.1288
9.4380,-0.2317,1.0252,0.1288
9.4380,-0.2317,1.0252,0.1288
9.4390,-0.2353,1.0201,0.1256
9.4390,-0.2353,1.0201,0.1256
9.4480,-0.2353,1.0201,0.1256
9.4650,-0.2353,1.0201,0.1256
9.4660,-0.2353,1.0201,0.1256
9.4670,-0.2353,1.0201,0.1256
9.4670,-0.2336,1.0235,0.1256
9.4680,-0.2290,1.0328,0.1173
9.4960,-0.2290,1.0328,0.1173
9.4980,-0.2290,1.0328,0.1173
9.4990,-0.2290,1.0328,0.1173
9.5000,-0.2168,1.0237,0.1278
9.5180,-0.2168,1.0237,0.1278
9.5180,-0.2168,1.0237,0.1278
9.5190,-0.2168,1.0237,0.1278
9.5190,-0.2129,1.0228,0.1361
9.5200,-0.2129,1.0228,0.1361
9.5470,-0.2129,1.0228,0.1361
9.5470,-0.2129,1.0228,0.1361
9.5480,-0.2129,1.0228,0.1361
9.5480,-0.2107,1.0345,0.1161
9.5480,-0.2136,1.0357,0.1117
9.5780,-0.2136,1.0357,0.1117
9.5790,-0.2136,1.0357,0.1117
9.5790,-0.2136,1.0357,0.1117
9.5800,-0.2258,1.0274,0.1232
9.5970,-0.2258,1.0274,0.1232
9.5980,-0.2258,1.0274,0.1232
9.5990,-0.2258,1.0274,0.1232
9.6000,-0.2375,1.0215,0.1293
9.6000,-0.2375,1.0215,0.1293
9.6260,-0.2375,1.0215,0.1293
9.6270,-0.2375,1.0215,0.1293
9.6270,-0.2375,1.0215,0.1293
9.6280,-0.2373,1.0274,0.1290
9.6280,-0.2336,1.0242,0.1212
9.6430,-0.2336,1.0242,0.1212
9.6560,-0.2336,1.0242,0.1212
9.6560,-0.2336,1.0242,0.1212
9.6570,-0.2336,1.0242,0.1212
9.6570,-0.2307,1.0191,0.1237
9.6780,-0.2307,1.0191,0.1237
9.6790,-0.2307,1.0191,0.1237
9.6790,-0.2307,1.0191,0.1237
9.6830,-0.2309,1.0225,0.1276
9.6840,-0.2309,1.0225,0.1276
9.7070,-0.2309,1.0225,0.1276
9.7080,-0.2309,1.0225,0.1276
9.7090,-0.2309,1.0225,0.1276
9.7100,-0.2378,1.0284,0.1215
9.7110,-0.2407,1.0323,0.1271
9.7360,-0.2407,1.0323,0.1271
9.7370,-0.2407,1.0323,0.1271
9.7370,-0.2407,1.0323,0.1271
9.7380,-0.2395,1.0272,0.1234
9.7580,-0.2395,1.0272,0.1234
9.7590,-0.2395,1.0272,0.1234
9.7600,-0.2395,1.0272,0.1234
9.7610,-0.2305,1.0245,0.1217
9.7610,-0.2305,1.0245,0.1217
9.7870,-0.2305,1.0245,0.1217
9.7870,-0.2305,1.0245,0.1217
9.7880,-0.2305,1.0245,0.1217
9.7890,-0.2200,1.0306,0.1268
9.7910,-0.2153,1.0355,0.1119
9.8180,-0.2153,1.0355,0.1119
9.8190,-0.2153,1.0355,0.1119
9.8200,-0.2153,1.0355,0.1119
9.8410,-0.2163,1.0308,0.1171
9.8420,-0.2163,1.0308,0.1171
9.8420,-0.2163,1.0308,0.1171
9.8420,-0.2163,1.0308,0.1171
9.8430,-0.2258,1.0230,0.1259
9.8430,-0.2258,1.0230,0.1259
9.8450,-0.2258,1.0230,0.1259
9.8640,-0.2258,1.0230,0.1259
9.8650,-0.2258,1.0230,0.1259
9.8650,-0.2258,1.0230,0.1259
9.8650,-0.2307,1.0245,0.1190
9.8660,-0.2322,1.0306,0.1107
9.8970,-0.2322,1.0306,0.1107
9.8980,-0.2322,1.0306,0.1107
9.8990,-0.2322,1.0306,0.1107
9.9000,-0.2329,1.0281,0.1215
9.9160,-0.2329,1.0281,0.1215
9.9170,-0.2329,1.0281,0.1215
9.9180,-0.2329,1.0281,0.1215
9.9190,-0.2327,1.0215,0.1251
9.9190,-0.2327,1.0215,0.1251
9.9480,-0.2327,1.0215,0.1251
9.9520,-0.2327,1.0215,0.1251
9.9520,-0.2327,1.0215,0.1251
9.9540,-0.2270,1.0257,0.1222
9.9550,-0.2278,1.0299,0.1222
9.9760,-0.2278,1.0299,0.1222
9.9770,-0.2278,1.0299,0.1222
9.9780,-0.2278,1.0299,0.1222
9.9790,-0.2329,1.0277,0.1347
10.0000,-0.2329,1.0277,0.1347
10.0010,-0.2329,1.0277,0.1347
10.0020,-0.2329,1.0277,0.1347
10.0020,-0.2300,1.0279,0.1232
10.0030,-0.2300,1.0279,0.1232
10.0280,-0.2300,1.0279,0.1232
10.0280,-0.2300,1.0279,0.1232
10.0290,-0.2300,1.0279,0.1232
10.0330,-0.2287,1.0252,0.1095
10.0340,-0.2307,1.0233,0.1190
10.0460,-0.2307,1.0233,0.1190
10.0560,-0.2307,1.0233,0.1190
10.0570,-0.2307,1.0233,0.1190
10.0580,-0.2307,1.0233,0.1190
10.0590,-0.2307,1.0279,0.1168
10.0820,-0.2307,1.0279,0.1168
10.0840,-0.2307,1.0279,0.1168
10.0850,-0.2307,1.0279,0.1168
10.0860,-0.2285,1.0289,0.1200
10.0870,-0.2285,1.0289,0.1200
10.1080,-0.2285,1.0289,0.1200
10.1080,-0.2285,1.0289,0.1200
10.1090,-0.2285,1.0289,0.1200
10.1090,-0.2305,1.0220,0.1312
10.1090,-0.2312,1.0193,0.1215
10.1360,-0.2312,1.0193,0.1215
10.1370,-0.2312,1.0193,0.1215
10.1370,-0.2312,1.0193,0.1215
10.1380,-0.2356,1.0176,0.1207
10.1590,-0.2356,1.0176,0.1207
10.1610,-0.2356,1.0176,0.1207
10.1610,-0.2356,1.0176,0.1207
10.1620,-0.2312,1.0215,0.1259
10.1620,-0.2312,1.0215,0.1259
10.1870,-0.2312,1.0215,0.1259
10.1870,-0.2312,1.0215,0.1259
10.1870,-0.2312,1.0215,0.1259
10.1880,-0.2280,1.0245,0.1180
10.1880,-0.2324,1.0247,0.1273
10.2170,-0.2324,1.0247,0.1273
10.2180,-0.2324,1.0247,0.1273
10.2190,-0.2324,1.0247,0.1273
10.2190,-0.2327,1.0269,0.1259
10.2380,-0.2327,1.0269,0.1259
10.2380,-0.2327,1.0269,0.1259
10.2390,-0.2327,1.0269,0.1259
10.2400,-0.2283,1.0330,0.1132
10.2420,-0.2283,1.0330,0.1132
10.2430,-0.2283,1.0330,0.1132
10.2680,-0.2283,1.0330,0.1132
10.2680,-0.2283,1.0330,0.1132
10.2690,-0.2283,1.0330,0.1132
10.2690,-0.2268,1.0321,0.1232
10.2710,-0.2239,1.0299,0.1290
10.2970,-0.2239,1.0299,0.1290
10.2980,-0.2239,1.0299,0.1290
10.2990,-0.2239,1.0299,0.1290
10.3000,-0.2261,1.0272,0.1224
10.3170,-0.2261,1.0272,0.1224
10.3190,-0.2261,1.0272,0.1224
10.3190,-0.2261,1.0272,0.1224
10.3200,-0.2361,1.0218,0.1254
10.3210,-0.2361,1.0218,0.1254
10.3480,-0.2361,1.0218,0.1254
10.3490,-0.2361,1.0218,0.1254
10.3500,-0.2361,1.0218,0.1254
10.3510,-0.2336,1.0272,0.1241
10.3520,-0.2256,1.0372,0.1158
10.3800,-0.2256,1.0372,0.1158
10.3810,-0.2256,1.0372,0.1158
10.4000,-0.2256,1.0372,0.1158
10.4000,-0.2278,1.0272,0.1227
10.4010,-0.2278,1.0272,0.1227
10.4010,-0.2278,1.0272,0.1227
10.4010,-0.2278,1.0272,0.1227
10.4020,-0.2280,1.0269,0.1224
10.4020,-0.2280,1.0269,0.1224
10.4270,-0.2280,1.0269,0.1224
10.4270,-0.2280,1.0269,0.1224
10.4280,-0.2280,1.0269,0.1224
10.4280,-0.2280,1.0259,0.1207
10.4290,-0.2358,1.0223,0.1322
10.4440,-0.2358,1.0223,0.1322
10.4560,-0.2358,1.0223,0.1322
10.4570,-0.2358,1.0223,0.1322
10.4580,-0.2358,1.0223,0.1322
10.4580,-0.2388,1.0299,0.1224
10.4780,-0.2388,1.0299,0.1224
10.4790,-0.2388,1.0299,0.1224
10.4800,-0.2388,1.0299,0.1224
10.4800,-0.2375,1.0299,0.1068
10.4810,-0.2375,1.0299,0.1068
10.5080,-0.2375,1.0299,0.1068
10.5090,-0.2375,1.0299,0.1068
10.5090,-0.2375,1.0299,0.1068
10.5100,-0.2336,1.0196,0.1244
10.5110,-0.2312,1.0189,0.1278
10.5370,-0.2312,1.0189,0.1278
10.5380,-0.2312,1.0189,0.1278
10.5390,-0.2312,1.0189,0.1278
10.5400,-0.2336,1.0274,0.1220
10.5580,-0.2336,1.0274,0.1220
10.5590,-0.2336,1.0274,0.1220
10.5600,-0.2336,1.0274,0.1220
10.5610,-0.2339,1.0291,0.1127
10.5620,-0.2339,1.0291,0.1127
10.5870,-0.2339,1.0291,0.1127
10.5880,-0.2339,1.0291,0.1127
10.5890,-0.2339,1.0291,0.1127
10.5910,-0.2336,1.0228,0.1322
10.5920,-0.2229,1.0247,0.1246
10.6210,-0.2229,1.0247,0.1246
10.6230,-0.2229,1.0247,0.1246
10.6240,-0.2229,1.0247,0.1246
10.6240,-0.2168,1.0213,0.1141
10.6380,-0.2168,1.0213,0.1141
10.6390,-0.2168,1.0213,0.1141
10.6400,-0.2168,1.0213,0.1141
10.6400,-0.2251,1.0198,0.1295
10.6410,-0.2251,1.0198,0.1295
10.6480,-0.2251,1.0198,0.1295
10.6660,-0.2251,1.0198,0.1295
10.6660,-0.2251,1.0198,0.1295
10.6660,-0.2251,1.0198,0.1295
10.6670,-0.2256,1.0272,0.1198
10.6670,-0.2219,1.0259,0.1234
10.6960,-0.2219,1.0259,0.1234
10.6970,-0.2219,1.0259,0.1234
10.6980,-0.2219,1.0259,0.1234
10.6980,-0.2248,1.0203,0.1320
10.7190,-0.2248,1.0203,0.1320
10.7210,-0.2248,1.0203,0.1320
10.7220,-0.2248,1.0203,0.1320
10.7220,-0.2324,1.0230,0.1193
10.7240,-0.2324,1.0230,0.1193
10.7490,-0.2324,1.0230,0.1193
10.7500,-0.2324,1.0230,0.1193
10.7520,-0.2324,1.0230,0.1193
10.7530,-0.2371,1.0291,0.1127
10.7530,-0.2297,1.0306,0.1198
10.7790,-0.2297,1.0306,0.1198
10.7800,-0.2297,1.0306,0.1198
10.7800,-0.2297,1.0306,0.1198
10.7810,-0.2261,1.0201,0.1256
10.8010,-0.2261,1.0201,0.1256
10.8020,-0.2261,1.0201,0.1256
10.8030,-0.2261,1.0201,0.1256
10.8040,-0.2275,1.0152,0.1383
10.8050,-0.2275,1.0152,0.1383
10.8290,-0.2275,1.0152,0.1383
10.8300,-0.2275,1.0152,0.1383
10.8310,-0.2275,1.0152,0.1383
10.8320,-0.2261,1.0233,0.1295
10.8320,-0.2207,1.0357,0.1105
10.8470,-0.2207,1.0357,0.1105
10.8480,-0.2207,1.0357,0.1105
10.8580,-0.2207,1.0357,0.1105
10.8590,-0.2207,1.0357,0.1105
10.8600,-0.2207,1.0357,0.1105
10.8610,-0.2143,1.0352,0.1168
10.8820,-0.2143,1.0352,0.1168
10.8820,-0.2143,1.0352,0.1168
10.8830,-0.2143,1.0352,0.1168
10.8840,-0.2134,1.0272,0.1334
10.8840,-0.2134,1.0272,0.1334
10.9090,-0.2134,1.0272,0.1334
10.9100,-0.2134,1.0272,0.1334
10.9110,-0.2134,1.0272,0.1334
10.9110,-0.2163,1.0296,0.1349
10.9120,-0.2192,1.0343,0.1234
10.9360,-0.2192,1.0343,0.1234
10.9370,-0.2192,1.0343,0.1234
10.9380,-0.2192,1.0343,0.1234
10.9380,-0.2138,1.0333,0.1102
10.9570,-0.2138,1.0333,0.1102
10.9570,-0.2138,1.0333,0.1102
10.9580,-0.2138,1.0333,0.1102
10.9580,-0.2141,1.0196,0.1290
10.9580,-0.2141,1.0196,0.1290
10.9870,-0.2141,1.0196,0.1290
10.9870,-0.2141,1.0196,0.1290
10.9870,-0.2141,1.0196,0.1290
10.9870,-0.2236,1.0223,0.1366
10.9880,-0.2290,1.0279,0.1239
11.0170,-0.2290,1.0279,0.1239
11.0180,-0.2290,1.0279,0.1239
11.0190,-0.2290,1.0279,0.1239
11.0190,-0.2319,1.0259,0.1312
11.0390,-0.2319,1.0259,0.1312
11.0390,-0.2319,1.0259,0.1312
11.0410,-0.2319,1.0259,0.1312
11.0420,-0.2300,1.0286,0.1241
11.0430,-0.2300,1.0286,0.1241
11.0450,-0.2300,1.0286,0.1241
11.0450,-0.2300,1.0286,0.1241
11.0680,-0.2300,1.0286,0.1241
11.0680,-0.2300,1.0286,0.1241
11.0690,-0.2300,1.0286,0.1241
11.0740,-0.2292,1.0267,0.1207
11.0750,-0.2339,1.0176,0.1217
11.0970,-0.2339,1.0176,0.1217
11.0980,-0.2339,1.0176,0.1217
11.0980,-0.2339,1.0176,0.1217
11.0990,-0.2287,1.0196,0.1241
11.1180,-0.2287,1.0196,0.1241
11.1190,-0.2287,1.0196,0.1241
11.1210,-0.2287,1.0196,0.1241
11.1220,-0.2263,1.0225,0.1276
11.1240,-0.2263,1.0225,0.1276
11.1490,-0.2263,1.0225,0.1276
11.1510,-0.2263,1.0225,0.1276
11.1520,-0.2263,1.0225,0.1276
11.1530,-0.2265,1.0286,0.1168
11.1550,-0.2248,1.0269,0.1156
11.1790,-0.2248,1.0269,0.1156
11.1800,-0.2248,1.0269,0.1156
11.1810,-0.2248,1.0269,0.1156
11.1820,-0.2292,1.0220,0.1234
11.2010,-0.2292,1.0220,0.1234
11.2020,-0.2292,1.0220,0.1234
11.2030,-0.2292,1.0220,0.1234
11.2030,-0.2351,1.0279,0.1285
11.2040,-0.2351,1.0279,0.1285
11.2290,-0.2351,1.0279,0.1285
11.2310,-0.2351,1.0279,0.1285
11.2320,-0.2351,1.0279,0.1285
11.2330,-0.2344,1.0318,0.1139
11.2350,-0.2292,1.0277,0.1176
11.2440,-0.2292,1.0277,0.1176
11.2590,-0.2292,1.0277,0.1176
11.2600,-0.2292,1.0277,0.1176
11.2610,-0.2292,1.0277,0.1176
11.2620,-0.2265,1.0184,0.1117
11.2810,-0.2265,1.0184,0.1117
11.2820,-0.2265,1.0184,0.1117
11.2840,-0.2265,1.0184,0.1117
11.2840,-0.2356,1.0128,0.1298
11.2850,-0.2356,1.0128,0.1298
11.3120,-0.2356,1.0128,0.1298
11.3130,-0.2356,1.0128,0.1298
11.3160,-0.2356,1.0128,0.1298
11.3170,-0.2329,1.0118,0.1674
11.3180,-0.2168,1.0350,0.1476
11.3390,-0.2168,1.0350,0.1476
11.3400,-0.2168,1.0350,0.1476
11.3410,-0.2168,1.0350,0.1476
11.3420,-0.2153,1.0572,0.0264
11.3600,-0.2153,1.0572,0.0264
11.3610,-0.2153,1.0572,0.0264
11.3620,-0.2153,1.0572,0.0264
11.3630,-0.2239,1.0472,0.0943
11.3640,-0.2239,1.0472,0.0943
11.3900,-0.2239,1.0472,0.0943
11.3910,-0.2239,1.0472,0.0943
11.3920,-0.2239,1.0472,0.0943
11.3940,-0.2204,1.0245,0.1351
11.3950,-0.2275,1.0277,0.1158
11.4190,-0.2275,1.0277,0.1158
11.4200,-0.2275,1.0277,0.1158
11.4210,-0.2275,1.0277,0.1158
11.4220,-0.2295,1.0296,0.1386
11.4400,-0.2295,1.0296,0.1386
11.4420,-0.2295,1.0296,0.1386
11.4450,-0.2295,1.0296,0.1386
11.4460,-0.2390,1.0223,0.1459
11.4470,-0.2390,1.0223,0.1459
11.4480,-0.2390,1.0223,0.1459
11.4500,-0.2390,1.0223,0.1459
11.4690,-0.2390,1.0223,0.1459
11.4720,-0.2390,1.0223,0.1459
11.4910,-0.2390,1.0223,0.1459
11.4910,-0.2302,1.0294,0.1320
11.4920,-0.2327,1.0181,0.1459
11.4970,-0.2327,1.0181,0.1459
11.4970,-0.2327,1.0181,0.1459
11.4980,-0.2327,1.0181,0.1459
11.4980,-0.2349,1.0230,0.1371
11.5180,-0.2349,1.0230,0.1371
11.5180,-0.2349,1.0230,0.1371
11.5190,-0.2349,1.0230,0.1371
11.5190,-0.2353,1.0299,0.1168
11.5200,-0.2353,1.0299,0.1168
11.5470,-0.2353,1.0299,0.1168
11.5480,-0.2353,1.0299,0.1168
11.5480,-0.2353,1.0299,0.1168
11.5480,-0.2258,1.0306,0.1239
11.5490,-0.2190,1.0289,0.1312
11.5780,-0.2190,1.0289,0.1312
11.5780,-0.2190,1.0289,0.1312
11.5780,-0.2190,1.0289,0.1312
11.5790,-0.2226,1.0291,0.1149
11.5990,-0.2226,1.0291,0.1149
11.5990,-0.2226,1.0291,0.1149
11.5990,-0.2226,1.0291,0.1149
11.6000,-0.2226,1.0284,0.0936
11.6000,-0.2226,1.0284,0.0936
11.6280,-0.2226,1.0284,0.0936
11.6290,-0.2226,1.0284,0.0936
11.6300,-0.2226,1.0284,0.0936
11.6310,-0.2236,1.0291,0.1107
11.6320,-0.2285,1.0301,0.1146
11.6460,-0.2285,1.0301,0.1146
11.6620,-0.2285,1.0301,0.1146
11.6630,-0.2285,1.0301,0.1146
11.6640,-0.2285,1.0301,0.1146
11.6640,-0.2209,1.0306,0.1251
11.6810,-0.2209,1.0306,0.1251
11.6810,-0.2209,1.0306,0.1251
11.6820,-0.2209,1.0306,0.1251
11.6830,-0.2116,1.0262,0.1212
11.6860,-0.2116,1.0262,0.1212
11.7090,-0.2116,1.0262,0.1212
11.7100,-0.2116,1.0262,0.1212
11.7110,-0.2116,1.0262,0.1212
11.7120,-0.2094,1.0233,0.1278
11.7130,-0.2195,1.0262,0.1317
11.7390,-0.2195,1.0262,0.1317
11.7400,-0.2195,1.0262,0.1317
11.7410,-0.2195,1.0262,0.1317
11.7420,-0.2234,1.0316,0.1136
11.7630,-0.2234,1.0316,0.1136
11.7690,-0.2234,1.0316,0.1136
11.7720,-0.2234,1.0316,0.1136
11.7730,-0.2319,1.0335,0.1041
11.7760,-0.2319,1.0335,0.1041
11.7880,-0.2319,1.0335,0.1041
11.7890,-0.2319,1.0335,0.1041
11.7890,-0.2319,1.0335,0.1041
11.7890,-0.2358,1.0274,0.1354
11.7900,-0.2336,1.0259,0.1249
11.8190,-0.2336,1.0259,0.1249
11.8200,-0.2336,1.0259,0.1249
11.8200,-0.2336,1.0259,0.1249
11.8200,-0.2505,1.0379,0.1092
11.8400,-0.2505,1.0379,0.1092
11.8410,-0.2505,1.0379,0.1092
11.8410,-0.2505,1.0379,0.1092
11.8410,-0.2571,1.0316,0.1202
11.8420,-0.2571,1.0316,0.1202
11.8450,-0.2571,1.0316,0.1202
11.8450,-0.2571,1.0316,0.1202
11.8710,-0.2571,1.0316,0.1202
11.8710,-0.2571,1.0316,0.1202
11.8710,-0.2571,1.0316,0.1202
11.8720,-0.2422,1.0179,0.1347
11.8720,-0.2273,1.0110,0.1452
11.9000,-0.2273,1.0110,0.1452
11.9010,-0.2273,1.0110,0.1452
11.9010,-0.2273,1.0110,0.1452
11.9010,-0.2331,1.0108,0.1339
