
time,AccelerometerX,AccelerometerY,AccelerometerZ
0.0090,-0.9023,-0.1733,0.3465
0.0090,-0.9023,-0.1733,0.3465
0.0090,-0.9023,-0.1733,0.3465
0.0450,-0.9411,-0.1171,0.3475
0.0450,-0.9411,-0.1171,0.3475
0.0450,-0.9411,-0.1171,0.3475
0.0500,-0.9319,-0.1254,0.3573
0.0500,-0.9319,-0.1254,0.3573
0.0500,-0.9319,-0.1254,0.3573
0.0690,-0.9228,-0.1158,0.3390
0.0690,-0.9228,-0.1158,0.3390
0.0690,-0.9228,-0.1158,0.3390
0.0710,-0.9228,-0.1158,0.3390
0.0710,-0.9228,-0.1158,0.3390
0.0880,-0.8950,-0.1251,0.3461
0.0880,-0.8950,-0.1251,0.3461
0.0880,-0.8950,-0.1251,0.3461
0.1110,-0.8991,-0.1300,0.3654
0.1110,-0.8991,-0.1300,0.3654
0.1110,-0.8991,-0.1300,0.3654
0.1300,-0.9211,-0.1056,0.3505
0.1300,-0.9211,-0.1056,0.3505
0.1300,-0.9211,-0.1056,0.3505
0.1490,-0.9213,-0.1354,0.3128
0.1490,-0.9213,-0.1354,0.3128
0.1490,-0.9213,-0.1354,0.3128
0.1500,-0.9213,-0.1354,0.3128
0.1500,-0.9213,-0.1354,0.3128
0.1650,-0.9213,-0.1354,0.3128
0.1680,-0.9597,-0.1222,0.3045
0.1680,-0.9597,-0.1222,0.3045
0.1690,-0.9597,-0.1222,0.3045
0.1890,-0.9431,-0.1229,0.3319
0.1890,-0.9431,-0.1229,0.3319
0.1890,-0.9431,-0.1229,0.3319
0.2080,-0.9126,-0.1378,0.3341
0.2080,-0.9126,-0.1378,0.3341
0.2080,-0.9126,-0.1378,0.3341
0.2280,-0.9143,-0.1273,0.3417
0.2280,-0.9143,-0.1273,0.3417
0.2280,-0.9143,-0.1273,0.3417
0.2310,-0.9143,-0.1273,0.3417
0.2310,-0.9143,-0.1273,0.3417
0.2490,-0.9328,-0.1237,0.3768
0.2490,-0.9328,-0.1237,0.3768
0.2490,-0.9328,-0.1237,0.3768
0.2680,-0.9575,-0.1303,0.3959
0.2680,-0.9575,-0.1303,0.3959
0.2680,-0.9575,-0.1303,0.3959
0.2870,-0.9668,-0.1354,0.3720
0.2870,-0.9668,-0.1354,0.3720
0.2870,-0.9668,-0.1354,0.3720
0.3070,-0.9746,-0.1420,0.3651
0.3070,-0.9746,-0.1420,0.3651
0.3070,-0.9746,-0.1420,0.3651
0.3100,-0.9746,-0.1420,0.3651
0.3100,-0.9746,-0.1420,0.3651
0.3280,-0.9497,-0.1481,0.3602
0.3280,-0.9497,-0.1481,0.3602
0.3280,-0.9497,-0.1481,0.3602
0.3480,-0.9289,-0.1525,0.3275
0.3480,-0.9289,-0.1525,0.3275
0.3480,-0.9289,-0.1525,0.3275
0.3620,-0.9289,-0.1525,0.3275
0.3670,-0.9504,-0.1100,0.3187
0.3670,-0.9504,-0.1100,0.3187
0.3670,-0.9504,-0.1100,0.3187
0.3860,-0.9495,-0.1591,0.3617
0.3870,-0.9495,-0.1591,0.3617
0.3870,-0.9495,-0.1591,0.3617
0.3900,-0.9495,-0.1591,0.3617
0.3900,-0.9495,-0.1591,0.3617
0.4020,-0.9495,-0.1591,0.3617
0.4060,-0.9658,-0.1510,0.3412
0.4060,-0.9658,-0.1510,0.3412
0.4070,-0.9658,-0.1510,0.3412
0.4270,-0.9766,-0.1136,0.3463
0.4270,-0.9766,-0.1136,0.3463
0.4280,-0.9766,-0.1136,0.3463
0.4470,-0.9688,-0.1193,0.3629
0.4470,-0.9688,-0.1193,0.3629
0.4470,-0.9688,-0.1193,0.3629
0.4670,-0.9023,-0.1359,0.3568
0.4670,-0.9023,-0.1359,0.3568
0.4670,-0.9023,-0.1359,0.3568
0.4680,-0.9023,-0.1359,0.3568
0.4680,-0.9023,-0.1359,0.3568
0.4860,-0.8810,-0.1288,0.3338
0.4860,-0.8810,-0.1288,0.3338
0.4860,-0.8810,-0.1288,0.3338
0.5250,-0.9165,-0.1149,0.3199
0.5250,-0.9165,-0.1149,0.3199
0.5250,-0.9165,-0.1149,0.3199
0.5260,-0.9441,-0.1273,0.3348
0.5260,-0.9441,-0.1273,0.3348
0.5260,-0.9441,-0.1273,0.3348
0.5470,-0.9228,-0.1435,0.3355
0.5470,-0.9228,-0.1435,0.3355
0.5470,-0.9228,-0.1435,0.3355
0.5480,-0.9228,-0.1435,0.3355
0.5480,-0.9228,-0.1435,0.3355
0.5610,-0.9228,-0.1435,0.3355
0.5660,-0.9204,-0.1349,0.3287
0.5660,-0.9204,-0.1349,0.3287
0.5660,-0.9204,-0.1349,0.3287
0.5870,-0.9287,-0.1198,0.3321
0.5870,-0.9287,-0.1198,0.3321
0.5870,-0.9287,-0.1198,0.3321
0.6010,-0.9287,-0.1198,0.3321
0.6060,-0.9326,-0.1256,0.3585
0.6070,-0.9326,-0.1256,0.3585
0.6070,-0.9326,-0.1256,0.3585
0.6270,-0.9431,-0.1349,0.3639
0.6270,-0.9431,-0.1349,0.3639
0.6270,-0.9431,-0.1349,0.3639
0.6290,-0.9431,-0.1349,0.3639
0.6290,-0.9431,-0.1349,0.3639
0.6460,-0.9377,-0.1410,0.3527
0.6470,-0.9377,-0.1410,0.3527
0.6470,-0.9377,-0.1410,0.3527
0.6670,-0.9441,-0.1503,0.3590
0.6670,-0.9441,-0.1503,0.3590
0.6670,-0.9441,-0.1503,0.3590
0.6860,-0.9353,-0.1518,0.3727
0.6860,-0.9353,-0.1518,0.3727
0.6860,-0.9353,-0.1518,0.3727
0.7060,-0.9248,-0.1474,0.3624
0.7060,-0.9248,-0.1474,0.3624
0.7060,-0.9248,-0.1474,0.3624
0.7090,-0.9248,-0.1474,0.3624
0.7090,-0.9248,-0.1474,0.3624
0.7260,-0.9297,-0.1442,0.3549
0.7260,-0.9297,-0.1442,0.3549
0.7260,-0.9297,-0.1442,0.3549
0.7460,-0.9375,-0.1457,0.3685
0.7470,-0.9375,-0.1457,0.3685
0.7470,-0.9375,-0.1457,0.3685
0.7590,-0.9375,-0.1457,0.3685
0.7650,-0.9250,-0.1501,0.3869
0.7650,-0.9250,-0.1501,0.3869
0.7650,-0.9250,-0.1501,0.3869
0.7860,-0.9108,-0.1400,0.3539
0.7860,-0.9108,-0.1400,0.3539
0.7860,-0.9108,-0.1400,0.3539
0.7880,-0.9108,-0.1400,0.3539
0.7880,-0.9108,-0.1400,0.3539
0.8050,-0.9323,-0.1312,0.3248
0.8050,-0.9323,-0.1312,0.3248
0.8050,-0.9323,-0.1312,0.3248
0.8260,-0.9524,-0.1307,0.3417
0.8260,-0.9524,-0.1307,0.3417
0.8260,-0.9524,-0.1307,0.3417
0.8450,-0.9385,-0.1386,0.3448
0.8450,-0.9385,-0.1386,0.3448
0.8460,-0.9385,-0.1386,0.3448
0.8660,-0.8994,-0.1598,0.3263
0.8660,-0.8994,-0.1598,0.3263
0.8660,-0.8994,-0.1598,0.3263
0.8660,-0.8994,-0.1598,0.3263
0.8670,-0.8994,-0.1598,0.3263
0.8850,-0.8769,-0.1515,0.3233
0.8850,-0.8769,-0.1515,0.3233
0.8860,-0.8769,-0.1515,0.3233
0.9060,-0.9035,-0.1249,0.3646
0.9060,-0.9035,-0.1249,0.3646
0.9060,-0.9035,-0.1249,0.3646
0.9250,-0.9375,-0.1329,0.3898
0.9250,-0.9375,-0.1329,0.3898
0.9250,-0.9375,-0.1329,0.3898
0.9440,-0.9443,-0.1659,0.3729
0.9440,-0.9443,-0.1659,0.3729
0.9440,-0.9443,-0.1659,0.3729
0.9470,-0.9443,-0.1659,0.3729
0.9470,-0.9443,-0.1659,0.3729
0.9600,-0.9443,-0.1659,0.3729
0.9640,-0.9485,-0.1806,0.3360
0.9650,-0.9485,-0.1806,0.3360
0.9650,-0.9485,-0.1806,0.3360
0.9860,-0.9475,-0.1882,0.3646
0.9860,-0.9475,-0.1882,0.3646
0.9860,-0.9475,-0.1882,0.3646
0.9980,-0.9475,-0.1882,0.3646
1.0050,-0.9448,-0.2009,0.3900
1.0050,-0.9448,-0.2009,0.3900
1.0050,-0.9448,-0.2009,0.3900
1.0240,-0.9206,-0.1899,0.3881
1.0240,-0.9206,-0.1899,0.3881
1.0240,-0.9206,-0.1899,0.3881
1.0270,-0.9206,-0.1899,0.3881
1.0270,-0.9206,-0.1899,0.3881
1.0680,-0.9270,-0.1261,0.3908
1.0680,-0.9270,-0.1261,0.3908
1.0690,-0.9270,-0.1261,0.3908
1.0690,-0.9629,-0.0973,0.4328
1.0690,-0.9629,-0.0973,0.4328
1.0690,-0.9629,-0.0973,0.4328
1.0840,-0.9556,-0.1075,0.4235
1.0840,-0.9556,-0.1075,0.4235
1.0840,-0.9556,-0.1075,0.4235
1.1030,-0.9465,-0.1222,0.3800
1.1030,-0.9465,-0.1222,0.3800
1.1040,-0.9465,-0.1222,0.3800
1.1060,-0.9465,-0.1222,0.3800
1.1070,-0.9465,-0.1222,0.3800
1.1230,-0.9407,-0.1496,0.3451
1.1230,-0.9407,-0.1496,0.3451
1.1240,-0.9407,-0.1496,0.3451
1.1450,-0.9084,-0.1686,0.3453
1.1450,-0.9084,-0.1686,0.3453
1.1450,-0.9084,-0.1686,0.3453
1.1570,-0.9084,-0.1686,0.3453
1.1630,-0.9035,-0.1518,0.3436
1.1630,-0.9035,-0.1518,0.3436
1.1630,-0.9035,-0.1518,0.3436
1.1860,-0.9257,-0.1190,0.3568
1.1860,-0.9257,-0.1190,0.3568
1.1860,-0.9257,-0.1190,0.3568
1.1860,-0.9257,-0.1190,0.3568
1.1870,-0.9257,-0.1190,0.3568
1.2000,-0.9257,-0.1190,0.3568
1.2030,-0.9539,-0.1056,0.3358
1.2030,-0.9539,-0.1056,0.3358
1.2030,-0.9539,-0.1056,0.3358
1.2230,-0.9248,-0.1461,0.3891
1.2230,-0.9248,-0.1461,0.3891
1.2230,-0.9248,-0.1461,0.3891
1.2420,-0.9047,-0.1474,0.4089
1.2420,-0.9047,-0.1474,0.4089
1.2430,-0.9047,-0.1474,0.4089
1.2620,-0.9006,-0.1141,0.3935
1.2620,-0.9006,-0.1141,0.3935
1.2630,-0.9006,-0.1141,0.3935
1.2660,-0.9006,-0.1141,0.3935
1.2660,-0.9006,-0.1141,0.3935
1.2830,-0.9182,-0.1100,0.3910
1.2830,-0.9182,-0.1100,0.3910
1.2830,-0.9182,-0.1100,0.3910
1.3020,-0.9231,-0.1261,0.4111
1.3020,-0.9231,-0.1261,0.4111
1.3030,-0.9231,-0.1261,0.4111
1.3230,-0.9216,-0.1144,0.3883
1.3230,-0.9216,-0.1144,0.3883
1.3230,-0.9216,-0.1144,0.3883
1.3420,-0.9277,-0.1168,0.3634
1.3420,-0.9277,-0.1168,0.3634
1.3420,-0.9277,-0.1168,0.3634
1.3450,-0.9277,-0.1168,0.3634
1.3450,-0.9277,-0.1168,0.3634
1.3600,-0.9277,-0.1168,0.3634
1.3630,-0.9350,-0.1403,0.3722
1.3630,-0.9350,-0.1403,0.3722
1.3630,-0.9350,-0.1403,0.3722
1.3830,-0.8910,-0.1747,0.3629
1.3830,-0.8910,-0.1747,0.3629
1.3840,-0.8910,-0.1747,0.3629
1.4030,-0.8505,-0.1752,0.3536
1.4040,-0.8505,-0.1752,0.3536
1.4040,-0.8505,-0.1752,0.3536
1.4240,-0.8937,-0.1403,0.3896
1.4240,-0.8937,-0.1403,0.3896
1.4240,-0.8937,-0.1403,0.3896
1.4240,-0.8937,-0.1403,0.3896
1.4240,-0.8937,-0.1403,0.3896
1.4420,-0.9160,-0.1163,0.4047
1.4420,-0.9160,-0.1163,0.4047
1.4430,-0.9160,-0.1163,0.4047
1.4620,-0.9375,-0.1114,0.4142
1.4630,-0.9375,-0.1114,0.4142
1.4630,-0.9375,-0.1114,0.4142
1.4830,-0.9548,-0.1261,0.4130
1.4840,-0.9548,-0.1261,0.4130
1.4840,-0.9548,-0.1261,0.4130
1.5030,-0.9509,-0.1310,0.4152
1.5030,-0.9509,-0.1310,0.4152
1.5030,-0.9509,-0.1310,0.4152
1.5040,-0.9509,-0.1310,0.4152
1.5040,-0.9509,-0.1310,0.4152
1.5230,-0.9499,-0.1139,0.4057
1.5230,-0.9499,-0.1139,0.4057
1.5230,-0.9499,-0.1139,0.4057
1.5420,-0.9179,-0.1251,0.3712
1.5430,-0.9179,-0.1251,0.3712
1.5430,-0.9179,-0.1251,0.3712
1.5570,-0.9179,-0.1251,0.3712
1.5630,-0.8412,-0.1464,0.3585
1.5630,-0.8412,-0.1464,0.3585
1.5630,-0.8412,-0.1464,0.3585
1.5830,-0.8229,-0.1430,0.3739
1.5830,-0.8229,-0.1430,0.3739
1.5830,-0.8229,-0.1430,0.3739
1.6200,-0.8229,-0.1430,0.3739
1.6200,-0.8229,-0.1430,0.3739
1.6210,-0.8229,-0.1430,0.3739
1.6210,-0.8739,-0.1158,0.3922
1.6210,-0.8739,-0.1158,0.3922
1.6210,-0.8739,-0.1158,0.3922
1.6210,-0.9201,-0.1212,0.4130
1.6210,-0.9201,-0.1212,0.4130
1.6210,-0.9201,-0.1212,0.4130
1.6430,-0.9218,-0.1347,0.4247
1.6430,-0.9218,-0.1347,0.4247
1.6430,-0.9218,-0.1347,0.4247
1.6630,-0.9331,-0.1215,0.4123
1.6630,-0.9331,-0.1215,0.4123
1.6630,-0.9331,-0.1215,0.4123
1.6640,-0.9331,-0.1215,0.4123
1.6640,-0.9331,-0.1215,0.4123
1.6840,-0.9482,-0.1083,0.3893
1.6840,-0.9482,-0.1083,0.3893
1.6850,-0.9482,-0.1083,0.3893
1.7010,-0.9152,-0.1117,0.3578
1.7010,-0.9152,-0.1117,0.3578
1.7020,-0.9152,-0.1117,0.3578
1.7220,-0.9201,-0.1024,0.3541
1.7220,-0.9201,-0.1024,0.3541
1.7220,-0.9201,-0.1024,0.3541
1.7420,-0.9309,-0.1022,0.3859
1.7420,-0.9309,-0.1022,0.3859
1.7420,-0.9309,-0.1022,0.3859
1.7430,-0.9309,-0.1022,0.3859
1.7430,-0.9309,-0.1022,0.3859
1.7520,-0.9309,-0.1022,0.3859
1.7610,-0.8756,-0.0990,0.3605
1.7610,-0.8756,-0.0990,0.3605
1.7610,-0.8756,-0.0990,0.3605
1.7830,-0.8964,-0.0872,0.3717
1.7830,-0.8964,-0.0872,0.3717
1.7830,-0.8964,-0.0872,0.3717
1.8020,-0.9328,-0.0877,0.4054
1.8020,-0.9328,-0.0877,0.4054
1.8020,-0.9328,-0.0877,0.4054
1.8200,-0.9287,-0.1239,0.3976
1.8210,-0.9287,-0.1239,0.3976
1.8210,-0.9287,-0.1239,0.3976
1.8210,-0.9287,-0.1239,0.3976
1.8210,-0.9287,-0.1239,0.3976
1.8400,-0.8837,-0.1476,0.3768
1.8400,-0.8837,-0.1476,0.3768
1.8400,-0.8837,-0.1476,0.3768
1.8720,-0.8710,-0.1317,0.3920
1.8720,-0.8710,-0.1317,0.3920
1.8720,-0.8710,-0.1317,0.3920
1.8850,-0.9306,-0.1215,0.4182
1.8850,-0.9306,-0.1215,0.4182
1.8850,-0.9306,-0.1215,0.4182
1.9000,-0.9353,-0.1168,0.4145
1.9010,-0.9353,-0.1168,0.4145
1.9010,-0.9353,-0.1168,0.4145
1.9010,-0.9353,-0.1168,0.4145
1.9010,-0.9353,-0.1168,0.4145
1.9180,-0.9191,-0.1259,0.3918
1.9190,-0.9191,-0.1259,0.3918
1.9190,-0.9191,-0.1259,0.3918
1.9400,-0.9148,-0.1420,0.3822
1.9400,-0.9148,-0.1420,0.3822
1.9400,-0.9148,-0.1420,0.3822
1.9510,-0.9148,-0.1420,0.3822
1.9610,-0.9079,-0.1329,0.3822
1.9620,-0.9079,-0.1329,0.3822
1.9620,-0.9079,-0.1329,0.3822
1.9800,-0.9016,-0.1315,0.3922
1.9800,-0.9016,-0.1315,0.3922
1.9810,-0.9016,-0.1315,0.3922
1.9810,-0.9016,-0.1315,0.3922
1.9810,-0.9016,-0.1315,0.3922
2.0000,-0.9157,-0.1173,0.4020
2.0000,-0.9157,-0.1173,0.4020
2.0000,-0.9157,-0.1173,0.4020
2.0190,-0.9653,-0.1046,0.4216
2.0190,-0.9653,-0.1046,0.4216
2.0190,-0.9653,-0.1046,0.4216
2.0400,-0.9490,-0.1210,0.3964
2.0400,-0.9490,-0.1210,0.3964
2.0400,-0.9490,-0.1210,0.3964
2.0580,-0.9011,-0.1410,0.3720
2.0590,-0.9011,-0.1410,0.3720
2.0590,-0.9011,-0.1410,0.3720
2.0620,-0.9011,-0.1410,0.3720
2.0620,-0.9011,-0.1410,0.3720
2.0790,-0.9267,-0.1347,0.3854
2.0790,-0.9267,-0.1347,0.3854
2.0790,-0.9267,-0.1347,0.3854
2.0990,-0.9336,-0.1295,0.3932
2.1000,-0.9336,-0.1295,0.3932
2.1000,-0.9336,-0.1295,0.3932
2.1190,-0.8954,-0.1349,0.3922
2.1190,-0.8954,-0.1349,0.3922
2.1200,-0.8954,-0.1349,0.3922
2.1400,-0.9148,-0.1347,0.3878
2.1400,-0.9148,-0.1347,0.3878
2.1720,-0.9148,-0.1347,0.3878
2.1730,-0.9148,-0.1347,0.3878
2.1730,-0.9148,-0.1347,0.3878
2.1730,-0.9148,-0.1347,0.3878
2.1730,-0.9233,-0.1430,0.4050
2.1730,-0.9233,-0.1430,0.4050
2.1730,-0.9233,-0.1430,0.4050
2.1780,-0.9419,-0.1359,0.4272
2.1790,-0.9419,-0.1359,0.4272
2.1790,-0.9419,-0.1359,0.4272
2.1930,-0.9419,-0.1359,0.4272
2.2000,-0.9482,-0.1068,0.4379
2.2000,-0.9482,-0.1068,0.4379
2.2000,-0.9482,-0.1068,0.4379
2.2200,-0.9277,-0.0929,0.4274
2.2200,-0.9277,-0.0929,0.4274
2.2200,-0.9277,-0.0929,0.4274
2.2200,-0.9277,-0.0929,0.4274
2.2210,-0.9277,-0.0929,0.4274
2.2450,-0.9389,-0.0912,0.4208
2.2450,-0.9389,-0.0912,0.4208
2.2450,-0.9389,-0.0912,0.4208
2.2650,-0.9482,-0.1070,0.4140
2.2650,-0.9482,-0.1070,0.4140
2.2650,-0.9482,-0.1070,0.4140
2.2880,-0.9473,-0.1354,0.3998
2.2880,-0.9473,-0.1354,0.3998
2.2880,-0.9473,-0.1354,0.3998
2.2990,-0.9028,-0.1386,0.3250
2.2990,-0.9028,-0.1386,0.3250
2.3000,-0.9028,-0.1386,0.3250
2.3000,-0.9028,-0.1386,0.3250
2.3000,-0.9028,-0.1386,0.3250
2.3210,-0.8827,-0.1383,0.3150
2.3220,-0.8827,-0.1383,0.3150
2.3220,-0.8827,-0.1383,0.3150
2.3400,-0.9050,-0.1224,0.3671
2.3410,-0.9050,-0.1224,0.3671
2.3410,-0.9050,-0.1224,0.3671
2.3500,-0.9050,-0.1224,0.3671
2.3600,-0.8962,-0.0828,0.4040
2.3610,-0.8962,-0.0828,0.4040
2.3610,-0.8962,-0.0828,0.4040
2.3800,-0.9067,-0.0748,0.4204
2.3800,-0.9067,-0.0748,0.4204
2.3810,-0.9067,-0.0748,0.4204
2.3810,-0.9067,-0.0748,0.4204
2.3810,-0.9067,-0.0748,0.4204
2.3890,-0.9067,-0.0748,0.4204
2.4010,-0.9267,-0.1026,0.4089
2.4010,-0.9267,-0.1026,0.4089
2.4010,-0.9267,-0.1026,0.4089
2.4210,-0.8634,-0.1403,0.4118
2.4210,-0.8634,-0.1403,0.4118
2.4220,-0.8634,-0.1403,0.4118
2.4410,-0.8910,-0.1332,0.4233
2.4410,-0.8910,-0.1332,0.4233
2.4410,-0.8910,-0.1332,0.4233
2.4580,-0.9348,-0.1056,0.4172
2.4590,-0.9348,-0.1056,0.4172
2.4590,-0.9348,-0.1056,0.4172
2.4630,-0.9348,-0.1056,0.4172
2.4630,-0.9348,-0.1056,0.4172
2.4780,-0.9077,-0.0956,0.3673
2.4780,-0.9077,-0.0956,0.3673
2.4790,-0.9077,-0.0956,0.3673
2.5020,-0.8886,-0.1185,0.3639
2.5020,-0.8886,-0.1185,0.3639
2.5020,-0.8886,-0.1185,0.3639
2.5210,-0.8940,-0.1395,0.3940
2.5220,-0.8940,-0.1395,0.3940
2.5220,-0.8940,-0.1395,0.3940
2.5400,-0.8820,-0.1283,0.4030
2.5410,-0.8820,-0.1283,0.4030
2.5410,-0.8820,-0.1283,0.4030
2.5410,-0.8820,-0.1283,0.4030
2.5410,-0.8820,-0.1283,0.4030
2.5460,-0.8820,-0.1283,0.4030
2.5610,-0.9011,-0.0924,0.3878
2.5610,-0.9011,-0.0924,0.3878
2.5610,-0.9011,-0.0924,0.3878
2.5810,-0.9607,-0.0899,0.4309
2.5820,-0.9607,-0.0899,0.4309
2.5820,-0.9607,-0.0899,0.4309
2.6000,-0.9583,-0.1200,0.4511
2.6000,-0.9583,-0.1200,0.4511
2.6010,-0.9583,-0.1200,0.4511
2.6220,-0.9191,-0.1188,0.4096
2.6220,-0.9191,-0.1188,0.4096
2.6220,-0.9191,-0.1188,0.4096
2.6220,-0.9191,-0.1188,0.4096
2.6230,-0.9191,-0.1188,0.4096
2.6390,-0.9196,-0.1044,0.4116
2.6400,-0.9196,-0.1044,0.4116
2.6400,-0.9196,-0.1044,0.4116
2.6600,-0.9275,-0.1202,0.4223
2.6600,-0.9275,-0.1202,0.4223
2.6610,-0.9275,-0.1202,0.4223
2.6820,-0.8888,-0.1195,0.3849
2.6820,-0.8888,-0.1195,0.3849
2.7300,-0.8888,-0.1195,0.3849
2.7300,-0.8818,-0.1002,0.3673
2.7300,-0.8818,-0.1002,0.3673
2.7300,-0.8818,-0.1002,0.3673
2.7300,-0.8818,-0.1002,0.3673
2.7300,-0.8818,-0.1002,0.3673
2.7310,-0.9013,-0.1053,0.3878
2.7310,-0.9013,-0.1053,0.3878
2.7310,-0.9013,-0.1053,0.3878
2.7350,-0.9223,-0.1205,0.3800
2.7350,-0.9223,-0.1205,0.3800
2.7350,-0.9223,-0.1205,0.3800
2.7440,-0.9223,-0.1205,0.3800
2.7590,-0.8866,-0.1471,0.3891
2.7590,-0.8866,-0.1471,0.3891
2.7600,-0.8866,-0.1471,0.3891
2.7820,-0.8449,-0.1640,0.4052
2.7820,-0.8449,-0.1640,0.4052
2.7820,-0.8449,-0.1640,0.4052
2.7830,-0.8449,-0.1640,0.4052
2.7830,-0.8449,-0.1640,0.4052
2.8000,-0.8886,-0.1347,0.4191
2.8000,-0.8886,-0.1347,0.4191
2.8000,-0.8886,-0.1347,0.4191
2.8160,-0.9504,-0.1127,0.4426
2.8160,-0.9504,-0.1127,0.4426
2.8170,-0.9504,-0.1127,0.4426
2.8370,-0.9627,-0.1200,0.4519
2.8370,-0.9627,-0.1200,0.4519
2.8370,-0.9627,-0.1200,0.4519
2.8560,-0.9077,-0.1268,0.4145
2.8560,-0.9077,-0.1268,0.4145
2.8560,-0.9077,-0.1268,0.4145
2.8590,-0.9077,-0.1268,0.4145
2.8590,-0.9077,-0.1268,0.4145
2.8750,-0.8837,-0.1251,0.3888
2.8750,-0.8837,-0.1251,0.3888
2.8760,-0.8837,-0.1251,0.3888
2.8970,-0.9372,-0.1061,0.3959
2.8970,-0.9372,-0.1061,0.3959
2.8980,-0.9372,-0.1061,0.3959
2.9180,-0.9641,-0.0973,0.4072
2.9180,-0.9641,-0.0973,0.4072
2.9190,-0.9641,-0.0973,0.4072
2.9350,-0.9086,-0.1237,0.3783
2.9350,-0.9086,-0.1237,0.3783
2.9360,-0.9086,-0.1237,0.3783
2.9380,-0.9086,-0.1237,0.3783
2.9390,-0.9086,-0.1237,0.3783
2.9430,-0.9086,-0.1237,0.3783
2.9550,-0.8515,-0.1398,0.3571
2.9550,-0.8515,-0.1398,0.3571
2.9550,-0.8515,-0.1398,0.3571
2.9770,-0.8766,-0.1078,0.3683
2.9770,-0.8766,-0.1078,0.3683
2.9770,-0.8766,-0.1078,0.3683
2.9840,-0.8766,-0.1078,0.3683
2.9960,-0.9389,-0.0826,0.3954
2.9960,-0.9389,-0.0826,0.3954
2.9960,-0.9389,-0.0826,0.3954
3.0150,-0.9394,-0.1132,0.4037
3.0160,-0.9394,-0.1132,0.4037
3.0160,-0.9394,-0.1132,0.4037
3.0210,-0.9394,-0.1132,0.4037
3.0210,-0.9394,-0.1132,0.4037
3.0370,-0.8979,-0.1422,0.3905
3.0370,-0.8979,-0.1422,0.3905
3.0370,-0.8979,-0.1422,0.3905
3.0570,-0.9189,-0.1383,0.3854
3.0570,-0.9189,-0.1383,0.3854
3.0580,-0.9189,-0.1383,0.3854
3.0780,-0.9326,-0.1261,0.3979
3.0780,-0.9326,-0.1261,0.3979
3.0780,-0.9326,-0.1261,0.3979
3.0950,-0.9607,-0.1268,0.4108
3.0960,-0.9607,-0.1268,0.4108
3.0960,-0.9607,-0.1268,0.4108
3.0960,-0.9607,-0.1268,0.4108
3.0960,-0.9607,-0.1268,0.4108
3.1160,-0.9409,-0.1300,0.4052
3.1160,-0.9409,-0.1300,0.4052
3.1160,-0.9409,-0.1300,0.4052
3.1340,-0.9108,-0.1166,0.3690
3.1340,-0.9108,-0.1166,0.3690
3.1350,-0.9108,-0.1166,0.3690
3.1430,-0.9108,-0.1166,0.3690
3.1580,-0.9275,-0.1122,0.3651
3.1580,-0.9275,-0.1122,0.3651
3.1580,-0.9275,-0.1122,0.3651
3.1740,-0.9267,-0.1307,0.3815
3.1740,-0.9267,-0.1307,0.3815
3.1740,-0.9267,-0.1307,0.3815
3.1770,-0.9267,-0.1307,0.3815
3.1770,-0.9267,-0.1307,0.3815
3.1820,-0.9267,-0.1307,0.3815
3.1940,-0.9035,-0.1369,0.3942
3.1950,-0.9035,-0.1369,0.3942
3.1950,-0.9035,-0.1369,0.3942
3.2160,-0.9113,-0.1171,0.3908
3.2170,-0.9113,-0.1171,0.3908
3.2620,-0.9113,-0.1171,0.3908
3.2620,-0.9451,-0.1124,0.3795
3.2620,-0.9451,-0.1124,0.3795
3.2620,-0.9451,-0.1124,0.3795
3.2620,-0.9380,-0.1403,0.3866
3.2620,-0.9380,-0.1403,0.3866
3.2630,-0.9380,-0.1403,0.3866
3.2630,-0.9380,-0.1403,0.3866
3.2630,-0.9380,-0.1403,0.3866
3.2750,-0.8996,-0.1562,0.3854
3.2750,-0.8996,-0.1562,0.3854
3.2750,-0.8996,-0.1562,0.3854
3.2960,-0.9030,-0.1351,0.3871
3.2960,-0.9030,-0.1351,0.3871
3.2970,-0.9030,-0.1351,0.3871
3.3160,-0.9040,-0.1119,0.3830
3.3160,-0.9040,-0.1119,0.3830
3.3160,-0.9040,-0.1119,0.3830
3.3350,-0.9045,-0.1215,0.3844
3.3350,-0.9045,-0.1215,0.3844
3.3350,-0.9045,-0.1215,0.3844
3.3350,-0.9045,-0.1215,0.3844
3.3350,-0.9045,-0.1215,0.3844
3.3400,-0.9045,-0.1215,0.3844
3.3500,-0.9006,-0.1364,0.3820
3.3510,-0.9006,-0.1364,0.3820
3.3510,-0.9006,-0.1364,0.3820
3.3730,-0.9563,-0.1329,0.3588
3.3730,-0.9563,-0.1329,0.3588
3.3740,-0.9563,-0.1329,0.3588
3.3850,-0.9563,-0.1329,0.3588
3.3920,-0.9543,-0.1371,0.3854
3.3920,-0.9543,-0.1371,0.3854
3.3930,-0.9543,-0.1371,0.3854
3.4120,-0.8759,-0.1217,0.3764
3.4120,-0.8759,-0.1217,0.3764
3.4130,-0.8759,-0.1217,0.3764
3.4150,-0.8759,-0.1217,0.3764
3.4150,-0.8759,-0.1217,0.3764
3.4320,-0.9038,-0.1173,0.3659
3.4320,-0.9038,-0.1173,0.3659
3.4320,-0.9038,-0.1173,0.3659
3.4520,-0.9419,-0.1315,0.3937
3.4530,-0.9419,-0.1315,0.3937
3.4530,-0.9419,-0.1315,0.3937
3.4730,-0.9284,-0.1395,0.4128
3.4730,-0.9284,-0.1395,0.4128
3.4730,-0.9284,-0.1395,0.4128
3.4910,-0.8844,-0.1254,0.3761
3.4910,-0.8844,-0.1254,0.3761
3.4910,-0.8844,-0.1254,0.3761
3.4910,-0.8844,-0.1254,0.3761
3.4910,-0.8844,-0.1254,0.3761
3.5120,-0.9106,-0.1224,0.3641
3.5130,-0.9106,-0.1224,0.3641
3.5130,-0.9106,-0.1224,0.3641
3.5300,-0.9722,-0.1290,0.3881
3.5300,-0.9722,-0.1290,0.3881
3.5300,-0.9722,-0.1290,0.3881
3.5390,-0.9722,-0.1290,0.3881
3.5510,-0.9333,-0.1395,0.3827
3.5510,-0.9333,-0.1395,0.3827
3.5510,-0.9333,-0.1395,0.3827
3.5700,-0.8986,-0.1459,0.3483
3.5700,-0.8986,-0.1459,0.3483
3.5700,-0.8986,-0.1459,0.3483
3.5710,-0.8986,-0.1459,0.3483
3.5710,-0.8986,-0.1459,0.3483
3.5810,-0.8986,-0.1459,0.3483
3.5890,-0.9057,-0.1356,0.3588
3.5890,-0.9057,-0.1356,0.3588
3.5890,-0.9057,-0.1356,0.3588
3.6100,-0.9204,-0.1327,0.3979
3.6100,-0.9204,-0.1327,0.3979
3.6100,-0.9204,-0.1327,0.3979
3.6310,-0.9470,-0.1310,0.4086
3.6310,-0.9470,-0.1310,0.4086
3.6310,-0.9470,-0.1310,0.4086
3.6490,-0.9441,-0.1212,0.3766
3.6490,-0.9441,-0.1212,0.3766
3.6500,-0.9441,-0.1212,0.3766
3.6520,-0.9441,-0.1212,0.3766
3.6520,-0.9441,-0.1212,0.3766
3.6680,-0.9319,-0.1244,0.3610
3.6690,-0.9319,-0.1244,0.3610
3.6690,-0.9319,-0.1244,0.3610
3.6880,-0.9189,-0.1417,0.3724
3.6880,-0.9189,-0.1417,0.3724
3.6890,-0.9189,-0.1417,0.3724
3.7110,-0.9199,-0.1437,0.3661
3.7110,-0.9199,-0.1437,0.3661
3.7110,-0.9199,-0.1437,0.3661
3.7300,-0.9353,-0.1317,0.3666
3.7300,-0.9353,-0.1317,0.3666
3.7300,-0.9353,-0.1317,0.3666
3.7300,-0.9353,-0.1317,0.3666
3.7300,-0.9353,-0.1317,0.3666
3.7370,-0.9353,-0.1317,0.3666
3.7490,-0.9287,-0.1293,0.3947
3.7490,-0.9287,-0.1293,0.3947
3.8000,-0.9287,-0.1293,0.3947
3.8010,-0.9152,-0.1347,0.3905
3.8010,-0.9152,-0.1347,0.3905
3.8010,-0.9152,-0.1347,0.3905
3.8010,-0.9155,-0.1403,0.3734
3.8010,-0.9155,-0.1403,0.3734
3.8010,-0.9155,-0.1403,0.3734
3.8080,-0.9204,-0.1405,0.3732
3.8080,-0.9204,-0.1405,0.3732
3.8080,-0.9204,-0.1405,0.3732
3.8100,-0.9204,-0.1405,0.3732
3.8100,-0.9204,-0.1405,0.3732
3.8280,-0.9301,-0.1510,0.3979
3.8280,-0.9301,-0.1510,0.3979
3.8280,-0.9301,-0.1510,0.3979
3.8470,-0.9165,-0.1420,0.3788
3.8470,-0.9165,-0.1420,0.3788
3.8480,-0.9165,-0.1420,0.3788
3.8700,-0.9057,-0.1251,0.3524
3.8700,-0.9057,-0.1251,0.3524
3.8700,-0.9057,-0.1251,0.3524
3.8870,-0.9118,-0.1171,0.3434
3.8870,-0.9118,-0.1171,0.3434
3.8870,-0.9118,-0.1171,0.3434
3.8900,-0.9118,-0.1171,0.3434
3.8900,-0.9118,-0.1171,0.3434
3.9070,-0.9064,-0.1188,0.3646
3.9070,-0.9064,-0.1188,0.3646
3.9070,-0.9064,-0.1188,0.3646
3.9280,-0.9243,-0.1256,0.3693
3.9290,-0.9243,-0.1256,0.3693
3.9290,-0.9243,-0.1256,0.3693
3.9350,-0.9243,-0.1256,0.3693
3.9470,-0.9126,-0.1320,0.3573
3.9480,-0.9126,-0.1320,0.3573
3.9480,-0.9126,-0.1320,0.3573
3.9670,-0.9130,-0.1452,0.3913
3.9680,-0.9130,-0.1452,0.3913
3.9680,-0.9130,-0.1452,0.3913
3.9680,-0.9130,-0.1452,0.3913
3.9680,-0.9130,-0.1452,0.3913
3.9870,-0.8937,-0.1635,0.3998
3.9870,-0.8937,-0.1635,0.3998
3.9870,-0.8937,-0.1635,0.3998
4.0070,-0.9257,-0.1535,0.3822
4.0070,-0.9257,-0.1535,0.3822
4.0070,-0.9257,-0.1535,0.3822
4.0290,-0.9842,-0.1459,0.3798
4.0290,-0.9842,-0.1459,0.3798
4.0300,-0.9842,-0.1459,0.3798
4.0470,-0.9707,-0.1518,0.3922
4.0470,-0.9707,-0.1518,0.3922
4.0470,-0.9707,-0.1518,0.3922
4.0490,-0.9707,-0.1518,0.3922
4.0500,-0.9707,-0.1518,0.3922
4.0660,-0.9326,-0.1386,0.3690
4.0660,-0.9326,-0.1386,0.3690
4.0670,-0.9326,-0.1386,0.3690
4.0860,-0.9172,-0.1334,0.3529
4.0870,-0.9172,-0.1334,0.3529
4.0870,-0.9172,-0.1334,0.3529
4.1070,-0.8974,-0.1437,0.3260
4.1070,-0.8974,-0.1437,0.3260
4.1070,-0.8974,-0.1437,0.3260
4.1260,-0.9165,-0.1537,0.3458
4.1260,-0.9165,-0.1537,0.3458
4.1260,-0.9165,-0.1537,0.3458
4.1270,-0.9165,-0.1537,0.3458
4.1270,-0.9165,-0.1537,0.3458
4.1340,-0.9165,-0.1537,0.3458
4.1460,-0.9556,-0.1393,0.3844
4.1470,-0.9556,-0.1393,0.3844
4.1470,-0.9556,-0.1393,0.3844
4.1650,-0.9382,-0.1210,0.3773
4.1660,-0.9382,-0.1210,0.3773
4.1660,-0.9382,-0.1210,0.3773
4.1790,-0.9382,-0.1210,0.3773
4.1890,-0.9365,-0.1178,0.3487
4.1900,-0.9365,-0.1178,0.3487
4.1900,-0.9365,-0.1178,0.3487
4.2070,-0.9309,-0.1417,0.3390
4.2070,-0.9309,-0.1417,0.3390
4.2070,-0.9309,-0.1417,0.3390
4.2080,-0.9309,-0.1417,0.3390
4.2080,-0.9309,-0.1417,0.3390
4.2260,-0.9341,-0.1586,0.3544
4.2260,-0.9341,-0.1586,0.3544
4.2260,-0.9341,-0.1586,0.3544
4.2450,-0.9082,-0.1278,0.3495
4.2460,-0.9082,-0.1278,0.3495
4.2460,-0.9082,-0.1278,0.3495
4.2680,-0.9045,-0.1146,0.3358
4.2680,-0.9045,-0.1146,0.3358
4.2680,-0.9045,-0.1146,0.3358
4.2860,-0.9453,-0.1349,0.3495
4.2870,-0.9453,-0.1349,0.3495
4.2870,-0.9453,-0.1349,0.3495
4.2870,-0.9453,-0.1349,0.3495
4.2870,-0.9453,-0.1349,0.3495
4.3050,-0.9631,-0.1498,0.3729
4.3490,-0.9631,-0.1498,0.3729
4.3490,-0.9631,-0.1498,0.3729
4.3500,-0.9722,-0.1354,0.3703
4.3500,-0.9722,-0.1354,0.3703
4.3500,-0.9722,-0.1354,0.3703
4.3500,-0.9722,-0.1354,0.3703
4.3510,-0.9353,-0.1232,0.3487
4.3510,-0.9353,-0.1232,0.3487
4.3510,-0.9353,-0.1232,0.3487
4.3630,-0.9106,-0.1388,0.3502
4.3630,-0.9106,-0.1388,0.3502
4.3630,-0.9106,-0.1388,0.3502
4.3680,-0.9106,-0.1388,0.3502
4.3680,-0.9106,-0.1388,0.3502
4.3840,-0.9358,-0.1491,0.3759
4.3840,-0.9358,-0.1491,0.3759
4.3840,-0.9358,-0.1491,0.3759
4.4030,-0.9497,-0.1435,0.3732
4.4030,-0.9497,-0.1435,0.3732
4.4030,-0.9497,-0.1435,0.3732
4.4260,-0.9580,-0.1293,0.3402
4.4270,-0.9580,-0.1293,0.3402
4.4270,-0.9580,-0.1293,0.3402
4.4450,-0.9519,-0.1285,0.3754
4.4460,-0.9519,-0.1285,0.3754
4.4460,-0.9519,-0.1285,0.3754
4.4500,-0.9519,-0.1285,0.3754
4.4500,-0.9519,-0.1285,0.3754
4.4620,-0.9265,-0.1190,0.3776
4.4620,-0.9265,-0.1190,0.3776
4.4620,-0.9265,-0.1190,0.3776
4.4820,-0.9052,-0.1176,0.3656
4.4820,-0.9052,-0.1176,0.3656
4.4830,-0.9052,-0.1176,0.3656
4.5020,-0.9064,-0.1283,0.3795
4.5020,-0.9064,-0.1283,0.3795
4.5030,-0.9064,-0.1283,0.3795
4.5230,-0.9128,-0.1388,0.3575
4.5240,-0.9128,-0.1388,0.3575
4.5240,-0.9128,-0.1388,0.3575
4.5250,-0.9128,-0.1388,0.3575
4.5250,-0.9128,-0.1388,0.3575
4.5310,-0.9128,-0.1388,0.3575
4.5420,-0.9121,-0.1496,0.3370
4.5430,-0.9121,-0.1496,0.3370
4.5430,-0.9121,-0.1496,0.3370
4.5610,-0.9104,-0.1496,0.3473
4.5620,-0.9104,-0.1496,0.3473
4.5620,-0.9104,-0.1496,0.3473
4.5820,-0.9167,-0.1263,0.3600
4.5820,-0.9167,-0.1263,0.3600
4.5820,-0.9167,-0.1263,0.3600
4.6020,-0.9221,-0.1063,0.3429
4.6020,-0.9221,-0.1063,0.3429
4.6020,-0.9221,-0.1063,0.3429
4.6060,-0.9221,-0.1063,0.3429
4.6060,-0.9221,-0.1063,0.3429
4.6210,-0.9409,-0.1154,0.3659
4.6220,-0.9409,-0.1154,0.3659
4.6220,-0.9409,-0.1154,0.3659
4.6420,-0.9218,-0.1227,0.3844
4.6420,-0.9218,-0.1227,0.3844
4.6430,-0.9218,-0.1227,0.3844
4.6620,-0.8859,-0.1134,0.3607
4.6630,-0.8859,-0.1134,0.3607
4.6630,-0.8859,-0.1134,0.3607
4.6820,-0.8979,-0.1102,0.3414
4.6830,-0.8979,-0.1102,0.3414
4.6830,-0.8979,-0.1102,0.3414
4.6860,-0.8979,-0.1102,0.3414
4.6870,-0.8979,-0.1102,0.3414
4.7020,-0.9389,-0.1210,0.3815
4.7020,-0.9389,-0.1210,0.3815
4.7020,-0.9389,-0.1210,0.3815
4.7220,-0.9358,-0.1278,0.3651
4.7230,-0.9358,-0.1278,0.3651
4.7230,-0.9358,-0.1278,0.3651
4.7290,-0.9358,-0.1278,0.3651
4.7420,-0.9091,-0.1288,0.3397
4.7420,-0.9091,-0.1288,0.3397
4.7420,-0.9091,-0.1288,0.3397
4.7620,-0.9216,-0.1320,0.3512
4.7620,-0.9216,-0.1320,0.3512
4.7630,-0.9216,-0.1320,0.3512
4.7630,-0.9216,-0.1320,0.3512
4.7830,-0.9475,-0.1293,0.3715
4.7830,-0.9475,-0.1293,0.3715
4.7830,-0.9475,-0.1293,0.3715
4.8020,-0.9504,-0.1154,0.3632
4.8020,-0.9504,-0.1154,0.3632
4.8030,-0.9504,-0.1154,0.3632
4.8230,-0.9433,-0.1322,0.3561
4.8230,-0.9433,-0.1322,0.3561
4.8230,-0.9433,-0.1322,0.3561
4.8430,-0.9265,-0.1537,0.3710
4.8430,-0.9265,-0.1537,0.3710
4.8430,-0.9265,-0.1537,0.3710
4.8470,-0.9265,-0.1537,0.3710
4.8470,-0.9265,-0.1537,0.3710
4.8630,-0.9323,-0.1444,0.3812
4.9010,-0.9323,-0.1444,0.3812
4.9010,-0.9323,-0.1444,0.3812
4.9010,-0.9135,-0.1293,0.3600
4.9010,-0.9135,-0.1293,0.3600
4.9010,-0.9135,-0.1293,0.3600
4.9010,-0.9099,-0.1408,0.3407
4.9010,-0.9099,-0.1408,0.3407
4.9010,-0.9099,-0.1408,0.3407
4.9220,-0.9345,-0.1466,0.3480
4.9220,-0.9345,-0.1466,0.3480
4.9220,-0.9345,-0.1466,0.3480
4.9230,-0.9345,-0.1466,0.3480
4.9230,-0.9345,-0.1466,0.3480
4.9270,-0.9345,-0.1466,0.3480
4.9410,-0.9438,-0.1408,0.3729
4.9410,-0.9438,-0.1408,0.3729
4.9410,-0.9438,-0.1408,0.3729
4.9610,-0.9631,-0.1356,0.3856
4.9610,-0.9631,-0.1356,0.3856
4.9610,-0.9631,-0.1356,0.3856
4.9810,-0.9551,-0.1139,0.3553
4.9810,-0.9551,-0.1139,0.3553
4.9820,-0.9551,-0.1139,0.3553
5.0000,-0.9485,-0.0975,0.3448
5.0010,-0.9485,-0.0975,0.3448
5.0010,-0.9485,-0.0975,0.3448
5.0040,-0.9485,-0.0975,0.3448
5.0040,-0.9485,-0.0975,0.3448
5.0190,-0.9551,-0.1190,0.3473
5.0200,-0.9551,-0.1190,0.3473
5.0200,-0.9551,-0.1190,0.3473
5.0410,-0.9294,-0.1530,0.3434
5.0420,-0.9294,-0.1530,0.3434
5.0420,-0.9294,-0.1530,0.3434
5.0590,-0.8896,-0.1657,0.3441
5.0590,-0.8896,-0.1657,0.3441
5.0590,-0.8896,-0.1657,0.3441
5.0810,-0.9250,-0.1449,0.3336
5.0820,-0.9250,-0.1449,0.3336
5.0820,-0.9250,-0.1449,0.3336
5.0830,-0.9250,-0.1449,0.3336
5.0840,-0.9250,-0.1449,0.3336
5.0990,-0.9536,-0.1325,0.3519
5.1000,-0.9536,-0.1325,0.3519
5.1000,-0.9536,-0.1325,0.3519
5.1220,-0.9717,-0.1361,0.3847
5.1220,-0.9717,-0.1361,0.3847
5.1220,-0.9717,-0.1361,0.3847
5.1250,-0.9717,-0.1361,0.3847
5.1410,-0.9712,-0.1452,0.3825
5.1410,-0.9712,-0.1452,0.3825
5.1420,-0.9712,-0.1452,0.3825
5.1600,-0.9411,-0.1383,0.3382
5.1610,-0.9411,-0.1383,0.3382
5.1610,-0.9411,-0.1383,0.3382
5.1640,-0.9411,-0.1383,0.3382
5.1640,-0.9411,-0.1383,0.3382
5.1820,-0.9135,-0.1278,0.3363
5.1820,-0.9135,-0.1278,0.3363
5.1820,-0.9135,-0.1278,0.3363
5.2010,-0.8769,-0.1259,0.3395
5.2020,-0.8769,-0.1259,0.3395
5.2020,-0.8769,-0.1259,0.3395
5.2190,-0.9187,-0.1220,0.3514
5.2190,-0.9187,-0.1220,0.3514
5.2190,-0.9187,-0.1220,0.3514
5.2410,-0.9631,-0.1002,0.3387
5.2410,-0.9631,-0.1002,0.3387
5.2410,-0.9631,-0.1002,0.3387
5.2420,-0.9631,-0.1002,0.3387
5.2420,-0.9631,-0.1002,0.3387
5.2610,-0.9587,-0.1009,0.3436
5.2610,-0.9587,-0.1009,0.3436
5.2610,-0.9587,-0.1009,0.3436
5.2810,-0.9255,-0.1276,0.3507
5.2810,-0.9255,-0.1276,0.3507
5.2820,-0.9255,-0.1276,0.3507
5.3010,-0.9204,-0.1398,0.3267
5.3010,-0.9204,-0.1398,0.3267
5.3010,-0.9204,-0.1398,0.3267
5.3200,-0.9394,-0.1437,0.3365
5.3210,-0.9394,-0.1437,0.3365
5.3210,-0.9394,-0.1437,0.3365
5.3210,-0.9394,-0.1437,0.3365
5.3210,-0.9394,-0.1437,0.3365
5.3220,-0.9394,-0.1437,0.3365
5.3370,-0.9671,-0.1310,0.3605
5.3380,-0.9671,-0.1310,0.3605
5.3380,-0.9671,-0.1310,0.3605
5.3580,-0.9314,-0.1227,0.3597
5.3580,-0.9314,-0.1227,0.3597
5.3580,-0.9314,-0.1227,0.3597
5.3770,-0.9319,-0.1207,0.3424
5.3780,-0.9319,-0.1207,0.3424
5.3780,-0.9319,-0.1207,0.3424
5.4000,-0.9563,-0.1124,0.3480
5.4000,-0.9563,-0.1124,0.3480
5.4010,-0.9563,-0.1124,0.3480
5.4010,-0.9563,-0.1124,0.3480
5.4010,-0.9563,-0.1124,0.3480
5.4430,-0.9563,-0.1061,0.3483
5.4430,-0.9563,-0.1061,0.3483
5.4430,-0.9563,-0.1061,0.3483
5.4440,-0.9392,-0.1220,0.3468
5.4440,-0.9392,-0.1220,0.3468
5.4440,-0.9392,-0.1220,0.3468
5.4570,-0.9172,-0.1303,0.3395
5.4580,-0.9172,-0.1303,0.3395
5.4580,-0.9172,-0.1303,0.3395
5.4770,-0.9118,-0.1112,0.3226
5.4780,-0.9118,-0.1112,0.3226
5.4780,-0.9118,-0.1112,0.3226
5.4800,-0.9118,-0.1112,0.3226
5.4800,-0.9118,-0.1112,0.3226
5.4990,-0.9275,-0.1078,0.3465
5.5000,-0.9275,-0.1078,0.3465
5.5000,-0.9275,-0.1078,0.3465
5.5180,-0.9306,-0.1212,0.3615
5.5180,-0.9306,-0.1212,0.3615
5.5180,-0.9306,-0.1212,0.3615
5.5230,-0.9306,-0.1212,0.3615
5.5380,-0.9209,-0.1347,0.3514
5.5380,-0.9209,-0.1347,0.3514
5.5380,-0.9209,-0.1347,0.3514
5.5600,-0.9277,-0.1224,0.3351
5.5600,-0.9277,-0.1224,0.3351
5.5600,-0.9277,-0.1224,0.3351
5.5600,-0.9277,-0.1224,0.3351
5.5610,-0.9277,-0.1224,0.3351
5.5780,-0.9260,-0.1215,0.3546
5.5780,-0.9260,-0.1215,0.3546
5.5780,-0.9260,-0.1215,0.3546
5.6000,-0.9426,-0.1195,0.3788
5.6000,-0.9426,-0.1195,0.3788
5.6000,-0.9426,-0.1195,0.3788
5.6200,-0.9563,-0.0926,0.3563
5.6200,-0.9563,-0.0926,0.3563
5.6200,-0.9563,-0.0926,0.3563
5.6390,-0.9123,-0.0892,0.3316
5.6390,-0.9123,-0.0892,0.3316
5.6400,-0.9123,-0.0892,0.3316
5.6400,-0.9123,-0.0892,0.3316
5.6400,-0.9123,-0.0892,0.3316
5.6560,-0.8649,-0.1227,0.3243
5.6570,-0.8649,-0.1227,0.3243
5.6570,-0.8649,-0.1227,0.3243
5.6790,-0.9108,-0.1476,0.3534
5.6800,-0.9108,-0.1476,0.3534
5.6800,-0.9108,-0.1476,0.3534
5.7000,-0.9507,-0.1320,0.3803
5.7010,-0.9507,-0.1320,0.3803
5.7020,-0.9507,-0.1320,0.3803
5.7180,-0.9607,-0.0973,0.3597
5.7190,-0.9607,-0.0973,0.3597
5.7190,-0.9607,-0.0973,0.3597
5.7200,-0.9607,-0.0973,0.3597
5.7200,-0.9607,-0.0973,0.3597
5.7210,-0.9607,-0.0973,0.3597
5.7430,-0.9712,-0.0762,0.3172
5.7440,-0.9712,-0.0762,0.3172
5.7450,-0.9712,-0.0762,0.3172
5.7600,-0.9805,-0.0792,0.3077
5.7630,-0.9805,-0.0792,0.3077
5.7660,-0.9805,-0.0792,0.3077
5.7810,-0.9490,-0.1254,0.3348
5.7810,-0.9490,-0.1254,0.3348
5.7820,-0.9490,-0.1254,0.3348
5.8010,-0.8947,-0.1520,0.3426
5.8020,-0.8947,-0.1520,0.3426
5.8040,-0.8947,-0.1520,0.3426
5.8040,-0.8947,-0.1520,0.3426
5.8060,-0.8947,-0.1520,0.3426
5.8240,-0.8906,-0.1261,0.3221
5.8240,-0.8906,-0.1261,0.3221
5.8250,-0.8906,-0.1261,0.3221
5.8380,-0.9470,-0.1056,0.3505
5.8410,-0.9470,-0.1056,0.3505
5.8430,-0.9470,-0.1056,0.3505
5.8610,-0.9834,-0.1359,0.3971
5.8620,-0.9834,-0.1359,0.3971
5.8620,-0.9834,-0.1359,0.3971
5.8770,-0.9590,-0.1457,0.3808
5.8780,-0.9590,-0.1457,0.3808
5.8790,-0.9590,-0.1457,0.3808
5.8860,-0.9590,-0.1457,0.3808
5.8880,-0.9590,-0.1457,0.3808
5.9010,-0.9360,-0.1051,0.3199
5.9020,-0.9360,-0.1051,0.3199
5.9030,-0.9360,-0.1051,0.3199
5.9180,-0.9399,-0.0850,0.3302
5.9210,-0.9399,-0.0850,0.3302
5.9220,-0.9399,-0.0850,0.3302
5.9240,-0.9399,-0.0850,0.3302
5.9410,-0.9387,-0.1151,0.3487
5.9420,-0.9387,-0.1151,0.3487
5.9430,-0.9387,-0.1151,0.3487
5.9590,-0.9209,-0.1261,0.3338
5.9630,-0.9209,-0.1261,0.3338
5.9640,-0.9209,-0.1261,0.3338
5.9650,-0.9209,-0.1261,0.3338
6.0510,-0.9209,-0.1261,0.3338
6.0520,-0.9209,-0.1261,0.3338
6.0520,-0.9096,-0.1097,0.3311
6.0520,-0.9096,-0.1097,0.3311
6.0520,-0.9096,-0.1097,0.3311
6.0520,-0.9372,-0.1066,0.3558
6.0520,-0.9372,-0.1066,0.3558
6.0530,-0.9372,-0.1066,0.3558
6.0530,-0.9634,-0.1283,0.3585
6.0530,-0.9634,-0.1283,0.3585
6.0530,-0.9634,-0.1283,0.3585
6.0530,-0.9756,-0.1457,0.3505
6.0530,-0.9756,-0.1457,0.3505
6.0540,-0.9756,-0.1457,0.3505
6.0540,-0.9756,-0.1457,0.3505
6.0540,-0.9756,-0.1457,0.3505
6.0540,-0.9866,-0.1403,0.3382
6.0540,-0.9866,-0.1403,0.3382
6.0540,-0.9866,-0.1403,0.3382
6.0730,-0.9644,-0.1112,0.3385
6.0740,-0.9644,-0.1112,0.3385
6.0740,-0.9644,-0.1112,0.3385
6.0980,-0.9678,-0.0943,0.3659
6.0980,-0.9678,-0.0943,0.3659
6.0990,-0.9678,-0.0943,0.3659
6.1150,-0.9485,-0.1007,0.3451
6.1150,-0.9485,-0.1007,0.3451
6.1160,-0.9485,-0.1007,0.3451
6.1180,-0.9485,-0.1007,0.3451
6.1180,-0.9485,-0.1007,0.3451
6.1220,-0.9485,-0.1007,0.3451
6.1400,-0.9062,-0.1061,0.3131
6.1400,-0.9062,-0.1061,0.3131
6.1410,-0.9062,-0.1061,0.3131
6.1580,-0.8703,-0.1110,0.3380
6.1580,-0.8703,-0.1110,0.3380
6.1590,-0.8703,-0.1110,0.3380
6.1780,-0.9275,-0.1200,0.3703
6.1790,-0.9275,-0.1200,0.3703
6.1790,-0.9275,-0.1200,0.3703
6.1950,-0.9482,-0.1317,0.3649
6.1970,-0.9482,-0.1317,0.3649
6.1980,-0.9482,-0.1317,0.3649
6.1990,-0.9482,-0.1317,0.3649
6.1990,-0.9482,-0.1317,0.3649
6.2180,-0.9382,-0.1466,0.3483
6.2180,-0.9382,-0.1466,0.3483
6.2190,-0.9382,-0.1466,0.3483
6.2350,-0.9309,-0.1503,0.3710
6.2380,-0.9309,-0.1503,0.3710
6.2380,-0.9309,-0.1503,0.3710
6.2550,-0.8972,-0.1205,0.3505
6.2550,-0.8972,-0.1205,0.3505
6.2580,-0.8972,-0.1205,0.3505
6.2730,-0.8959,-0.0929,0.3167
6.2740,-0.8959,-0.0929,0.3167
6.2740,-0.8959,-0.0929,0.3167
6.2750,-0.8959,-0.0929,0.3167
6.2770,-0.8959,-0.0929,0.3167
6.2950,-0.9011,-0.1007,0.2727
6.2950,-0.9011,-0.1007,0.2727
6.2970,-0.9011,-0.1007,0.2727
6.3170,-0.9126,-0.1315,0.2830
6.3180,-0.9126,-0.1315,0.2830
6.3180,-0.9126,-0.1315,0.2830
6.3210,-0.9126,-0.1315,0.2830
6.3350,-0.9754,-0.1567,0.3573
6.3380,-0.9754,-0.1567,0.3573
6.3410,-0.9754,-0.1567,0.3573
6.3570,-0.9639,-0.1642,0.3700
6.3570,-0.9639,-0.1642,0.3700
6.3580,-0.9639,-0.1642,0.3700
6.3580,-0.9639,-0.1642,0.3700
6.3590,-0.9639,-0.1642,0.3700
6.3760,-0.9455,-0.1344,0.3336
6.3770,-0.9455,-0.1344,0.3336
6.3770,-0.9455,-0.1344,0.3336
6.3970,-0.9736,-0.0982,0.3541
6.3980,-0.9736,-0.0982,0.3541
6.3990,-0.9736,-0.0982,0.3541
6.4140,-0.9761,-0.1119,0.3971
6.4140,-0.9761,-0.1119,0.3971
6.4150,-0.9761,-0.1119,0.3971
6.4340,-0.9526,-0.1281,0.3705
6.4350,-0.9526,-0.1281,0.3705
6.4370,-0.9526,-0.1281,0.3705
6.4380,-0.9526,-0.1281,0.3705
6.4390,-0.9526,-0.1281,0.3705
6.4540,-0.9514,-0.1195,0.3238
6.4550,-0.9514,-0.1195,0.3238
6.4550,-0.9514,-0.1195,0.3238
6.4720,-0.9561,-0.1105,0.3255
6.4730,-0.9561,-0.1105,0.3255
6.4740,-0.9561,-0.1105,0.3255
6.4940,-0.9597,-0.1176,0.3346
6.4940,-0.9597,-0.1176,0.3346
6.4950,-0.9597,-0.1176,0.3346
6.5140,-0.9976,-0.1237,0.3030
6.5150,-0.9976,-0.1237,0.3030
6.5150,-0.9976,-0.1237,0.3030
6.6150,-0.9976,-0.1237,0.3030
6.6150,-0.9976,-0.1237,0.3030
6.6160,-0.9976,-0.1237,0.3030
6.6160,-0.9773,-0.1259,0.2864
6.6160,-0.9773,-0.1259,0.2864
6.6160,-0.9773,-0.1259,0.2864
6.6170,-0.9429,-0.1210,0.2845
6.6170,-0.9429,-0.1210,0.2845
6.6170,-0.9429,-0.1210,0.2845
6.6170,-0.9275,-0.1246,0.3094
6.6170,-0.9275,-0.1246,0.3094
6.6180,-0.9275,-0.1246,0.3094
6.6180,-0.9245,-0.1332,0.2957
6.6180,-0.9245,-0.1332,0.2957
6.6180,-0.9245,-0.1332,0.2957
6.6190,-0.9245,-0.1332,0.2957
6.6190,-0.9245,-0.1332,0.2957
6.6190,-0.9348,-0.1464,0.2830
6.6190,-0.9348,-0.1464,0.2830
6.6190,-0.9348,-0.1464,0.2830
6.6340,-0.9284,-0.1530,0.3062
6.6340,-0.9284,-0.1530,0.3062
6.6350,-0.9284,-0.1530,0.3062
6.6510,-0.9174,-0.1376,0.3338
6.6510,-0.9174,-0.1376,0.3338
6.6520,-0.9174,-0.1376,0.3338
6.6700,-0.9585,-0.1051,0.3368
6.6710,-0.9585,-0.1051,0.3368
6.6720,-0.9585,-0.1051,0.3368
6.6720,-0.9585,-0.1051,0.3368
6.6740,-0.9585,-0.1051,0.3368
6.6910,-0.9675,-0.0921,0.3341
6.6920,-0.9675,-0.0921,0.3341
6.6920,-0.9675,-0.0921,0.3341
6.7140,-0.9695,-0.1332,0.3602
6.7140,-0.9695,-0.1332,0.3602
6.7150,-0.9695,-0.1332,0.3602
6.7150,-0.9695,-0.1332,0.3602
6.7320,-0.9487,-0.1694,0.3492
6.7330,-0.9487,-0.1694,0.3492
6.7340,-0.9487,-0.1694,0.3492
6.7510,-0.9370,-0.1461,0.3187
6.7530,-0.9370,-0.1461,0.3187
6.7540,-0.9370,-0.1461,0.3187
6.7540,-0.9370,-0.1461,0.3187
6.7550,-0.9370,-0.1461,0.3187
6.7700,-0.9499,-0.1176,0.3267
6.7710,-0.9499,-0.1176,0.3267
6.7710,-0.9499,-0.1176,0.3267
6.7900,-0.9473,-0.1281,0.3170
6.7910,-0.9473,-0.1281,0.3170
6.7910,-0.9473,-0.1281,0.3170
6.8100,-0.9485,-0.1701,0.3140
6.8100,-0.9485,-0.1701,0.3140
6.8110,-0.9485,-0.1701,0.3140
6.8300,-0.9270,-0.1694,0.3270
6.8300,-0.9270,-0.1694,0.3270
6.8310,-0.9270,-0.1694,0.3270
6.8320,-0.9270,-0.1694,0.3270
6.8320,-0.9270,-0.1694,0.3270
6.8510,-0.9453,-0.1026,0.3404
6.8510,-0.9453,-0.1026,0.3404
6.8520,-0.9453,-0.1026,0.3404
6.8710,-0.9793,-0.0604,0.3338
6.8710,-0.9793,-0.0604,0.3338
6.8710,-0.9793,-0.0604,0.3338
6.8900,-0.9673,-0.1051,0.3282
6.8910,-0.9673,-0.1051,0.3282
6.8910,-0.9673,-0.1051,0.3282
6.9090,-0.9020,-0.1669,0.3314
6.9100,-0.9020,-0.1669,0.3314
6.9110,-0.9020,-0.1669,0.3314
6.9120,-0.9020,-0.1669,0.3314
6.9130,-0.9020,-0.1669,0.3314
6.9130,-0.9020,-0.1669,0.3314
6.9290,-0.8581,-0.1747,0.3241
6.9290,-0.8581,-0.1747,0.3241
6.9300,-0.8581,-0.1747,0.3241
6.9490,-0.8815,-0.1376,0.3368
6.9490,-0.8815,-0.1376,0.3368
6.9500,-0.8815,-0.1376,0.3368
6.9550,-0.8815,-0.1376,0.3368
6.9680,-0.9495,-0.1034,0.3678
6.9690,-0.9495,-0.1034,0.3678
6.9690,-0.9495,-0.1034,0.3678
6.9890,-0.9651,-0.1063,0.3737
6.9900,-0.9651,-0.1063,0.3737
6.9910,-0.9651,-0.1063,0.3737
6.9920,-0.9651,-0.1063,0.3737
6.9920,-0.9651,-0.1063,0.3737
7.0110,-0.9529,-0.1307,0.3529
7.0110,-0.9529,-0.1307,0.3529
7.0120,-0.9529,-0.1307,0.3529
7.0300,-0.9402,-0.1344,0.3668
7.0310,-0.9402,-0.1344,0.3668
7.0310,-0.9402,-0.1344,0.3668
7.0490,-0.9270,-0.0926,0.3453
7.0490,-0.9270,-0.0926,0.3453
7.0500,-0.9270,-0.0926,0.3453
7.0700,-0.9143,-0.0919,0.3106
7.1660,-0.9143,-0.0919,0.3106
7.1660,-0.9143,-0.0919,0.3106
7.1660,-0.9143,-0.0919,0.3106
7.1660,-0.9143,-0.0919,0.3106
7.1670,-0.8847,-0.1366,0.3106
7.1670,-0.8847,-0.1366,0.3106
7.1670,-0.8847,-0.1366,0.3106
7.1670,-0.8844,-0.1439,0.3128
7.1670,-0.8844,-0.1439,0.3128
7.1670,-0.8844,-0.1439,0.3128
7.1680,-0.8844,-0.1439,0.3128
7.1680,-0.9331,-0.1031,0.3245
7.1680,-0.9331,-0.1031,0.3245
7.1680,-0.9331,-0.1031,0.3245
7.1680,-0.9651,-0.0924,0.3546
7.1680,-0.9651,-0.0924,0.3546
7.1690,-0.9651,-0.0924,0.3546
7.1690,-0.9651,-0.0924,0.3546
7.1690,-0.9651,-0.0924,0.3546
7.1690,-0.9380,-0.1241,0.3681
7.1690,-0.9380,-0.1241,0.3681
7.1690,-0.9380,-0.1241,0.3681
7.1860,-0.8989,-0.1386,0.3468
7.1860,-0.8989,-0.1386,0.3468
7.1860,-0.8989,-0.1386,0.3468
7.2070,-0.9028,-0.1263,0.3380
7.2070,-0.9028,-0.1263,0.3380
7.2070,-0.9028,-0.1263,0.3380
7.2270,-0.9600,-0.1117,0.3898
7.2280,-0.9600,-0.1117,0.3898
7.2280,-0.9600,-0.1117,0.3898
7.2300,-0.9600,-0.1117,0.3898
7.2310,-0.9600,-0.1117,0.3898
7.2460,-0.9602,-0.1090,0.4037
7.2470,-0.9602,-0.1090,0.4037
7.2470,-0.9602,-0.1090,0.4037
7.2670,-0.9255,-0.0926,0.3539
7.2670,-0.9255,-0.0926,0.3539
7.2680,-0.9255,-0.0926,0.3539
7.2880,-0.9409,-0.0826,0.3236
7.2890,-0.9409,-0.0826,0.3236
7.2890,-0.9409,-0.0826,0.3236
7.3080,-0.9631,-0.1180,0.3243
7.3080,-0.9631,-0.1180,0.3243
7.3090,-0.9631,-0.1180,0.3243
7.3140,-0.9631,-0.1180,0.3243
7.3140,-0.9631,-0.1180,0.3243
7.3150,-0.9631,-0.1180,0.3243
7.3270,-0.9223,-0.1447,0.3253
7.3290,-0.9223,-0.1447,0.3253
7.3290,-0.9223,-0.1447,0.3253
7.3480,-0.9060,-0.1237,0.3126
7.3480,-0.9060,-0.1237,0.3126
7.3490,-0.9060,-0.1237,0.3126
7.3500,-0.9060,-0.1237,0.3126
7.3670,-0.9348,-0.1185,0.3441
7.3680,-0.9348,-0.1185,0.3441
7.3680,-0.9348,-0.1185,0.3441
7.3880,-0.9411,-0.1293,0.3571
7.3890,-0.9411,-0.1293,0.3571
7.3900,-0.9411,-0.1293,0.3571
7.3900,-0.9411,-0.1293,0.3571
7.3910,-0.9411,-0.1293,0.3571
7.4060,-0.9231,-0.1183,0.3463
7.4070,-0.9231,-0.1183,0.3463
7.4070,-0.9231,-0.1183,0.3463
7.4260,-0.9336,-0.0943,0.3505
7.4270,-0.9336,-0.0943,0.3505
7.4280,-0.9336,-0.0943,0.3505
7.4470,-0.9561,-0.0865,0.3678
7.4470,-0.9561,-0.0865,0.3678
7.4490,-0.9561,-0.0865,0.3678
7.4670,-0.9409,-0.1144,0.3629
7.4670,-0.9409,-0.1144,0.3629
7.4680,-0.9409,-0.1144,0.3629
7.4680,-0.9409,-0.1144,0.3629
7.4690,-0.9409,-0.1144,0.3629
7.4870,-0.9446,-0.1205,0.3255
7.4870,-0.9446,-0.1205,0.3255
7.4880,-0.9446,-0.1205,0.3255
7.5070,-0.9663,-0.1066,0.3304
7.5070,-0.9663,-0.1066,0.3304
7.5080,-0.9663,-0.1066,0.3304
7.5080,-0.9663,-0.1066,0.3304
7.5260,-0.9341,-0.1261,0.3448
7.5280,-0.9341,-0.1261,0.3448
7.5290,-0.9341,-0.1261,0.3448
7.5480,-0.8998,-0.1391,0.3253
7.5480,-0.8998,-0.1391,0.3253
7.5490,-0.8998,-0.1391,0.3253
7.5500,-0.8998,-0.1391,0.3253
7.5510,-0.8998,-0.1391,0.3253
7.5680,-0.8725,-0.1532,0.3336
7.5690,-0.8725,-0.1532,0.3336
7.5700,-0.8725,-0.1532,0.3336
7.5850,-0.9050,-0.1515,0.3497
7.5880,-0.9050,-0.1515,0.3497
7.5880,-0.9050,-0.1515,0.3497
7.6050,-0.9206,-0.1156,0.3595
7.6060,-0.9206,-0.1156,0.3595
7.7050,-0.9206,-0.1156,0.3595
7.7060,-0.9287,-0.0784,0.3280
7.7060,-0.9287,-0.0784,0.3280
7.7060,-0.9287,-0.0784,0.3280
7.7060,-0.9287,-0.0784,0.3280
7.7070,-0.9287,-0.0784,0.3280
7.7070,-0.9272,-0.0838,0.3206
7.7070,-0.9272,-0.0838,0.3206
7.7070,-0.9272,-0.0838,0.3206
7.7080,-0.9243,-0.1029,0.3355
7.7080,-0.9243,-0.1029,0.3355
7.7080,-0.9243,-0.1029,0.3355
7.7080,-0.9431,-0.1190,0.3580
7.7080,-0.9431,-0.1190,0.3580
7.7090,-0.9431,-0.1190,0.3580
7.7090,-0.9793,-0.1366,0.3720
7.7090,-0.9793,-0.1366,0.3720
7.7090,-0.9793,-0.1366,0.3720
7.7100,-0.9793,-0.1366,0.3720
7.7100,-0.9793,-0.1366,0.3720
7.7100,-0.9793,-0.1366,0.3720
7.7220,-0.9543,-0.1542,0.3871
7.7230,-0.9543,-0.1542,0.3871
7.7230,-0.9543,-0.1542,0.3871
7.7430,-0.9323,-0.1393,0.3864
7.7430,-0.9323,-0.1393,0.3864
7.7430,-0.9323,-0.1393,0.3864
7.7470,-0.9323,-0.1393,0.3864
7.7640,-0.9517,-0.1222,0.3571
7.7650,-0.9517,-0.1222,0.3571
7.7650,-0.9517,-0.1222,0.3571
7.7830,-0.9497,-0.1542,0.3739
7.7840,-0.9497,-0.1542,0.3739
7.7840,-0.9497,-0.1542,0.3739
7.7870,-0.9497,-0.1542,0.3739
7.7870,-0.9497,-0.1542,0.3739
7.8050,-0.9328,-0.1933,0.3852
7.8050,-0.9328,-0.1933,0.3852
7.8080,-0.9328,-0.1933,0.3852
7.8240,-0.9380,-0.1980,0.3681
7.8250,-0.9380,-0.1980,0.3681
7.8250,-0.9380,-0.1980,0.3681
7.8460,-0.9495,-0.1601,0.3094
7.8470,-0.9495,-0.1601,0.3094
7.8480,-0.9495,-0.1601,0.3094
7.8650,-0.9526,-0.1293,0.3519
7.8650,-0.9526,-0.1293,0.3519
7.8660,-0.9526,-0.1293,0.3519
7.8670,-0.9526,-0.1293,0.3519
7.8670,-0.9526,-0.1293,0.3519
7.8840,-0.9460,-0.1217,0.3803
7.8850,-0.9460,-0.1217,0.3803
7.8850,-0.9460,-0.1217,0.3803
7.9040,-0.9367,-0.1122,0.3551
7.9050,-0.9367,-0.1122,0.3551
7.9050,-0.9367,-0.1122,0.3551
7.9070,-0.9367,-0.1122,0.3551
7.9240,-0.9170,-0.0816,0.3258
7.9240,-0.9170,-0.0816,0.3258
7.9250,-0.9170,-0.0816,0.3258
7.9450,-0.9301,-0.0604,0.3426
7.9470,-0.9301,-0.0604,0.3426
7.9480,-0.9301,-0.0604,0.3426
7.9480,-0.9301,-0.0604,0.3426
7.9490,-0.9301,-0.0604,0.3426
7.9640,-0.9485,-0.0968,0.3663
7.9650,-0.9485,-0.0968,0.3663
7.9650,-0.9485,-0.0968,0.3663
7.9850,-0.9380,-0.1244,0.3661
7.9860,-0.9380,-0.1244,0.3661
7.9860,-0.9380,-0.1244,0.3661
8.0030,-0.9475,-0.1092,0.3470
8.0040,-0.9475,-0.1092,0.3470
8.0040,-0.9475,-0.1092,0.3470
8.0230,-0.9517,-0.1200,0.3615
8.0240,-0.9517,-0.1200,0.3615
8.0250,-0.9517,-0.1200,0.3615
8.0270,-0.9517,-0.1200,0.3615
8.0290,-0.9517,-0.1200,0.3615
8.0440,-0.9394,-0.1471,0.3524
8.0440,-0.9394,-0.1471,0.3524
8.0450,-0.9394,-0.1471,0.3524
8.0640,-0.9062,-0.1373,0.3461
8.0640,-0.9062,-0.1373,0.3461
8.0650,-0.9062,-0.1373,0.3461
8.0830,-0.9035,-0.1261,0.3693
8.0840,-0.9035,-0.1261,0.3693
8.0840,-0.9035,-0.1261,0.3693
8.1040,-0.9003,-0.1320,0.3837
8.1050,-0.9003,-0.1320,0.3837
8.1050,-0.9003,-0.1320,0.3837
8.1060,-0.9003,-0.1320,0.3837
8.1070,-0.9003,-0.1320,0.3837
8.1070,-0.9003,-0.1320,0.3837
8.1240,-0.9189,-0.1220,0.3478
8.1240,-0.9189,-0.1220,0.3478
8.1250,-0.9189,-0.1220,0.3478
8.1430,-0.9455,-0.1080,0.3761
8.1440,-0.9455,-0.1080,0.3761
8.1440,-0.9455,-0.1080,0.3761
8.2070,-0.9514,-0.0916,0.3996
8.2070,-0.9514,-0.0916,0.3996
8.2070,-0.9514,-0.0916,0.3996
8.2070,-0.9341,-0.0956,0.3659
8.2070,-0.9341,-0.0956,0.3659
8.2070,-0.9341,-0.0956,0.3659
8.2080,-0.9341,-0.0956,0.3659
8.2080,-0.9341,-0.0956,0.3659
8.2080,-0.9392,-0.1200,0.3165
8.2080,-0.9392,-0.1200,0.3165
8.2080,-0.9392,-0.1200,0.3165
8.2190,-0.9402,-0.1471,0.3387
8.2190,-0.9402,-0.1471,0.3387
8.2200,-0.9402,-0.1471,0.3387
8.2420,-0.9343,-0.1403,0.3392
8.2420,-0.9343,-0.1403,0.3392
8.2420,-0.9343,-0.1403,0.3392
8.2620,-0.9421,-0.1241,0.3343
8.2620,-0.9421,-0.1241,0.3343
8.2620,-0.9421,-0.1241,0.3343
8.2620,-0.9421,-0.1241,0.3343
8.2620,-0.9421,-0.1241,0.3343
8.2810,-0.9319,-0.1342,0.3519
8.2820,-0.9319,-0.1342,0.3519
8.2820,-0.9319,-0.1342,0.3519
8.3020,-0.9231,-0.1327,0.3930
8.3020,-0.9231,-0.1327,0.3930
8.3030,-0.9231,-0.1327,0.3930
8.3050,-0.9231,-0.1327,0.3930
8.3220,-0.9223,-0.1127,0.3766
8.3220,-0.9223,-0.1127,0.3766
8.3230,-0.9223,-0.1127,0.3766
8.3420,-1.0220,-0.1266,0.3681
8.3430,-1.0220,-0.1266,0.3681
8.3440,-1.0220,-0.1266,0.3681
8.3440,-1.0220,-0.1266,0.3681
8.3450,-1.0220,-0.1266,0.3681
8.3610,-1.0719,-0.1862,0.4086
8.3620,-1.0719,-0.1862,0.4086
8.3620,-1.0719,-0.1862,0.4086
8.3830,-0.9311,-0.1975,0.3959
8.3830,-0.9311,-0.1975,0.3959
8.3840,-0.9311,-0.1975,0.3959
8.4020,-0.8664,-0.1361,0.3556
8.4050,-0.8664,-0.1361,0.3556
8.4060,-0.8664,-0.1361,0.3556
8.4210,-0.9355,-0.0760,0.3509
8.4220,-0.9355,-0.0760,0.3509
8.4220,-0.9355,-0.0760,0.3509
8.4230,-0.9355,-0.0760,0.3509
8.4230,-0.9355,-0.0760,0.3509
8.4430,-0.9622,-0.0848,0.3605
8.4440,-0.9622,-0.0848,0.3605
8.4440,-0.9622,-0.0848,0.3605
8.4620,-0.9248,-0.1410,0.3896
8.4630,-0.9248,-0.1410,0.3896
8.4630,-0.9248,-0.1410,0.3896
8.4810,-0.9113,-0.1202,0.3690
8.4820,-0.9113,-0.1202,0.3690
8.4820,-0.9113,-0.1202,0.3690
8.5020,-0.9152,-0.0491,0.3170
8.5030,-0.9152,-0.0491,0.3170
8.5040,-0.9152,-0.0491,0.3170
8.5050,-0.9152,-0.0491,0.3170
8.5050,-0.9152,-0.0491,0.3170
8.5070,-0.9152,-0.0491,0.3170
8.5240,-0.9394,-0.0501,0.3292
8.5250,-0.9394,-0.0501,0.3292
8.5250,-0.9394,-0.0501,0.3292
8.5420,-0.9287,-0.1256,0.3700
8.5450,-0.9287,-0.1256,0.3700
8.5460,-0.9287,-0.1256,0.3700
8.5640,-0.8788,-0.1527,0.3321
8.5640,-0.8788,-0.1527,0.3321
8.5650,-0.8788,-0.1527,0.3321
8.5820,-0.8800,-0.1124,0.3114
8.5820,-0.8800,-0.1124,0.3114
8.5830,-0.8800,-0.1124,0.3114
8.5830,-0.8800,-0.1124,0.3114
8.5840,-0.8800,-0.1124,0.3114
8.6040,-0.9201,-0.0689,0.3585
8.6050,-0.9201,-0.0689,0.3585
8.6070,-0.9201,-0.0689,0.3585
8.6220,-0.9580,-0.0765,0.3805
8.6230,-0.9580,-0.0765,0.3805
8.6240,-0.9580,-0.0765,0.3805
8.6410,-0.9165,-0.1307,0.3847
8.6420,-0.9165,-0.1307,0.3847
8.6420,-0.9165,-0.1307,0.3847
8.6610,-0.8920,-0.1180,0.3683
8.6640,-0.8920,-0.1180,0.3683
8.6670,-0.8920,-0.1180,0.3683
8.6670,-0.8920,-0.1180,0.3683
8.6680,-0.8920,-0.1180,0.3683
8.6800,-0.9590,-0.0780,0.3759
8.6810,-0.9590,-0.0780,0.3759
8.6810,-0.9590,-0.0780,0.3759
8.7010,-0.9925,-0.0789,0.3905
8.7020,-0.9925,-0.0789,0.3905
8.7030,-0.9925,-0.0789,0.3905
8.7630,-0.9925,-0.0789,0.3905
8.7640,-0.9370,-0.0887,0.3585
8.7640,-0.9370,-0.0887,0.3585
8.7640,-0.9370,-0.0887,0.3585
8.7640,-0.9218,-0.1041,0.3287
8.7640,-0.9218,-0.1041,0.3287
8.7640,-0.9218,-0.1041,0.3287
8.7650,-0.9218,-0.1041,0.3287
8.7650,-0.9218,-0.1041,0.3287
8.7650,-0.9025,-0.1154,0.3390
8.7650,-0.9025,-0.1154,0.3390
8.7650,-0.9025,-0.1154,0.3390
8.7790,-0.9135,-0.0833,0.3602
8.7790,-0.9135,-0.0833,0.3602
8.7790,-0.9135,-0.0833,0.3602
8.8000,-0.9624,-0.0579,0.3617
8.8000,-0.9624,-0.0579,0.3617
8.8000,-0.9624,-0.0579,0.3617
8.8200,-0.9333,-0.0894,0.3656
8.8200,-0.9333,-0.0894,0.3656
8.8200,-0.9333,-0.0894,0.3656
8.8200,-0.9333,-0.0894,0.3656
8.8210,-0.9333,-0.0894,0.3656
8.8430,-0.8903,-0.1132,0.3842
8.8440,-0.8903,-0.1132,0.3842
8.8460,-0.8903,-0.1132,0.3842
8.8620,-0.9216,-0.1092,0.3776
8.8630,-0.9216,-0.1092,0.3776
8.8640,-0.9216,-0.1092,0.3776
8.8810,-0.8859,-0.1119,0.3705
8.8810,-0.8859,-0.1119,0.3705
8.8820,-0.8859,-0.1119,0.3705
8.9020,-0.9118,-0.1200,0.3744
8.9040,-0.9118,-0.1200,0.3744
8.9050,-0.9118,-0.1200,0.3744
8.9080,-0.9118,-0.1200,0.3744
8.9080,-0.9118,-0.1200,0.3744
8.9090,-0.9118,-0.1200,0.3744
8.9210,-0.9240,-0.1391,0.3935
8.9210,-0.9240,-0.1391,0.3935
8.9220,-0.9240,-0.1391,0.3935
8.9440,-0.8989,-0.1542,0.4089
8.9460,-0.8989,-0.1542,0.4089
8.9470,-0.8989,-0.1542,0.4089
8.9480,-0.8989,-0.1542,0.4089
8.9610,-0.9382,-0.1283,0.4094
8.9620,-0.9382,-0.1283,0.4094
8.9640,-0.9382,-0.1283,0.4094
8.9800,-0.9788,-0.0946,0.4140
8.9810,-0.9788,-0.0946,0.4140
8.9810,-0.9788,-0.0946,0.4140
8.9820,-0.9788,-0.0946,0.4140
8.9830,-0.9788,-0.0946,0.4140
9.0010,-0.9433,-0.1136,0.4191
9.0020,-0.9433,-0.1136,0.4191
9.0020,-0.9433,-0.1136,0.4191
9.0180,-0.9062,-0.1075,0.4152
9.0180,-0.9062,-0.1075,0.4152
9.0210,-0.9062,-0.1075,0.4152
9.0420,-0.9326,-0.0799,0.3930
9.0440,-0.9326,-0.0799,0.3930
9.0450,-0.9326,-0.0799,0.3930
9.0610,-0.9438,-0.0850,0.3754
9.0620,-0.9438,-0.0850,0.3754
9.0620,-0.9438,-0.0850,0.3754
9.0630,-0.9438,-0.0850,0.3754
9.0640,-0.9438,-0.0850,0.3754
9.0800,-0.9387,-0.1134,0.3859
9.0810,-0.9387,-0.1134,0.3859
9.0810,-0.9387,-0.1134,0.3859
9.1030,-0.9331,-0.1212,0.3883
9.1040,-0.9331,-0.1212,0.3883
9.1050,-0.9331,-0.1212,0.3883
9.1050,-0.9331,-0.1212,0.3883
9.1210,-0.9245,-0.1105,0.3685
9.1210,-0.9245,-0.1105,0.3685
9.1220,-0.9245,-0.1105,0.3685
9.1410,-0.8803,-0.1075,0.3512
9.1410,-0.8803,-0.1075,0.3512
9.1420,-0.8803,-0.1075,0.3512
9.1420,-0.8803,-0.1075,0.3512
9.1430,-0.8803,-0.1075,0.3512
9.1610,-0.9013,-0.1132,0.3937
9.1620,-0.9013,-0.1132,0.3937
9.1630,-0.9013,-0.1132,0.3937
9.1770,-0.9387,-0.1163,0.4355
9.1770,-0.9387,-0.1163,0.4355
9.1780,-0.9387,-0.1163,0.4355
9.1980,-0.9262,-0.0985,0.3996
9.1980,-0.9262,-0.0985,0.3996
9.1990,-0.9262,-0.0985,0.3996
9.2210,-0.9152,-0.0904,0.3854
9.2230,-0.9152,-0.0904,0.3854
9.2240,-0.9152,-0.0904,0.3854
9.2250,-0.9152,-0.0904,0.3854
9.2250,-0.9152,-0.0904,0.3854
9.2380,-0.9167,-0.1193,0.3993
9.2400,-0.9167,-0.1193,0.3993
9.2400,-0.9167,-0.1193,0.3993
9.2560,-0.8818,-0.1332,0.4069
9.3260,-0.8818,-0.1332,0.4069
9.3260,-0.8818,-0.1332,0.4069
9.3270,-0.8277,-0.1056,0.3996
9.3270,-0.8277,-0.1056,0.3996
9.3270,-0.8277,-0.1056,0.3996
9.3270,-0.8849,-0.0437,0.3519
9.3270,-0.8849,-0.0437,0.3519
9.3280,-0.8849,-0.0437,0.3519
9.3280,-0.8849,-0.0437,0.3519
9.3280,-0.8849,-0.0437,0.3519
9.3280,-0.8849,-0.0437,0.3519
9.3280,-1.0245,-0.0445,0.4142
9.3280,-1.0245,-0.0445,0.4142
9.3290,-1.0245,-0.0445,0.4142
9.3330,-1.0311,-0.0731,0.4235
9.3330,-1.0311,-0.0731,0.4235
9.3340,-1.0311,-0.0731,0.4235
9.3370,-1.0311,-0.0731,0.4235
9.3550,-0.9309,-0.0894,0.3541
9.3560,-0.9309,-0.0894,0.3541
9.3560,-0.9309,-0.0894,0.3541
9.3770,-0.8673,-0.1058,0.3365
9.3770,-0.8673,-0.1058,0.3365
9.3770,-0.8673,-0.1058,0.3365
9.3780,-0.8673,-0.1058,0.3365
9.3780,-0.8673,-0.1058,0.3365
9.4000,-0.8595,-0.1122,0.3749
9.4010,-0.8595,-0.1122,0.3749
9.4010,-0.8595,-0.1122,0.3749
9.4160,-0.8796,-0.0990,0.3952
9.4170,-0.8796,-0.0990,0.3952
9.4180,-0.8796,-0.0990,0.3952
9.4350,-0.8705,-0.0843,0.4018
9.4370,-0.8705,-0.0843,0.4018
9.4380,-0.8705,-0.0843,0.4018
9.4560,-0.9113,-0.1044,0.4445
9.4590,-0.9113,-0.1044,0.4445
9.4590,-0.9113,-0.1044,0.4445
9.4600,-0.9113,-0.1044,0.4445
9.4600,-0.9113,-0.1044,0.4445
9.4770,-0.9499,-0.1305,0.4441
9.4780,-0.9499,-0.1305,0.4441
9.4790,-0.9499,-0.1305,0.4441
9.4950,-0.9311,-0.1420,0.4287
9.4960,-0.9311,-0.1420,0.4287
9.4970,-0.9311,-0.1420,0.4287
9.4980,-0.9311,-0.1420,0.4287
9.5170,-0.9453,-0.1391,0.4279
9.5180,-0.9453,-0.1391,0.4279
9.5180,-0.9453,-0.1391,0.4279
9.5340,-0.9253,-0.1100,0.4291
9.5360,-0.9253,-0.1100,0.4291
9.5380,-0.9253,-0.1100,0.4291
9.5380,-0.9253,-0.1100,0.4291
9.5390,-0.9253,-0.1100,0.4291
9.5400,-0.9253,-0.1100,0.4291
9.5550,-0.9194,-0.0525,0.4108
9.5560,-0.9194,-0.0525,0.4108
9.5580,-0.9194,-0.0525,0.4108
9.5730,-0.9419,-0.0450,0.3932
9.5740,-0.9419,-0.0450,0.3932
9.5740,-0.9419,-0.0450,0.3932
9.5950,-0.9123,-0.0887,0.3937
9.5950,-0.9123,-0.0887,0.3937
9.5990,-0.9123,-0.0887,0.3937
9.6170,-0.8884,-0.1024,0.3842
9.6180,-0.8884,-0.1024,0.3842
9.6190,-0.8884,-0.1024,0.3842
9.6200,-0.8884,-0.1024,0.3842
9.6210,-0.8884,-0.1024,0.3842
9.6340,-0.9133,-0.0850,0.3717
9.6350,-0.9133,-0.0850,0.3717
9.6350,-0.9133,-0.0850,0.3717
9.6540,-0.9184,-0.0794,0.3812
9.6540,-0.9184,-0.0794,0.3812
9.6550,-0.9184,-0.0794,0.3812
9.6750,-0.8906,-0.0919,0.4355
9.6760,-0.8906,-0.0919,0.4355
9.6770,-0.8906,-0.0919,0.4355
9.6930,-0.8747,-0.1036,0.4182
9.6940,-0.8747,-0.1036,0.4182
9.6950,-0.8747,-0.1036,0.4182
9.6950,-0.8747,-0.1036,0.4182
9.6970,-0.8747,-0.1036,0.4182
9.6980,-0.8747,-0.1036,0.4182
9.7140,-0.9045,-0.1107,0.3842
9.7140,-0.9045,-0.1107,0.3842
9.7140,-0.9045,-0.1107,0.3842
9.7370,-0.9517,-0.1224,0.4357
9.7380,-0.9517,-0.1224,0.4357
9.7410,-0.9517,-0.1224,0.4357
9.7410,-0.9517,-0.1224,0.4357
9.7550,-0.9221,-0.1146,0.4353
9.7550,-0.9221,-0.1146,0.4353
9.7570,-0.9221,-0.1146,0.4353
9.7770,-0.9016,-0.0799,0.3856
9.7780,-0.9016,-0.0799,0.3856
9.7780,-0.9016,-0.0799,0.3856
9.7810,-0.9016,-0.0799,0.3856
9.7830,-0.9016,-0.0799,0.3856
9.8600,-0.9204,-0.0616,0.3646
9.8610,-0.9204,-0.0616,0.3646
9.8610,-0.9204,-0.0616,0.3646
9.8610,-0.9499,-0.0802,0.4086
9.8620,-0.9499,-0.0802,0.4086
9.8620,-0.9499,-0.0802,0.4086
9.8620,-0.9267,-0.0897,0.4169
9.8620,-0.9267,-0.0897,0.4169
9.8630,-0.9267,-0.0897,0.4169
9.8650,-0.8832,-0.0677,0.3536
9.8650,-0.8832,-0.0677,0.3536
9.8650,-0.8832,-0.0677,0.3536
9.8660,-0.8832,-0.0677,0.3536
9.8660,-0.8832,-0.0677,0.3536
9.8710,-0.8932,-0.0445,0.3507
9.8710,-0.8932,-0.0445,0.3507
9.8710,-0.8932,-0.0445,0.3507
9.8920,-0.9409,-0.0653,0.3900
9.8920,-0.9409,-0.0653,0.3900
9.8920,-0.9409,-0.0653,0.3900
9.8930,-0.9409,-0.0653,0.3900
9.9140,-0.9055,-0.1398,0.4257
9.9150,-0.9055,-0.1398,0.4257
9.9150,-0.9055,-0.1398,0.4257
9.9330,-0.8387,-0.1752,0.4343
9.9340,-0.8387,-0.1752,0.4343
9.9340,-0.8387,-0.1752,0.4343
9.9350,-0.8387,-0.1752,0.4343
9.9350,-0.8387,-0.1752,0.4343
9.9540,-0.8798,-0.1256,0.4240
9.9540,-0.8798,-0.1256,0.4240
9.9550,-0.8798,-0.1256,0.4240
9.9730,-0.9661,-0.0804,0.4577
9.9740,-0.9661,-0.0804,0.4577
9.9740,-0.9661,-0.0804,0.4577
9.9900,-1.0106,-0.0978,0.4695
9.9910,-1.0106,-0.0978,0.4695
9.9910,-1.0106,-0.0978,0.4695
10.0110,-0.9565,-0.1413,0.4150
10.0120,-0.9565,-0.1413,0.4150
10.0120,-0.9565,-0.1413,0.4150
10.0130,-0.9565,-0.1413,0.4150
10.0140,-0.9565,-0.1413,0.4150
10.0320,-0.9138,-0.1640,0.3878
10.0330,-0.9138,-0.1640,0.3878
10.0390,-0.9138,-0.1640,0.3878
10.0490,-0.9568,-0.1383,0.4265
10.0490,-0.9568,-0.1383,0.4265
10.0500,-0.9568,-0.1383,0.4265
10.0710,-0.9297,-0.0904,0.4108
10.0710,-0.9297,-0.0904,0.4108
10.0720,-0.9297,-0.0904,0.4108
10.0900,-0.9277,-0.0609,0.4032
10.0910,-0.9277,-0.0609,0.4032
10.0910,-0.9277,-0.0609,0.4032
10.0920,-0.9277,-0.0609,0.4032
10.0920,-0.9277,-0.0609,0.4032
10.0930,-0.9277,-0.0609,0.4032
10.1120,-0.9495,-0.0601,0.4294
10.1120,-0.9495,-0.0601,0.4294
10.1130,-0.9495,-0.0601,0.4294
10.1290,-0.9517,-0.0653,0.4289
10.1300,-0.9517,-0.0653,0.4289
10.1300,-0.9517,-0.0653,0.4289
10.1500,-0.9074,-0.0877,0.3918
10.1500,-0.9074,-0.0877,0.3918
10.1510,-0.9074,-0.0877,0.3918
10.1700,-0.8835,-0.1031,0.3949
10.1710,-0.8835,-0.1031,0.3949
10.1710,-0.8835,-0.1031,0.3949
10.1720,-0.8835,-0.1031,0.3949
10.1720,-0.8835,-0.1031,0.3949
10.1900,-0.9057,-0.1048,0.4135
10.1910,-0.9057,-0.1048,0.4135
10.1920,-0.9057,-0.1048,0.4135
10.2090,-0.8864,-0.1046,0.3817
10.2100,-0.8864,-0.1046,0.3817
10.2110,-0.8864,-0.1046,0.3817
10.2300,-0.8397,-0.1058,0.4023
10.2300,-0.8397,-0.1058,0.4023
10.2310,-0.8397,-0.1058,0.4023
10.2520,-0.8546,-0.1002,0.4399
10.2530,-0.8546,-0.1002,0.4399
10.2540,-0.8546,-0.1002,0.4399
10.2540,-0.8546,-0.1002,0.4399
10.2550,-0.8546,-0.1002,0.4399
10.2700,-0.9187,-0.0784,0.4260
10.2710,-0.9187,-0.0784,0.4260
10.2710,-0.9187,-0.0784,0.4260
10.2910,-0.9121,-0.0877,0.4309
10.2920,-0.9121,-0.0877,0.4309
10.2920,-0.9121,-0.0877,0.4309
10.2930,-0.9121,-0.0877,0.4309
10.3080,-0.8842,-0.1127,0.3952
10.3100,-0.8842,-0.1127,0.3952
10.3110,-0.8842,-0.1127,0.3952
10.3300,-0.8954,-0.1227,0.3891
10.3300,-0.8954,-0.1227,0.3891
10.3310,-0.8954,-0.1227,0.3891
10.3320,-0.8954,-0.1227,0.3891
10.4180,-0.8954,-0.1227,0.3891
10.4180,-0.9091,-0.1097,0.4069
10.4180,-0.9091,-0.1097,0.4069
10.4190,-0.9091,-0.1097,0.4069
10.4190,-0.8972,-0.1041,0.4235
10.4190,-0.8972,-0.1041,0.4235
10.4190,-0.8972,-0.1041,0.4235
10.4200,-0.8969,-0.0890,0.3998
10.4200,-0.8969,-0.0890,0.3998
10.4200,-0.8969,-0.0890,0.3998
10.4200,-0.9294,-0.0787,0.4106
10.4210,-0.9294,-0.0787,0.4106
10.4210,-0.9294,-0.0787,0.4106
10.4210,-0.9294,-0.0787,0.4106
10.4210,-0.9294,-0.0787,0.4106
10.4270,-0.9666,-0.0816,0.4560
10.4270,-0.9666,-0.0816,0.4560
10.4270,-0.9666,-0.0816,0.4560
10.4480,-0.9299,-0.0706,0.4387
10.4490,-0.9299,-0.0706,0.4387
10.4490,-0.9299,-0.0706,0.4387
10.4660,-0.9226,-0.0445,0.3595
10.4670,-0.9226,-0.0445,0.3595
10.4670,-0.9226,-0.0445,0.3595
10.4880,-0.9622,-0.0535,0.3817
10.4880,-0.9622,-0.0535,0.3817
10.4890,-0.9622,-0.0535,0.3817
10.4890,-0.9622,-0.0535,0.3817
10.4890,-0.9622,-0.0535,0.3817
10.4900,-0.9622,-0.0535,0.3817
10.5090,-0.9780,-0.0943,0.3908
10.5090,-0.9780,-0.0943,0.3908
10.5090,-0.9780,-0.0943,0.3908
10.5270,-0.9424,-0.1105,0.3399
10.5280,-0.9424,-0.1105,0.3399
10.5280,-0.9424,-0.1105,0.3399
10.5480,-0.9187,-0.1053,0.3619
10.5480,-0.9187,-0.1053,0.3619
10.5490,-0.9187,-0.1053,0.3619
10.5670,-0.9121,-0.0990,0.4072
10.5670,-0.9121,-0.0990,0.4072
10.5680,-0.9121,-0.0990,0.4072
10.5690,-0.9121,-0.0990,0.4072
10.5700,-0.9121,-0.0990,0.4072
10.5900,-0.9057,-0.0677,0.4521
10.5900,-0.9057,-0.0677,0.4521
10.5910,-0.9057,-0.0677,0.4521
10.6070,-0.9277,-0.0579,0.4577
10.6080,-0.9277,-0.0579,0.4577
10.6090,-0.9277,-0.0579,0.4577
10.6280,-0.9118,-0.0814,0.4235
10.6280,-0.9118,-0.0814,0.4235
10.6290,-0.9118,-0.0814,0.4235
10.6460,-0.9341,-0.0765,0.4441
10.6480,-0.9341,-0.0765,0.4441
10.6480,-0.9341,-0.0765,0.4441
10.6490,-0.9341,-0.0765,0.4441
10.6490,-0.9341,-0.0765,0.4441
10.6680,-0.9548,-0.0833,0.4389
10.6680,-0.9548,-0.0833,0.4389
10.6690,-0.9548,-0.0833,0.4389
10.6860,-0.9392,-0.1112,0.4064
10.6870,-0.9392,-0.1112,0.4064
10.6870,-0.9392,-0.1112,0.4064
10.6880,-0.9392,-0.1112,0.4064
10.7070,-0.9553,-0.0907,0.4059
10.7070,-0.9553,-0.0907,0.4059
10.7080,-0.9553,-0.0907,0.4059
10.7260,-0.9497,-0.0609,0.4101
10.7270,-0.9497,-0.0609,0.4101
10.7270,-0.9497,-0.0609,0.4101
10.7280,-0.9497,-0.0609,0.4101
10.7280,-0.9497,-0.0609,0.4101
10.7290,-0.9497,-0.0609,0.4101
10.7470,-0.8759,-0.0503,0.3820
10.7480,-0.8759,-0.0503,0.3820
10.7480,-0.8759,-0.0503,0.3820
10.7660,-0.8671,-0.0349,0.3402
10.7670,-0.8671,-0.0349,0.3402
10.7680,-0.8671,-0.0349,0.3402
10.7870,-0.9605,-0.0205,0.3947
10.7880,-0.9605,-0.0205,0.3947
10.7880,-0.9605,-0.0205,0.3947
10.8070,-0.9431,-0.0098,0.4150
10.8080,-0.9431,-0.0098,0.4150
10.8090,-0.9431,-0.0098,0.4150
10.8100,-0.9431,-0.0098,0.4150
10.8100,-0.9431,-0.0098,0.4150
10.8270,-0.8864,0.0002,0.3812
10.8280,-0.8864,0.0002,0.3812
10.8290,-0.8864,0.0002,0.3812
10.8450,-0.8744,-0.0073,0.3705
10.8460,-0.8744,-0.0073,0.3705
10.8470,-0.8744,-0.0073,0.3705
10.8660,-0.8478,-0.0042,0.3480
10.8660,-0.8478,-0.0042,0.3480
10.8670,-0.8478,-0.0042,0.3480
10.8890,-0.8175,-0.0320,0.3473
10.8890,-0.8175,-0.0320,0.3473
10.8900,-0.8175,-0.0320,0.3473
10.9730,-0.8175,-0.0320,0.3473
10.9730,-0.8175,-0.0320,0.3473
10.9730,-0.8175,-0.0320,0.3473
10.9730,-0.8348,-0.1110,0.3888
10.9740,-0.8348,-0.1110,0.3888
10.9740,-0.8348,-0.1110,0.3888
10.9740,-0.8708,-0.1237,0.3930
10.9740,-0.8708,-0.1237,0.3930
10.9740,-0.8708,-0.1237,0.3930
10.9740,-0.8708,-0.1237,0.3930
10.9750,-0.9091,-0.1097,0.3685
10.9750,-0.9091,-0.1097,0.3685
10.9750,-0.9091,-0.1097,0.3685
10.9750,-0.9487,-0.1928,0.4108
10.9750,-0.9487,-0.1928,0.4108
10.9750,-0.9487,-0.1928,0.4108
10.9760,-0.9487,-0.1928,0.4108
10.9760,-0.9487,-0.1928,0.4108
10.9850,-0.8928,-0.2107,0.4553
10.9850,-0.8928,-0.2107,0.4553
10.9850,-0.8928,-0.2107,0.4553
11.0030,-0.8998,-0.0814,0.4514
11.0040,-0.8998,-0.0814,0.4514
11.0040,-0.8998,-0.0814,0.4514
11.0240,-1.0775,-0.0071,0.4436
11.0240,-1.0775,-0.0071,0.4436
11.0240,-1.0775,-0.0071,0.4436
11.0450,-1.1027,-0.0697,0.4770
11.0460,-1.1027,-0.0697,0.4770
11.0460,-1.1027,-0.0697,0.4770
11.0470,-1.1027,-0.0697,0.4770
11.0480,-1.1027,-0.0697,0.4770
11.0660,-0.9695,-0.1202,0.4299
11.0670,-0.9695,-0.1202,0.4299
11.0670,-0.9695,-0.1202,0.4299
11.0860,-0.9531,-0.0802,0.3712
11.0870,-0.9531,-0.0802,0.3712
11.0870,-0.9531,-0.0802,0.3712
11.0880,-0.9531,-0.0802,0.3712
11.1040,-0.9673,-0.0469,0.3754
11.1060,-0.9673,-0.0469,0.3754
11.1060,-0.9673,-0.0469,0.3754
11.1250,-0.8737,-0.0828,0.3903
11.1270,-0.8737,-0.0828,0.3903
11.1270,-0.8737,-0.0828,0.3903
11.1280,-0.8737,-0.0828,0.3903
11.1280,-0.8737,-0.0828,0.3903
11.1290,-0.8737,-0.0828,0.3903
11.1440,-0.8084,-0.0956,0.3558
11.1440,-0.8084,-0.0956,0.3558
11.1450,-0.8084,-0.0956,0.3558
11.1650,-0.8461,-0.0875,0.3688
11.1670,-0.8461,-0.0875,0.3688
11.1670,-0.8461,-0.0875,0.3688
11.1840,-0.9375,-0.0960,0.4128
11.1850,-0.9375,-0.0960,0.4128
11.1850,-0.9375,-0.0960,0.4128
11.2050,-0.9697,-0.1105,0.4079
11.2050,-0.9697,-0.1105,0.4079
11.2060,-0.9697,-0.1105,0.4079
11.2070,-0.9697,-0.1105,0.4079
11.2070,-0.9697,-0.1105,0.4079
11.2240,-0.9382,-0.0868,0.4130
11.2250,-0.9382,-0.0868,0.4130
11.2250,-0.9382,-0.0868,0.4130
11.2450,-0.9309,-0.0445,0.4155
11.2450,-0.9309,-0.0445,0.4155
11.2460,-0.9309,-0.0445,0.4155
11.2630,-0.9275,-0.0645,0.4130
11.2640,-0.9275,-0.0645,0.4130
11.2640,-0.9275,-0.0645,0.4130
11.2850,-0.8935,-0.0885,0.3698
11.2850,-0.8935,-0.0885,0.3698
11.2860,-0.8935,-0.0885,0.3698
11.2860,-0.8935,-0.0885,0.3698
11.2870,-0.8935,-0.0885,0.3698
11.2880,-0.8935,-0.0885,0.3698
11.3030,-0.9350,-0.0858,0.3734
11.3040,-0.9350,-0.0858,0.3734
11.3040,-0.9350,-0.0858,0.3734
11.3250,-0.9634,-0.0868,0.3993
11.3250,-0.9634,-0.0868,0.3993
11.3260,-0.9634,-0.0868,0.3993
11.3420,-0.9213,-0.0694,0.3856
11.3430,-0.9213,-0.0694,0.3856
11.3440,-0.9213,-0.0694,0.3856
11.3620,-0.9292,-0.0418,0.3822
11.3630,-0.9292,-0.0418,0.3822
11.3640,-0.9292,-0.0418,0.3822
11.3640,-0.9292,-0.0418,0.3822
11.3650,-0.9292,-0.0418,0.3822
11.3830,-0.9482,-0.0728,0.4145
11.3860,-0.9482,-0.0728,0.4145
11.3870,-0.9482,-0.0728,0.4145
11.4030,-0.8715,-0.1102,0.4081
11.4040,-0.8715,-0.1102,0.4081
11.4050,-0.8715,-0.1102,0.4081
11.4230,-0.8651,-0.0760,0.3698
11.4240,-0.8651,-0.0760,0.3698
11.4240,-0.8651,-0.0760,0.3698
11.5170,-0.9451,-0.0472,0.3739
11.5170,-0.9451,-0.0472,0.3739
11.5170,-0.9451,-0.0472,0.3739
11.5180,-0.9451,-0.0472,0.3739
11.5180,-0.9451,-0.0472,0.3739
11.5180,-0.9157,-0.0650,0.4096
11.5180,-0.9157,-0.0650,0.4096
11.5180,-0.9157,-0.0650,0.4096
11.5180,-0.8634,-0.0594,0.3832
11.5190,-0.8634,-0.0594,0.3832
11.5190,-0.8634,-0.0594,0.3832
11.5190,-0.8634,-0.0594,0.3832
11.5190,-0.8730,-0.0310,0.3534
11.5190,-0.8730,-0.0310,0.3534
11.5190,-0.8730,-0.0310,0.3534
11.5200,-0.8962,-0.0389,0.3722
11.5200,-0.8962,-0.0389,0.3722
11.5200,-0.8962,-0.0389,0.3722
11.5220,-0.8962,-0.0389,0.3722
11.5220,-0.8962,-0.0389,0.3722
11.5220,-0.8962,-0.0389,0.3722
11.5410,-0.9069,-0.0799,0.4164
11.5410,-0.9069,-0.0799,0.4164
11.5410,-0.9069,-0.0799,0.4164
11.5620,-0.8947,-0.0885,0.4267
11.5630,-0.8947,-0.0885,0.4267
11.5630,-0.8947,-0.0885,0.4267
11.5820,-0.9389,-0.0631,0.4076
11.5820,-0.9389,-0.0631,0.4076
11.5830,-0.9389,-0.0631,0.4076
11.6020,-0.9944,-0.0640,0.4140
11.6020,-0.9944,-0.0640,0.4140
11.6030,-0.9944,-0.0640,0.4140
11.6040,-0.9944,-0.0640,0.4140
11.6040,-0.9944,-0.0640,0.4140
11.6220,-0.9443,-0.0963,0.4304
11.6230,-0.9443,-0.0963,0.4304
11.6230,-0.9443,-0.0963,0.4304
11.6420,-0.9243,-0.0982,0.4240
11.6430,-0.9243,-0.0982,0.4240
11.6440,-0.9243,-0.0982,0.4240
11.6630,-0.9504,-0.0670,0.3935
11.6640,-0.9504,-0.0670,0.3935
11.6650,-0.9504,-0.0670,0.3935
11.6840,-0.9675,-0.0494,0.3942
11.6840,-0.9675,-0.0494,0.3942
11.6850,-0.9675,-0.0494,0.3942
11.6850,-0.9675,-0.0494,0.3942
11.6870,-0.9675,-0.0494,0.3942
11.6870,-0.9675,-0.0494,0.3942
11.7030,-0.9348,-0.0670,0.4008
11.7030,-0.9348,-0.0670,0.4008
11.7040,-0.9348,-0.0670,0.4008
11.7220,-0.8879,-0.0645,0.3732
11.7220,-0.8879,-0.0645,0.3732
11.7230,-0.8879,-0.0645,0.3732
11.7250,-0.8879,-0.0645,0.3732
11.7420,-0.9157,-0.0543,0.3737
11.7430,-0.9157,-0.0543,0.3737
11.7440,-0.9157,-0.0543,0.3737
11.7630,-0.9441,-0.0594,0.3900
11.7650,-0.9441,-0.0594,0.3900
11.7670,-0.9441,-0.0594,0.3900
11.7670,-0.9441,-0.0594,0.3900
11.7680,-0.9441,-0.0594,0.3900
11.7820,-0.9319,-0.0728,0.3715
11.7830,-0.9319,-0.0728,0.3715
11.7840,-0.9319,-0.0728,0.3715
11.8010,-0.9301,-0.0780,0.3546
11.8020,-0.9301,-0.0780,0.3546
11.8020,-0.9301,-0.0780,0.3546
11.8230,-0.9309,-0.0741,0.3856
11.8240,-0.9309,-0.0741,0.3856
11.8240,-0.9309,-0.0741,0.3856
11.8420,-0.8991,-0.0611,0.3920
11.8430,-0.8991,-0.0611,0.3920
11.8440,-0.8991,-0.0611,0.3920
11.8440,-0.8991,-0.0611,0.3920
11.8450,-0.8991,-0.0611,0.3920
11.8620,-0.8964,-0.0371,0.3940
11.8630,-0.8964,-0.0371,0.3940
11.8630,-0.8964,-0.0371,0.3940
11.8820,-0.9140,-0.0374,0.4074
11.8830,-0.9140,-0.0374,0.4074
11.8850,-0.9140,-0.0374,0.4074
11.8860,-0.9140,-0.0374,0.4074
11.9020,-0.9050,-0.0706,0.3927
11.9020,-0.9050,-0.0706,0.3927
11.9030,-0.9050,-0.0706,0.3927
11.9210,-0.8893,-0.0775,0.3668
11.9220,-0.8893,-0.0775,0.3668
11.9230,-0.8893,-0.0775,0.3668
11.9230,-0.8893,-0.0775,0.3668
11.9240,-0.8893,-0.0775,0.3668
11.9410,-0.8803,-0.0393,0.3571
11.9420,-0.8803,-0.0393,0.3571
11.9420,-0.8803,-0.0393,0.3571
11.9610,-0.9174,-0.0313,0.3771
11.9620,-0.9174,-0.0313,0.3771
11.9630,-0.9174,-0.0313,0.3771
12.0580,-0.9326,-0.0706,0.3930
12.0580,-0.9326,-0.0706,0.3930
12.0590,-0.9326,-0.0706,0.3930
12.0590,-0.9355,-0.0936,0.3656
12.0590,-0.9355,-0.0936,0.3656
12.0590,-0.9355,-0.0936,0.3656
12.0600,-0.9355,-0.0936,0.3656
12.0600,-0.9355,-0.0936,0.3656
12.0600,-0.9521,-0.0968,0.3920
12.0610,-0.9521,-0.0968,0.3920
12.0610,-0.9521,-0.0968,0.3920
12.0610,-0.9165,-0.0875,0.4255
12.0610,-0.9165,-0.0875,0.4255
12.0610,-0.9165,-0.0875,0.4255
12.0620,-0.9375,-0.0611,0.4091
12.0620,-0.9375,-0.0611,0.4091
12.0620,-0.9375,-0.0611,0.4091
12.0790,-1.0042,-0.0503,0.3844
12.0790,-1.0042,-0.0503,0.3844
12.0790,-1.0042,-0.0503,0.3844
12.0790,-1.0042,-0.0503,0.3844
12.0790,-1.0042,-0.0503,0.3844
12.0790,-1.0042,-0.0503,0.3844
12.0990,-1.0062,-0.0782,0.3976
12.0990,-1.0062,-0.0782,0.3976
12.0990,-1.0062,-0.0782,0.3976
12.1180,-0.9436,-0.1044,0.3998
12.1180,-0.9436,-0.1044,0.3998
12.1180,-0.9436,-0.1044,0.3998
12.1400,-0.9118,-0.0858,0.3839
12.1400,-0.9118,-0.0858,0.3839
12.1410,-0.9118,-0.0858,0.3839
12.1580,-0.9424,-0.0601,0.3192
12.1590,-0.9424,-0.0601,0.3192
12.1610,-0.9424,-0.0601,0.3192
12.1610,-0.9424,-0.0601,0.3192
12.1620,-0.9424,-0.0601,0.3192
12.1800,-1.0044,-0.0464,0.3255
12.1810,-1.0044,-0.0464,0.3255
12.1820,-1.0044,-0.0464,0.3255
12.2030,-0.9656,-0.0611,0.3671
12.2040,-0.9656,-0.0611,0.3671
12.2050,-0.9656,-0.0611,0.3671
12.2200,-0.9013,-0.0684,0.3424
12.2220,-0.9013,-0.0684,0.3424
12.2240,-0.9013,-0.0684,0.3424
12.2410,-0.8940,-0.0682,0.3170
12.2410,-0.8940,-0.0682,0.3170
12.2420,-0.8940,-0.0682,0.3170
12.2420,-0.8940,-0.0682,0.3170
12.2430,-0.8940,-0.0682,0.3170
12.2610,-0.9350,-0.0484,0.2930
12.2610,-0.9350,-0.0484,0.2930
12.2620,-0.9350,-0.0484,0.2930
12.2800,-0.9727,-0.0543,0.3593
12.2810,-0.9727,-0.0543,0.3593
12.2820,-0.9727,-0.0543,0.3593
12.2820,-0.9727,-0.0543,0.3593
12.3010,-0.9404,-0.0638,0.3832
12.3020,-0.9404,-0.0638,0.3832
12.3030,-0.9404,-0.0638,0.3832
12.3210,-0.9233,-0.0401,0.3551
12.3220,-0.9233,-0.0401,0.3551
12.3220,-0.9233,-0.0401,0.3551
12.3230,-0.9233,-0.0401,0.3551
12.3240,-0.9233,-0.0401,0.3551
12.3410,-0.9196,-0.0200,0.3456
12.3420,-0.9196,-0.0200,0.3456
12.3420,-0.9196,-0.0200,0.3456
12.3620,-0.9262,-0.0577,0.3869
12.3640,-0.9262,-0.0577,0.3869
12.3670,-0.9262,-0.0577,0.3869
12.3800,-0.9157,-0.0973,0.4018
12.3820,-0.9157,-0.0973,0.4018
12.3830,-0.9157,-0.0973,0.4018
12.3990,-0.9277,-0.0726,0.4069
12.4000,-0.9277,-0.0726,0.4069
12.4010,-0.9277,-0.0726,0.4069
12.4020,-0.9277,-0.0726,0.4069
12.4020,-0.9277,-0.0726,0.4069
12.4220,-0.9934,-0.0364,0.3817
12.4230,-0.9934,-0.0364,0.3817
12.4240,-0.9934,-0.0364,0.3817
12.4410,-1.0140,-0.0596,0.4182
12.4420,-1.0140,-0.0596,0.4182
12.4420,-1.0140,-0.0596,0.4182
12.4580,-0.9407,-0.0946,0.4196
12.4600,-0.9407,-0.0946,0.4196
12.4610,-0.9407,-0.0946,0.4196
12.4810,-0.8986,-0.0719,0.3900
12.4820,-0.8986,-0.0719,0.3900
12.4820,-0.8986,-0.0719,0.3900
12.4830,-0.8986,-0.0719,0.3900
12.4850,-0.8986,-0.0719,0.3900
12.4850,-0.8986,-0.0719,0.3900
12.4970,-0.9404,-0.0437,0.3627
12.4970,-0.9404,-0.0437,0.3627
12.4980,-0.9404,-0.0437,0.3627
12.5210,-0.9861,-0.0677,0.3634
12.5220,-0.9861,-0.0677,0.3634
12.6150,-0.9861,-0.0677,0.3634
12.6160,-0.9617,-0.1053,0.3729
12.6160,-0.9617,-0.1053,0.3729
12.6160,-0.9617,-0.1053,0.3729
12.6160,-0.8981,-0.0799,0.3705
12.6170,-0.8981,-0.0799,0.3705
12.6170,-0.8981,-0.0799,0.3705
12.6170,-0.8981,-0.0799,0.3705
12.6170,-0.8981,-0.0799,0.3705
12.6180,-0.8869,-0.0061,0.3546
12.6180,-0.8869,-0.0061,0.3546
12.6180,-0.8869,-0.0061,0.3546
12.6180,-0.9343,0.0244,0.3656
12.6180,-0.9343,0.0244,0.3656
12.6180,-0.9343,0.0244,0.3656
12.6190,-0.9377,-0.0398,0.3935
12.6190,-0.9377,-0.0398,0.3935
12.6190,-0.9377,-0.0398,0.3935
12.6350,-0.8871,-0.1097,0.3876
12.6350,-0.8871,-0.1097,0.3876
12.6350,-0.8871,-0.1097,0.3876
12.6360,-0.8871,-0.1097,0.3876
12.6370,-0.8871,-0.1097,0.3876
12.6580,-0.8884,-0.0968,0.3905
12.6580,-0.8884,-0.0968,0.3905
12.6590,-0.8884,-0.0968,0.3905
12.6760,-0.9328,-0.0323,0.3962
12.6770,-0.9328,-0.0323,0.3962
12.6770,-0.9328,-0.0323,0.3962
12.6770,-0.9328,-0.0323,0.3962
12.6940,-0.9558,-0.0222,0.3803
12.6950,-0.9558,-0.0222,0.3803
12.6950,-0.9558,-0.0222,0.3803
12.7170,-0.9069,-0.0824,0.3832
12.7180,-0.9069,-0.0824,0.3832
12.7190,-0.9069,-0.0824,0.3832
12.7190,-0.9069,-0.0824,0.3832
12.7200,-0.9069,-0.0824,0.3832
12.7200,-0.9069,-0.0824,0.3832
12.7340,-0.8627,-0.1183,0.3918
12.7350,-0.8627,-0.1183,0.3918
12.7400,-0.8627,-0.1183,0.3918
12.7550,-0.8847,-0.0850,0.3942
12.7640,-0.8847,-0.0850,0.3942
12.7640,-0.8847,-0.0850,0.3942
12.7740,-0.9431,-0.0274,0.3935
12.7740,-0.9431,-0.0274,0.3935
12.7740,-0.9431,-0.0274,0.3935
12.7920,-0.9609,-0.0320,0.4076
12.7920,-0.9609,-0.0320,0.4076
12.7920,-0.9609,-0.0320,0.4076
12.7940,-0.9609,-0.0320,0.4076
12.7950,-0.9609,-0.0320,0.4076
12.8030,-0.9609,-0.0320,0.4076
12.8210,-0.9108,-0.0809,0.4138
12.8210,-0.9108,-0.0809,0.4138
12.8210,-0.9108,-0.0809,0.4138
12.8410,-0.8766,-0.0809,0.4191
12.8410,-0.8766,-0.0809,0.4191
12.8410,-0.8766,-0.0809,0.4191
12.8600,-0.9194,-0.0349,0.4040
12.8610,-0.9194,-0.0349,0.4040
12.8610,-0.9194,-0.0349,0.4040
12.8710,-0.9736,-0.0477,0.3876
12.8710,-0.9736,-0.0477,0.3876
12.8730,-0.9736,-0.0477,0.3876
12.8740,-0.9736,-0.0477,0.3876
12.8750,-0.9736,-0.0477,0.3876
12.8910,-0.9499,-0.1053,0.3820
12.8920,-0.9499,-0.1053,0.3820
12.8920,-0.9499,-0.1053,0.3820
12.9120,-0.9140,-0.1085,0.3580
12.9120,-0.9140,-0.1085,0.3580
12.9120,-0.9140,-0.1085,0.3580
12.9120,-0.9140,-0.1085,0.3580
12.9300,-0.9096,-0.0550,0.3436
12.9310,-0.9096,-0.0550,0.3436
12.9310,-0.9096,-0.0550,0.3436
12.9500,-0.9419,-0.0271,0.3673
12.9500,-0.9419,-0.0271,0.3673
12.9500,-0.9419,-0.0271,0.3673
12.9530,-0.9419,-0.0271,0.3673
12.9530,-0.9419,-0.0271,0.3673
12.9710,-0.9504,-0.0423,0.3768
12.9710,-0.9504,-0.0423,0.3768
12.9710,-0.9504,-0.0423,0.3768
12.9950,-0.9262,-0.0550,0.3698
12.9960,-0.9262,-0.0550,0.3698
12.9960,-0.9262,-0.0550,0.3698
13.0110,-0.9138,-0.0535,0.3854
13.0120,-0.9138,-0.0535,0.3854
13.0120,-0.9138,-0.0535,0.3854
13.0340,-0.9294,-0.0452,0.4001
13.0340,-0.9294,-0.0452,0.4001
13.0340,-0.9294,-0.0452,0.4001
13.0360,-0.9294,-0.0452,0.4001
13.0390,-0.9294,-0.0452,0.4001
13.0530,-0.9475,-0.0594,0.3971
13.0530,-0.9475,-0.0594,0.3971
13.0540,-0.9475,-0.0594,0.3971
13.1320,-0.9402,-0.0819,0.3817
13.1320,-0.9402,-0.0819,0.3817
13.1320,-0.9402,-0.0819,0.3817
13.1330,-0.9402,-0.0819,0.3817
13.1330,-0.9326,-0.0741,0.3756
13.1330,-0.9326,-0.0741,0.3756
13.1330,-0.9326,-0.0741,0.3756
13.1340,-0.9475,-0.0633,0.3856
13.1340,-0.9475,-0.0633,0.3856
13.1340,-0.9475,-0.0633,0.3856
13.1340,-0.9475,-0.0633,0.3856
13.1340,-0.9475,-0.0633,0.3856
13.1350,-0.9475,-0.0633,0.3856
13.1350,-0.9426,-0.0745,0.4052
13.1350,-0.9426,-0.0745,0.4052
13.1350,-0.9426,-0.0745,0.4052
13.1510,-0.9126,-0.0677,0.3886
13.1510,-0.9126,-0.0677,0.3886
13.1510,-0.9126,-0.0677,0.3886
13.1700,-0.9463,-0.0499,0.3871
13.1710,-0.9463,-0.0499,0.3871
13.1710,-0.9463,-0.0499,0.3871
13.1940,-0.9512,-0.0675,0.4074
13.1940,-0.9512,-0.0675,0.4074
13.1950,-0.9512,-0.0675,0.4074
13.1950,-0.9512,-0.0675,0.4074
13.1950,-0.9512,-0.0675,0.4074
13.2100,-0.9040,-0.0782,0.4001
13.2110,-0.9040,-0.0782,0.4001
13.2120,-0.9040,-0.0782,0.4001
13.2350,-0.9118,-0.0565,0.3754
13.2370,-0.9118,-0.0565,0.3754
13.2380,-0.9118,-0.0565,0.3754
13.2520,-0.9343,-0.0340,0.3786
13.2530,-0.9343,-0.0340,0.3786
13.2530,-0.9343,-0.0340,0.3786
13.2700,-0.9343,-0.0340,0.3786
13.2710,-0.9297,-0.0354,0.3869
13.2720,-0.9297,-0.0354,0.3869
13.2720,-0.9297,-0.0354,0.3869
13.2730,-0.9297,-0.0354,0.3869
13.2740,-0.9297,-0.0354,0.3869
13.2930,-0.9145,-0.0569,0.3908
13.2940,-0.9145,-0.0569,0.3908
13.2940,-0.9145,-0.0569,0.3908
13.3110,-0.9023,-0.0623,0.3852
13.3120,-0.9023,-0.0623,0.3852
13.3120,-0.9023,-0.0623,0.3852
13.3310,-0.9023,-0.0591,0.3754
13.3310,-0.9023,-0.0591,0.3754
13.3320,-0.9023,-0.0591,0.3754
13.3500,-0.9191,-0.0650,0.3913
13.3510,-0.9191,-0.0650,0.3913
13.3510,-0.9191,-0.0650,0.3913
13.3520,-0.9191,-0.0650,0.3913
13.3530,-0.9191,-0.0650,0.3913
13.3740,-0.9404,-0.0802,0.4213
13.3740,-0.9404,-0.0802,0.4213
13.3750,-0.9404,-0.0802,0.4213
13.3930,-0.9492,-0.0780,0.4184
13.3940,-0.9492,-0.0780,0.4184
13.3940,-0.9492,-0.0780,0.4184
13.4110,-0.9758,-0.0660,0.3964
13.4120,-0.9758,-0.0660,0.3964
13.4120,-0.9758,-0.0660,0.3964
13.4300,-0.9612,-0.0963,0.4079
13.4310,-0.9612,-0.0963,0.4079
13.4310,-0.9612,-0.0963,0.4079
13.4370,-0.9612,-0.0963,0.4079
13.4380,-0.9612,-0.0963,0.4079
13.4500,-0.8986,-0.1004,0.3957
13.4510,-0.8986,-0.1004,0.3957
13.4510,-0.8986,-0.1004,0.3957
13.4710,-0.8986,-0.1004,0.3957
13.4720,-0.9238,-0.0567,0.3661
13.4720,-0.9238,-0.0567,0.3661
13.4730,-0.9238,-0.0567,0.3661
13.4920,-0.9666,-0.0398,0.3695
13.4930,-0.9666,-0.0398,0.3695
13.4930,-0.9666,-0.0398,0.3695
13.5100,-0.9443,-0.0535,0.3844
13.5100,-0.9443,-0.0535,0.3844
13.5110,-0.9443,-0.0535,0.3844
13.5110,-0.9443,-0.0535,0.3844
13.5120,-0.9443,-0.0535,0.3844
13.5290,-0.9167,-0.0565,0.3522
13.5300,-0.9167,-0.0565,0.3522
13.5300,-0.9167,-0.0565,0.3522
13.5510,-0.9118,-0.0577,0.3451
13.5520,-0.9118,-0.0577,0.3451
13.5520,-0.9118,-0.0577,0.3451
13.5690,-0.8842,-0.0692,0.3878
13.5700,-0.8842,-0.0692,0.3878
13.5700,-0.8842,-0.0692,0.3878
13.5890,-0.9218,-0.0406,0.3883
13.5910,-0.9218,-0.0406,0.3883
13.5910,-0.9218,-0.0406,0.3883
13.5920,-0.9218,-0.0406,0.3883
13.5920,-0.9218,-0.0406,0.3883
13.6110,-0.9624,-0.0452,0.3690
13.6880,-0.9624,-0.0452,0.3690
13.6890,-0.9624,-0.0452,0.3690
13.6890,-0.8986,-0.1034,0.3678
13.6890,-0.8986,-0.1034,0.3678
13.6890,-0.8986,-0.1034,0.3678
13.6890,-0.9206,-0.0897,0.3822
13.6890,-0.9206,-0.0897,0.3822
13.6900,-0.9206,-0.0897,0.3822
13.6900,-0.9206,-0.0897,0.3822
13.6900,-0.9453,-0.0357,0.3874
13.6900,-0.9453,-0.0357,0.3874
13.6900,-0.9453,-0.0357,0.3874
13.6900,-0.9453,-0.0357,0.3874
13.6900,-0.9453,-0.0357,0.3874
13.6910,-0.8881,-0.0244,0.3727
13.6910,-0.8881,-0.0244,0.3727
13.6910,-0.8881,-0.0244,0.3727
13.7080,-0.8627,-0.0621,0.3952
13.7080,-0.8627,-0.0621,0.3952
13.7090,-0.8627,-0.0621,0.3952
13.7090,-0.8627,-0.0621,0.3952
13.7270,-0.9458,-0.1415,0.4098
13.7270,-0.9458,-0.1415,0.4098
13.7270,-0.9458,-0.1415,0.4098
13.7470,-0.9800,-0.0665,0.4201
13.7470,-0.9800,-0.0665,0.4201
13.7470,-0.9800,-0.0665,0.4201
13.7490,-0.9800,-0.0665,0.4201
13.7490,-0.9800,-0.0665,0.4201
13.7680,-0.9661,-0.0352,0.3607
13.7680,-0.9661,-0.0352,0.3607
13.7680,-0.9661,-0.0352,0.3607
13.7870,-0.9773,-0.0609,0.3514
13.7880,-0.9773,-0.0609,0.3514
13.7880,-0.9773,-0.0609,0.3514
13.8090,-0.9201,-0.0694,0.3326
13.8090,-0.9201,-0.0694,0.3326
13.8090,-0.9201,-0.0694,0.3326
13.8290,-0.9077,-0.0618,0.2982
13.8290,-0.9077,-0.0618,0.2982
13.8290,-0.9077,-0.0618,0.2982
13.8310,-0.9077,-0.0618,0.2982
13.8310,-0.9077,-0.0618,0.2982
13.8490,-0.9407,-0.0824,0.3155
13.8510,-0.9407,-0.0824,0.3155
13.8520,-0.9407,-0.0824,0.3155
13.8680,-0.9407,-0.0824,0.3155
13.8680,-0.9878,-0.0591,0.3475
13.8690,-0.9878,-0.0591,0.3475
13.8700,-0.9878,-0.0591,0.3475
13.8880,-0.9612,-0.0484,0.3287
13.8880,-0.9612,-0.0484,0.3287
13.8890,-0.9612,-0.0484,0.3287
13.9090,-0.9436,-0.0435,0.3377
13.9090,-0.9436,-0.0435,0.3377
13.9100,-0.9436,-0.0435,0.3377
13.9110,-0.9436,-0.0435,0.3377
13.9110,-0.9436,-0.0435,0.3377
13.9120,-0.9436,-0.0435,0.3377
13.9270,-0.9177,-0.0547,0.3575
13.9280,-0.9177,-0.0547,0.3575
13.9280,-0.9177,-0.0547,0.3575
13.9480,-0.8996,-0.0538,0.3478
13.9490,-0.8996,-0.0538,0.3478
13.9490,-0.8996,-0.0538,0.3478
13.9670,-0.9497,-0.0503,0.3937
13.9680,-0.9497,-0.0503,0.3937
13.9680,-0.9497,-0.0503,0.3937
13.9880,-0.9695,-0.0604,0.4091
13.9890,-0.9695,-0.0604,0.4091
13.9890,-0.9695,-0.0604,0.4091
13.9900,-0.9695,-0.0604,0.4091
13.9900,-0.9695,-0.0604,0.4091
14.0070,-0.9104,-0.0638,0.3590
14.0070,-0.9104,-0.0638,0.3590
14.0080,-0.9104,-0.0638,0.3590
14.0270,-0.9060,-0.0645,0.3419
14.0270,-0.9060,-0.0645,0.3419
14.0280,-0.9060,-0.0645,0.3419
14.0470,-0.9656,-0.0655,0.3654
14.0480,-0.9656,-0.0655,0.3654
14.0490,-0.9656,-0.0655,0.3654
14.0680,-0.9656,-0.0655,0.3654
14.0690,-0.9345,-0.0584,0.3500
14.0690,-0.9345,-0.0584,0.3500
14.0700,-0.9345,-0.0584,0.3500
14.0710,-0.9345,-0.0584,0.3500
14.0710,-0.9345,-0.0584,0.3500
14.0880,-0.9165,-0.0719,0.3446
14.0880,-0.9165,-0.0719,0.3446
14.0890,-0.9165,-0.0719,0.3446
14.1070,-0.9568,-0.0802,0.3634
14.1080,-0.9568,-0.0802,0.3634
14.1080,-0.9568,-0.0802,0.3634
14.1270,-0.9719,-0.0689,0.3739
14.1270,-0.9719,-0.0689,0.3739
14.1280,-0.9719,-0.0689,0.3739
14.1460,-0.9279,-0.0758,0.3700
14.1470,-0.9279,-0.0758,0.3700
14.1480,-0.9279,-0.0758,0.3700
14.2440,-0.9279,-0.0758,0.3700
14.2440,-0.9279,-0.0758,0.3700
14.2440,-0.9294,-0.0792,0.3810
14.2440,-0.9294,-0.0792,0.3810
14.2450,-0.9294,-0.0792,0.3810
14.2450,-0.9746,-0.0814,0.3986
14.2450,-0.9746,-0.0814,0.3986
14.2450,-0.9746,-0.0814,0.3986
14.2450,-0.9585,-0.0792,0.3773
14.2460,-0.9585,-0.0792,0.3773
14.2460,-0.9585,-0.0792,0.3773
14.2460,-0.9199,-0.0902,0.3656
14.2460,-0.9199,-0.0902,0.3656
14.2460,-0.9199,-0.0902,0.3656
14.2470,-0.9199,-0.0902,0.3656
14.2470,-0.9199,-0.0902,0.3656
14.2470,-0.9455,-0.0806,0.3663
14.2470,-0.9455,-0.0806,0.3663
14.2470,-0.9455,-0.0806,0.3663
14.2630,-0.9455,-0.0806,0.3663
14.2660,-0.9504,-0.0616,0.3751
14.2660,-0.9504,-0.0616,0.3751
14.2660,-0.9504,-0.0616,0.3751
14.2830,-0.9656,-0.0533,0.3663
14.2830,-0.9656,-0.0533,0.3663
14.2830,-0.9656,-0.0533,0.3663
14.3040,-0.9732,-0.0618,0.3756
14.3040,-0.9732,-0.0618,0.3756
14.3050,-0.9732,-0.0618,0.3756
14.3060,-0.9732,-0.0618,0.3756
14.3070,-0.9732,-0.0618,0.3756
14.3230,-0.9416,-0.0782,0.3556
14.3240,-0.9416,-0.0782,0.3556
14.3240,-0.9416,-0.0782,0.3556
14.3450,-0.9316,-0.0897,0.3514
14.3460,-0.9316,-0.0897,0.3514
14.3460,-0.9316,-0.0897,0.3514
14.3640,-0.9431,-0.0755,0.3715
14.3640,-0.9431,-0.0755,0.3715
14.3650,-0.9431,-0.0755,0.3715
14.3840,-0.9583,-0.0623,0.3886
14.3850,-0.9583,-0.0623,0.3886
14.3860,-0.9583,-0.0623,0.3886
14.3860,-0.9583,-0.0623,0.3886
14.3870,-0.9583,-0.0623,0.3886
14.4040,-0.9548,-0.0635,0.3727
14.4050,-0.9548,-0.0635,0.3727
14.4050,-0.9548,-0.0635,0.3727
14.4260,-0.9333,-0.0731,0.3756
14.4270,-0.9333,-0.0731,0.3756
14.4280,-0.9333,-0.0731,0.3756
14.4450,-0.9011,-0.0721,0.3612
14.4460,-0.9011,-0.0721,0.3612
14.4460,-0.9011,-0.0721,0.3612
14.4630,-0.9011,-0.0721,0.3612
14.4640,-0.9199,-0.0755,0.3549
14.4640,-0.9199,-0.0755,0.3549
14.4650,-0.9199,-0.0755,0.3549
14.4660,-0.9199,-0.0755,0.3549
14.4660,-0.9199,-0.0755,0.3549
14.4840,-0.9355,-0.0726,0.3715
14.4850,-0.9355,-0.0726,0.3715
14.4850,-0.9355,-0.0726,0.3715
14.5050,-0.9155,-0.0582,0.3492
14.5050,-0.9155,-0.0582,0.3492
14.5060,-0.9155,-0.0582,0.3492
14.5240,-0.9504,-0.0567,0.3502
14.5240,-0.9504,-0.0567,0.3502
14.5250,-0.9504,-0.0567,0.3502
14.5440,-0.9365,-0.0662,0.3685
14.5450,-0.9365,-0.0662,0.3685
14.5460,-0.9365,-0.0662,0.3685
14.5470,-0.9365,-0.0662,0.3685
14.5470,-0.9365,-0.0662,0.3685
14.5640,-0.9111,-0.0626,0.3649
14.5640,-0.9111,-0.0626,0.3649
14.5650,-0.9111,-0.0626,0.3649
14.5830,-0.9035,-0.0569,0.3326
14.5830,-0.9035,-0.0569,0.3326
14.5840,-0.9035,-0.0569,0.3326
14.6040,-0.9228,-0.0521,0.3551
14.6050,-0.9228,-0.0521,0.3551
14.6050,-0.9228,-0.0521,0.3551
14.6230,-0.9343,-0.0530,0.3849
14.6240,-0.9343,-0.0530,0.3849
14.6240,-0.9343,-0.0530,0.3849
14.6250,-0.9343,-0.0530,0.3849
14.6250,-0.9343,-0.0530,0.3849
14.6430,-0.9275,-0.0525,0.3661
14.6440,-0.9275,-0.0525,0.3661
14.6440,-0.9275,-0.0525,0.3661
14.6620,-0.9275,-0.0525,0.3661
14.6620,-0.9306,-0.0555,0.3475
14.6650,-0.9306,-0.0555,0.3475
14.6650,-0.9306,-0.0555,0.3475
14.6880,-0.9074,-0.0455,0.3619
14.6890,-0.9074,-0.0455,0.3619
14.6900,-0.9074,-0.0455,0.3619
14.7040,-0.9074,-0.0455,0.3619
14.7040,-0.8994,-0.0467,0.3575
14.7940,-0.8994,-0.0467,0.3575
14.7940,-0.8994,-0.0467,0.3575
14.7940,-0.8994,-0.0467,0.3575
14.7940,-0.8994,-0.0467,0.3575
14.7940,-0.9416,-0.0621,0.3512
14.7940,-0.9416,-0.0621,0.3512
14.7950,-0.9416,-0.0621,0.3512
14.7950,-0.9355,-0.0623,0.3558
14.7950,-0.9355,-0.0623,0.3558
14.7950,-0.9355,-0.0623,0.3558
14.7950,-0.9426,-0.0447,0.3874
14.7950,-0.9426,-0.0447,0.3874
14.7960,-0.9426,-0.0447,0.3874
14.7960,-0.9837,-0.0550,0.4160
14.7960,-0.9837,-0.0550,0.4160
14.7960,-0.9837,-0.0550,0.4160
14.7960,-0.9837,-0.0550,0.4160
14.7970,-0.9837,-0.0550,0.4160
14.7990,-0.9526,-0.0758,0.3727
14.7990,-0.9526,-0.0758,0.3727
14.8000,-0.9526,-0.0758,0.3727
14.8230,-0.9069,-0.0868,0.3666
14.8230,-0.9069,-0.0868,0.3666
14.8230,-0.9069,-0.0868,0.3666
14.8420,-0.9353,-0.0692,0.3798
14.8420,-0.9353,-0.0692,0.3798
14.8430,-0.9353,-0.0692,0.3798
14.8610,-0.9353,-0.0692,0.3798
14.8610,-0.9534,-0.0591,0.3759
14.8610,-0.9534,-0.0591,0.3759
14.8620,-0.9534,-0.0591,0.3759
14.8630,-0.9534,-0.0591,0.3759
14.8630,-0.9534,-0.0591,0.3759
14.8830,-0.9446,-0.0640,0.3764
14.8830,-0.9446,-0.0640,0.3764
14.8840,-0.9446,-0.0640,0.3764
14.9000,-0.9409,-0.0682,0.3739
14.9010,-0.9409,-0.0682,0.3739
14.9020,-0.9409,-0.0682,0.3739
14.9230,-0.9126,-0.0719,0.3527
14.9240,-0.9126,-0.0719,0.3527
14.9240,-0.9126,-0.0719,0.3527
14.9430,-0.9275,-0.0670,0.3265
14.9430,-0.9275,-0.0670,0.3265
14.9440,-0.9275,-0.0670,0.3265
14.9440,-0.9275,-0.0670,0.3265
14.9450,-0.9275,-0.0670,0.3265
14.9610,-0.9563,-0.0616,0.3519
14.9610,-0.9563,-0.0616,0.3519
14.9620,-0.9563,-0.0616,0.3519
14.9830,-0.9402,-0.0623,0.3744
14.9840,-0.9402,-0.0623,0.3744
14.9860,-0.9402,-0.0623,0.3744
15.0020,-0.9382,-0.0555,0.3507
15.0030,-0.9382,-0.0555,0.3507
15.0030,-0.9382,-0.0555,0.3507
15.0230,-0.9614,-0.0557,0.3749
15.0240,-0.9614,-0.0557,0.3749
15.0240,-0.9614,-0.0557,0.3749
15.0280,-0.9614,-0.0557,0.3749
15.0290,-0.9614,-0.0557,0.3749
15.0430,-0.9382,-0.0540,0.3918
15.0440,-0.9382,-0.0540,0.3918
15.0440,-0.9382,-0.0540,0.3918
15.0620,-0.9382,-0.0540,0.3918
15.0630,-0.9370,-0.0560,0.3930
15.0630,-0.9370,-0.0560,0.3930
15.0640,-0.9370,-0.0560,0.3930
15.0830,-0.9592,-0.0684,0.3849
15.0840,-0.9592,-0.0684,0.3849
15.0850,-0.9592,-0.0684,0.3849
15.1030,-0.9380,-0.0736,0.3632
15.1040,-0.9380,-0.0736,0.3632
15.1040,-0.9380,-0.0736,0.3632
15.1050,-0.9380,-0.0736,0.3632
15.1050,-0.9380,-0.0736,0.3632
15.1220,-0.9548,-0.0609,0.3627
15.1220,-0.9548,-0.0609,0.3627
15.1230,-0.9548,-0.0609,0.3627
15.1420,-0.9736,-0.0657,0.3771
15.1430,-0.9736,-0.0657,0.3771
15.1440,-0.9736,-0.0657,0.3771
15.1620,-0.9485,-0.0731,0.3539
15.1630,-0.9485,-0.0731,0.3539
15.1630,-0.9485,-0.0731,0.3539
15.1810,-0.9504,-0.0687,0.3864
15.1860,-0.9504,-0.0687,0.3864
15.1870,-0.9504,-0.0687,0.3864
15.1870,-0.9504,-0.0687,0.3864
15.1880,-0.9504,-0.0687,0.3864
15.2020,-0.9299,-0.0491,0.3888
15.2030,-0.9299,-0.0491,0.3888
15.2040,-0.9299,-0.0491,0.3888
15.2210,-0.9463,-0.0447,0.3793
15.2220,-0.9463,-0.0447,0.3793
15.2220,-0.9463,-0.0447,0.3793
15.2440,-0.9629,-0.0474,0.3480
15.2460,-0.9629,-0.0474,0.3480
15.2470,-0.9629,-0.0474,0.3480
15.2620,-0.9629,-0.0474,0.3480
15.3330,-0.9343,-0.0579,0.3627
15.3340,-0.9343,-0.0579,0.3627
15.3340,-0.9343,-0.0579,0.3627
15.3340,-0.9343,-0.0579,0.3627
15.3340,-0.9343,-0.0579,0.3627
15.3340,-0.9150,-0.0589,0.3825
15.3340,-0.9150,-0.0589,0.3825
15.3350,-0.9150,-0.0589,0.3825
15.3350,-0.9121,-0.0371,0.3573
15.3350,-0.9121,-0.0371,0.3573
15.3350,-0.9121,-0.0371,0.3573
15.3350,-0.9385,-0.0364,0.3595
15.3350,-0.9385,-0.0364,0.3595
15.3360,-0.9385,-0.0364,0.3595
15.3370,-0.9328,-0.0327,0.3465
15.3370,-0.9328,-0.0327,0.3465
15.3380,-0.9328,-0.0327,0.3465
15.3390,-0.9328,-0.0327,0.3465
15.3390,-0.9328,-0.0327,0.3465
15.3580,-0.9148,-0.0352,0.3304
15.3580,-0.9148,-0.0352,0.3304
15.3580,-0.9148,-0.0352,0.3304
15.3780,-0.9319,-0.0423,0.3260
15.3780,-0.9319,-0.0423,0.3260
15.3790,-0.9319,-0.0423,0.3260
15.3990,-0.9363,-0.0467,0.3690
15.3990,-0.9363,-0.0467,0.3690
15.3990,-0.9363,-0.0467,0.3690
15.4200,-0.9160,-0.0474,0.3993
15.4200,-0.9160,-0.0474,0.3993
15.4210,-0.9160,-0.0474,0.3993
15.4210,-0.9160,-0.0474,0.3993
15.4210,-0.9160,-0.0474,0.3993
15.4370,-0.9162,-0.0462,0.3944
15.4370,-0.9162,-0.0462,0.3944
15.4370,-0.9162,-0.0462,0.3944
15.4550,-0.9162,-0.0462,0.3944
15.4590,-0.9377,-0.0445,0.3776
15.4600,-0.9377,-0.0445,0.3776
15.4610,-0.9377,-0.0445,0.3776
15.4790,-0.9583,-0.0379,0.3573
15.4800,-0.9583,-0.0379,0.3573
15.4800,-0.9583,-0.0379,0.3573
15.5010,-0.9583,-0.0477,0.3483
15.5020,-0.9583,-0.0477,0.3483
15.5030,-0.9583,-0.0477,0.3483
15.5040,-0.9583,-0.0477,0.3483
15.5060,-0.9583,-0.0477,0.3483
15.5180,-0.9216,-0.0577,0.3531
15.5190,-0.9216,-0.0577,0.3531
15.5190,-0.9216,-0.0577,0.3531
15.5390,-0.9345,-0.0499,0.3434
15.5400,-0.9345,-0.0499,0.3434
15.5410,-0.9345,-0.0499,0.3434
15.5610,-0.9433,-0.0472,0.3600
15.5610,-0.9433,-0.0472,0.3600
15.5620,-0.9433,-0.0472,0.3600
15.5770,-0.9453,-0.0455,0.3876
15.5780,-0.9453,-0.0455,0.3876
15.5780,-0.9453,-0.0455,0.3876
15.5840,-0.9453,-0.0455,0.3876
15.5850,-0.9453,-0.0455,0.3876
15.6000,-0.9558,-0.0352,0.3744
15.6010,-0.9558,-0.0352,0.3744
15.6020,-0.9558,-0.0352,0.3744
15.6160,-0.9189,-0.0318,0.3571
15.6170,-0.9189,-0.0318,0.3571
15.6170,-0.9189,-0.0318,0.3571
15.6400,-0.9301,-0.0379,0.3395
15.6400,-0.9301,-0.0379,0.3395
15.6400,-0.9301,-0.0379,0.3395
15.6550,-0.9301,-0.0379,0.3395
15.6550,-0.9568,-0.0538,0.3370
15.6550,-0.9568,-0.0538,0.3370
15.6550,-0.9568,-0.0538,0.3370
15.6580,-0.9568,-0.0538,0.3370
15.6580,-0.9568,-0.0538,0.3370
15.6770,-0.9754,-0.0403,0.3094
15.6770,-0.9754,-0.0403,0.3094
15.6770,-0.9754,-0.0403,0.3094
15.6960,-0.9697,-0.0310,0.2989
15.6960,-0.9697,-0.0310,0.2989
15.6960,-0.9697,-0.0310,0.2989
15.7160,-0.9575,-0.0428,0.3346
15.7160,-0.9575,-0.0428,0.3346
15.7160,-0.9575,-0.0428,0.3346
15.7380,-0.9475,-0.0393,0.3888
15.7380,-0.9475,-0.0393,0.3888
15.7380,-0.9475,-0.0393,0.3888
15.7380,-0.9475,-0.0393,0.3888
15.7380,-0.9475,-0.0393,0.3888
15.7540,-0.9191,-0.0323,0.3878
15.7550,-0.9191,-0.0323,0.3878
15.7550,-0.9191,-0.0323,0.3878
15.7740,-0.9539,-0.0269,0.3742
15.7750,-0.9539,-0.0269,0.3742
15.7750,-0.9539,-0.0269,0.3742
15.7950,-0.9788,-0.0274,0.3715
15.7960,-0.9788,-0.0274,0.3715
15.7960,-0.9788,-0.0274,0.3715
15.8290,-0.9407,-0.0347,0.3703
15.8290,-0.9407,-0.0347,0.3703
15.8300,-0.9407,-0.0347,0.3703
15.8300,-0.9407,-0.0347,0.3703
15.8300,-0.9407,-0.0347,0.3703
15.8340,-0.9150,-0.0398,0.3676
15.8340,-0.9150,-0.0398,0.3676
15.8340,-0.9150,-0.0398,0.3676
15.8520,-0.9150,-0.0398,0.3676
15.8520,-0.9191,-0.0335,0.3414
15.8530,-0.9191,-0.0335,0.3414
15.8530,-0.9191,-0.0335,0.3414
