
time,AccelerometerX,AccelerometerY,AccelerometerZ
0.0160,-0.0550,-0.9072,-0.2341
0.0160,-0.0550,-0.9072,-0.2341
0.0170,-0.0550,-0.9072,-0.2341
0.0430,-0.0142,-1.0157,-0.2204
0.0430,-0.0142,-1.0157,-0.2204
0.0430,-0.0142,-1.0157,-0.2204
0.0430,-0.0142,-1.0157,-0.2204
0.0440,-0.0142,-1.0157,-0.2204
0.0510,-0.1315,-0.9499,-0.2539
0.0510,-0.1315,-0.9499,-0.2539
0.0510,-0.1315,-0.9499,-0.2539
0.0710,-0.1193,-0.9055,-0.3070
0.0720,-0.1193,-0.9055,-0.3070
0.0720,-0.1193,-0.9055,-0.3070
0.0910,-0.0797,-0.9074,-0.3148
0.0910,-0.0797,-0.9074,-0.3148
0.0910,-0.0797,-0.9074,-0.3148
0.1080,-0.0797,-0.9074,-0.3148
0.1110,-0.0831,-0.8747,-0.3370
0.1110,-0.0831,-0.8747,-0.3370
0.1110,-0.0831,-0.8747,-0.3370
0.1140,-0.0831,-0.8747,-0.3370
0.1150,-0.0831,-0.8747,-0.3370
0.1310,-0.1256,-0.8556,-0.3219
0.1310,-0.1256,-0.8556,-0.3219
0.1310,-0.1256,-0.8556,-0.3219
0.1500,-0.1210,-0.8844,-0.2796
0.1510,-0.1210,-0.8844,-0.2796
0.1510,-0.1210,-0.8844,-0.2796
0.1720,-0.1447,-0.9091,-0.3082
0.1720,-0.1447,-0.9091,-0.3082
0.1720,-0.1447,-0.9091,-0.3082
0.1910,-0.1672,-0.8986,-0.2925
0.1910,-0.1672,-0.8986,-0.2925
0.1910,-0.1672,-0.8986,-0.2925
0.1940,-0.1672,-0.8986,-0.2925
0.1940,-0.1672,-0.8986,-0.2925
0.2100,-0.1325,-0.9040,-0.2769
0.2100,-0.1325,-0.9040,-0.2769
0.2100,-0.1325,-0.9040,-0.2769
0.2300,-0.0946,-0.9272,-0.2923
0.2300,-0.0946,-0.9272,-0.2923
0.2300,-0.0946,-0.9272,-0.2923
0.2510,-0.0254,-0.9644,-0.3004
0.2520,-0.0254,-0.9644,-0.3004
0.2520,-0.0254,-0.9644,-0.3004
0.2710,-0.0254,-0.9644,-0.3004
0.2720,-0.0533,-0.9578,-0.2793
0.2720,-0.0533,-0.9578,-0.2793
0.2730,-0.0533,-0.9578,-0.2793
0.2740,-0.0533,-0.9578,-0.2793
0.2900,-0.0897,-0.9138,-0.2471
0.2910,-0.0897,-0.9138,-0.2471
0.2910,-0.0897,-0.9138,-0.2471
0.3070,-0.0897,-0.9138,-0.2471
0.3100,-0.0288,-0.9128,-0.2642
0.3100,-0.0288,-0.9128,-0.2642
0.3100,-0.0288,-0.9128,-0.2642
0.3300,-0.0186,-0.9326,-0.2757
0.3300,-0.0186,-0.9326,-0.2757
0.3310,-0.0186,-0.9326,-0.2757
0.3490,-0.0784,-0.9316,-0.2744
0.3500,-0.0784,-0.9316,-0.2744
0.3500,-0.0784,-0.9316,-0.2744
0.3530,-0.0784,-0.9316,-0.2744
0.3530,-0.0784,-0.9316,-0.2744
0.3690,-0.1061,-0.9221,-0.2605
0.3700,-0.1061,-0.9221,-0.2605
0.3700,-0.1061,-0.9221,-0.2605
0.3900,-0.1036,-0.9385,-0.2842
0.3900,-0.1036,-0.9385,-0.2842
0.3900,-0.1036,-0.9385,-0.2842
0.4090,-0.1149,-0.9473,-0.2920
0.4100,-0.1149,-0.9473,-0.2920
0.4100,-0.1149,-0.9473,-0.2920
0.4290,-0.1122,-0.9453,-0.2124
0.4300,-0.1122,-0.9453,-0.2124
0.4300,-0.1122,-0.9453,-0.2124
0.4330,-0.1122,-0.9453,-0.2124
0.4330,-0.1122,-0.9453,-0.2124
0.4500,-0.0675,-0.8774,-0.2537
0.4510,-0.0675,-0.8774,-0.2537
0.4510,-0.0675,-0.8774,-0.2537
0.4690,-0.0701,-0.8945,-0.3136
0.4690,-0.0701,-0.8945,-0.3136
0.4700,-0.0701,-0.8945,-0.3136
0.4890,-0.0689,-0.9333,-0.2967
0.4890,-0.0689,-0.9333,-0.2967
0.5290,-0.0689,-0.9333,-0.2967
0.5290,-0.0689,-0.9333,-0.2967
0.5290,-0.0880,-0.9275,-0.2757
0.5290,-0.0880,-0.9275,-0.2757
0.5300,-0.0880,-0.9275,-0.2757
0.5300,-0.0880,-0.9275,-0.2757
0.5300,-0.0880,-0.9275,-0.2757
0.5300,-0.0802,-0.9223,-0.2784
0.5310,-0.0802,-0.9223,-0.2784
0.5310,-0.0802,-0.9223,-0.2784
0.5490,-0.0552,-0.9289,-0.2784
0.5490,-0.0552,-0.9289,-0.2784
0.5490,-0.0552,-0.9289,-0.2784
0.5690,-0.0469,-0.9101,-0.2613
0.5690,-0.0469,-0.9101,-0.2613
0.5690,-0.0469,-0.9101,-0.2613
0.5890,-0.0577,-0.9060,-0.2569
0.5890,-0.0577,-0.9060,-0.2569
0.5900,-0.0577,-0.9060,-0.2569
0.5920,-0.0577,-0.9060,-0.2569
0.5930,-0.0577,-0.9060,-0.2569
0.6090,-0.0430,-0.9365,-0.2737
0.6090,-0.0430,-0.9365,-0.2737
0.6100,-0.0430,-0.9365,-0.2737
0.6300,-0.0347,-0.9323,-0.2742
0.6300,-0.0347,-0.9323,-0.2742
0.6300,-0.0347,-0.9323,-0.2742
0.6490,-0.0442,-0.8969,-0.2774
0.6500,-0.0442,-0.8969,-0.2774
0.6500,-0.0442,-0.8969,-0.2774
0.6690,-0.0701,-0.8732,-0.2876
0.6690,-0.0701,-0.8732,-0.2876
0.6690,-0.0701,-0.8732,-0.2876
0.6720,-0.0701,-0.8732,-0.2876
0.6720,-0.0701,-0.8732,-0.2876
0.6890,-0.1075,-0.8888,-0.2991
0.6890,-0.1075,-0.8888,-0.2991
0.6890,-0.1075,-0.8888,-0.2991
0.7050,-0.1075,-0.8888,-0.2991
0.7090,-0.1073,-0.9155,-0.3116
0.7090,-0.1073,-0.9155,-0.3116
0.7100,-0.1073,-0.9155,-0.3116
0.7290,-0.0948,-0.9355,-0.2832
0.7300,-0.0948,-0.9355,-0.2832
0.7300,-0.0948,-0.9355,-0.2832
0.7300,-0.0948,-0.9355,-0.2832
0.7490,-0.0816,-0.9306,-0.2894
0.7490,-0.0816,-0.9306,-0.2894
0.7490,-0.0816,-0.9306,-0.2894
0.7510,-0.0816,-0.9306,-0.2894
0.7510,-0.0816,-0.9306,-0.2894
0.7680,-0.0699,-0.9277,-0.2781
0.7680,-0.0699,-0.9277,-0.2781
0.7680,-0.0699,-0.9277,-0.2781
0.7880,-0.0679,-0.9319,-0.2727
0.7880,-0.0679,-0.9319,-0.2727
0.7880,-0.0679,-0.9319,-0.2727
0.8080,-0.0982,-0.9275,-0.2573
0.8080,-0.0982,-0.9275,-0.2573
0.8080,-0.0982,-0.9275,-0.2573
0.8280,-0.0687,-0.9143,-0.2595
0.8280,-0.0687,-0.9143,-0.2595
0.8290,-0.0687,-0.9143,-0.2595
0.8310,-0.0687,-0.9143,-0.2595
0.8310,-0.0687,-0.9143,-0.2595
0.8480,-0.0117,-0.9008,-0.3008
0.8480,-0.0117,-0.9008,-0.3008
0.8480,-0.0117,-0.9008,-0.3008
0.8680,-0.0327,-0.9086,-0.3050
0.8680,-0.0327,-0.9086,-0.3050
0.8680,-0.0327,-0.9086,-0.3050
0.8880,-0.0572,-0.9272,-0.2964
0.8880,-0.0572,-0.9272,-0.2964
0.8880,-0.0572,-0.9272,-0.2964
0.9040,-0.0572,-0.9272,-0.2964
0.9080,-0.0230,-0.9294,-0.2960
0.9080,-0.0230,-0.9294,-0.2960
0.9080,-0.0230,-0.9294,-0.2960
0.9110,-0.0230,-0.9294,-0.2960
0.9110,-0.0230,-0.9294,-0.2960
0.9310,-0.0230,-0.9294,-0.2960
0.9310,-0.0144,-0.8962,-0.3116
0.9310,-0.0144,-0.8962,-0.3116
0.9320,-0.0144,-0.8962,-0.3116
0.9480,-0.0635,-0.8778,-0.2911
0.9480,-0.0635,-0.8778,-0.2911
0.9480,-0.0635,-0.8778,-0.2911
0.9690,-0.0860,-0.8957,-0.2771
0.9690,-0.0860,-0.8957,-0.2771
0.9690,-0.0860,-0.8957,-0.2771
0.9900,-0.1339,-0.9243,-0.2341
0.9900,-0.1339,-0.9243,-0.2341
0.9900,-0.1339,-0.9243,-0.2341
0.9900,-0.1339,-0.9243,-0.2341
0.9910,-0.1339,-0.9243,-0.2341
1.0110,-0.1542,-0.9358,-0.2009
1.0110,-0.1542,-0.9358,-0.2009
1.0120,-0.1542,-0.9358,-0.2009
1.0300,-0.1188,-0.9321,-0.2466
1.0310,-0.1188,-0.9321,-0.2466
1.0670,-0.1188,-0.9321,-0.2466
1.0680,-0.0885,-0.9294,-0.2852
1.0680,-0.0885,-0.9294,-0.2852
1.0690,-0.0885,-0.9294,-0.2852
1.0690,-0.0880,-0.9213,-0.2835
1.0700,-0.0880,-0.9213,-0.2835
1.0700,-0.0880,-0.9213,-0.2835
1.0710,-0.0880,-0.9213,-0.2835
1.0710,-0.0880,-0.9213,-0.2835
1.0870,-0.0711,-0.9162,-0.2749
1.0880,-0.0711,-0.9162,-0.2749
1.0880,-0.0711,-0.9162,-0.2749
1.1050,-0.0711,-0.9162,-0.2749
1.1070,-0.0496,-0.9148,-0.2757
1.1070,-0.0496,-0.9148,-0.2757
1.1070,-0.0496,-0.9148,-0.2757
1.1300,-0.0462,-0.9130,-0.2920
1.1310,-0.0462,-0.9130,-0.2920
1.1310,-0.0462,-0.9130,-0.2920
1.1490,-0.0462,-0.9213,-0.2847
1.1500,-0.0462,-0.9213,-0.2847
1.1500,-0.0462,-0.9213,-0.2847
1.1500,-0.0462,-0.9213,-0.2847
1.1500,-0.0462,-0.9213,-0.2847
1.1660,-0.0474,-0.9218,-0.2727
1.1670,-0.0474,-0.9218,-0.2727
1.1670,-0.0474,-0.9218,-0.2727
1.1870,-0.0528,-0.9011,-0.2771
1.1870,-0.0528,-0.9011,-0.2771
1.1870,-0.0528,-0.9011,-0.2771
1.2120,-0.0743,-0.8967,-0.2886
1.2120,-0.0743,-0.8967,-0.2886
1.2120,-0.0743,-0.8967,-0.2886
1.2260,-0.1092,-0.9133,-0.2776
1.2270,-0.1092,-0.9133,-0.2776
1.2270,-0.1092,-0.9133,-0.2776
1.2290,-0.1092,-0.9133,-0.2776
1.2300,-0.1092,-0.9133,-0.2776
1.2520,-0.1073,-0.9299,-0.2737
1.2520,-0.1073,-0.9299,-0.2737
1.2530,-0.1073,-0.9299,-0.2737
1.2690,-0.0677,-0.9238,-0.2955
1.2700,-0.0677,-0.9238,-0.2955
1.2700,-0.0677,-0.9238,-0.2955
1.2920,-0.0706,-0.9226,-0.3065
1.2920,-0.0706,-0.9226,-0.3065
1.2920,-0.0706,-0.9226,-0.3065
1.3040,-0.0706,-0.9226,-0.3065
1.3060,-0.0919,-0.9255,-0.2796
1.3060,-0.0919,-0.9255,-0.2796
1.3060,-0.0919,-0.9255,-0.2796
1.3100,-0.0919,-0.9255,-0.2796
1.3100,-0.0919,-0.9255,-0.2796
1.3280,-0.0699,-0.9311,-0.2830
1.3290,-0.0699,-0.9311,-0.2830
1.3290,-0.0699,-0.9311,-0.2830
1.3510,-0.0594,-0.9343,-0.2911
1.3510,-0.0594,-0.9343,-0.2911
1.3520,-0.0594,-0.9343,-0.2911
1.3680,-0.0687,-0.9238,-0.2818
1.3680,-0.0687,-0.9238,-0.2818
1.3680,-0.0687,-0.9238,-0.2818
1.3940,-0.0660,-0.9233,-0.2556
1.3940,-0.0660,-0.9233,-0.2556
1.3940,-0.0660,-0.9233,-0.2556
1.3940,-0.0660,-0.9233,-0.2556
1.3940,-0.0660,-0.9233,-0.2556
1.4080,-0.0770,-0.9101,-0.2639
1.4080,-0.0770,-0.9101,-0.2639
1.4080,-0.0770,-0.9101,-0.2639
1.4280,-0.0584,-0.9162,-0.2705
1.4280,-0.0584,-0.9162,-0.2705
1.4280,-0.0584,-0.9162,-0.2705
1.4450,-0.0635,-0.9372,-0.2674
1.4450,-0.0635,-0.9372,-0.2674
1.4450,-0.0635,-0.9372,-0.2674
1.4650,-0.0887,-0.9431,-0.2637
1.4650,-0.0887,-0.9431,-0.2637
1.4650,-0.0887,-0.9431,-0.2637
1.4680,-0.0887,-0.9431,-0.2637
1.4680,-0.0887,-0.9431,-0.2637
1.4850,-0.0662,-0.9314,-0.2732
1.4850,-0.0662,-0.9314,-0.2732
1.4850,-0.0662,-0.9314,-0.2732
1.5000,-0.0662,-0.9314,-0.2732
1.5050,-0.0342,-0.9104,-0.2896
1.5050,-0.0342,-0.9104,-0.2896
1.5050,-0.0342,-0.9104,-0.2896
1.5300,-0.0677,-0.8886,-0.2938
1.5300,-0.0677,-0.8886,-0.2938
1.5300,-0.0677,-0.8886,-0.2938
1.5440,-0.1073,-0.8849,-0.3089
1.5440,-0.1073,-0.8849,-0.3089
1.5450,-0.1073,-0.8849,-0.3089
1.5480,-0.1073,-0.8849,-0.3089
1.5480,-0.1073,-0.8849,-0.3089
1.5680,-0.0711,-0.9174,-0.3013
1.5690,-0.0711,-0.9174,-0.3013
1.5690,-0.0711,-0.9174,-0.3013
1.5840,-0.0789,-0.9172,-0.2820
1.6170,-0.0789,-0.9172,-0.2820
1.6170,-0.0789,-0.9172,-0.2820
1.6170,-0.0736,-0.8884,-0.2708
1.6170,-0.0736,-0.8884,-0.2708
1.6170,-0.0736,-0.8884,-0.2708
1.6250,-0.0916,-0.8891,-0.2788
1.6250,-0.0916,-0.8891,-0.2788
1.6250,-0.0916,-0.8891,-0.2788
1.6270,-0.0916,-0.8891,-0.2788
1.6270,-0.0916,-0.8891,-0.2788
1.6440,-0.1163,-0.9165,-0.2679
1.6450,-0.1163,-0.9165,-0.2679
1.6450,-0.1163,-0.9165,-0.2679
1.6670,-0.0941,-0.9385,-0.2617
1.6670,-0.0941,-0.9385,-0.2617
1.6670,-0.0941,-0.9385,-0.2617
1.6850,-0.0626,-0.9255,-0.2647
1.6850,-0.0626,-0.9255,-0.2647
1.6860,-0.0626,-0.9255,-0.2647
1.6980,-0.0626,-0.9255,-0.2647
1.7080,-0.0577,-0.9069,-0.2835
1.7080,-0.0577,-0.9069,-0.2835
1.7080,-0.0577,-0.9069,-0.2835
1.7090,-0.0577,-0.9069,-0.2835
1.7090,-0.0577,-0.9069,-0.2835
1.7270,-0.0699,-0.9113,-0.2918
1.7280,-0.0699,-0.9113,-0.2918
1.7280,-0.0699,-0.9113,-0.2918
1.7440,-0.0494,-0.9275,-0.2740
1.7440,-0.0494,-0.9275,-0.2740
1.7450,-0.0494,-0.9275,-0.2740
1.7640,-0.0464,-0.9282,-0.2705
1.7640,-0.0464,-0.9282,-0.2705
1.7650,-0.0464,-0.9282,-0.2705
1.7840,-0.0797,-0.9177,-0.2884
1.7850,-0.0797,-0.9177,-0.2884
1.7850,-0.0797,-0.9177,-0.2884
1.7860,-0.0797,-0.9177,-0.2884
1.7860,-0.0797,-0.9177,-0.2884
1.8030,-0.0706,-0.9099,-0.2960
1.8030,-0.0706,-0.9099,-0.2960
1.8030,-0.0706,-0.9099,-0.2960
1.8220,-0.0828,-0.9248,-0.2859
1.8230,-0.0828,-0.9248,-0.2859
1.8230,-0.0828,-0.9248,-0.2859
1.8420,-0.0985,-0.9282,-0.2757
1.8420,-0.0985,-0.9282,-0.2757
1.8430,-0.0985,-0.9282,-0.2757
1.8620,-0.0755,-0.9150,-0.2759
1.8620,-0.0755,-0.9150,-0.2759
1.8620,-0.0755,-0.9150,-0.2759
1.8670,-0.0755,-0.9150,-0.2759
1.8670,-0.0755,-0.9150,-0.2759
1.8810,-0.0582,-0.9145,-0.2676
1.8820,-0.0582,-0.9145,-0.2676
1.8820,-0.0582,-0.9145,-0.2676
1.8950,-0.0582,-0.9145,-0.2676
1.9010,-0.0672,-0.9167,-0.2681
1.9020,-0.0672,-0.9167,-0.2681
1.9020,-0.0672,-0.9167,-0.2681
1.9220,-0.0875,-0.9206,-0.2669
1.9220,-0.0875,-0.9206,-0.2669
1.9220,-0.0875,-0.9206,-0.2669
1.9420,-0.0985,-0.9233,-0.2547
1.9430,-0.0985,-0.9233,-0.2547
1.9430,-0.0985,-0.9233,-0.2547
1.9450,-0.0985,-0.9233,-0.2547
1.9450,-0.0985,-0.9233,-0.2547
1.9620,-0.0799,-0.9216,-0.2522
1.9620,-0.0799,-0.9216,-0.2522
1.9620,-0.0799,-0.9216,-0.2522
1.9810,-0.0533,-0.9380,-0.2622
1.9820,-0.0533,-0.9380,-0.2622
1.9820,-0.0533,-0.9380,-0.2622
2.0010,-0.0626,-0.9460,-0.2701
2.0010,-0.0626,-0.9460,-0.2701
2.0010,-0.0626,-0.9460,-0.2701
2.0210,-0.0736,-0.9363,-0.2935
2.0220,-0.0736,-0.9363,-0.2935
2.0220,-0.0736,-0.9363,-0.2935
2.0250,-0.0736,-0.9363,-0.2935
2.0250,-0.0736,-0.9363,-0.2935
2.0410,-0.0560,-0.9038,-0.2759
2.0410,-0.0560,-0.9038,-0.2759
2.0420,-0.0560,-0.9038,-0.2759
2.0610,-0.0305,-0.8825,-0.2730
2.0610,-0.0305,-0.8825,-0.2730
2.0620,-0.0305,-0.8825,-0.2730
2.0810,-0.0330,-0.8791,-0.3043
2.0810,-0.0330,-0.8791,-0.3043
2.0810,-0.0330,-0.8791,-0.3043
2.0950,-0.0330,-0.8791,-0.3043
2.1010,-0.0518,-0.8976,-0.3008
2.1010,-0.0518,-0.8976,-0.3008
2.1010,-0.0518,-0.8976,-0.3008
2.1040,-0.0518,-0.8976,-0.3008
2.1050,-0.0518,-0.8976,-0.3008
2.1210,-0.0660,-0.9248,-0.2710
2.1210,-0.0660,-0.9248,-0.2710
2.1210,-0.0660,-0.9248,-0.2710
2.1540,-0.0836,-0.9231,-0.2688
2.1540,-0.0836,-0.9231,-0.2688
2.1540,-0.0836,-0.9231,-0.2688
2.1600,-0.0853,-0.9248,-0.2874
2.1600,-0.0853,-0.9248,-0.2874
2.1600,-0.0853,-0.9248,-0.2874
2.1820,-0.0970,-0.9338,-0.2872
2.1820,-0.0970,-0.9338,-0.2872
2.1820,-0.0970,-0.9338,-0.2872
2.1840,-0.0970,-0.9338,-0.2872
2.1840,-0.0970,-0.9338,-0.2872
2.2010,-0.1295,-0.9314,-0.2583
2.2010,-0.1295,-0.9314,-0.2583
2.2010,-0.1295,-0.9314,-0.2583
2.2210,-0.1166,-0.9277,-0.2603
2.2210,-0.1166,-0.9277,-0.2603
2.2210,-0.1166,-0.9277,-0.2603
2.2410,-0.0706,-0.9223,-0.2654
2.2410,-0.0706,-0.9223,-0.2654
2.2410,-0.0706,-0.9223,-0.2654
2.2600,-0.0565,-0.9020,-0.2830
2.2610,-0.0565,-0.9020,-0.2830
2.2610,-0.0565,-0.9020,-0.2830
2.2640,-0.0565,-0.9020,-0.2830
2.2640,-0.0565,-0.9020,-0.2830
2.2800,-0.0567,-0.9006,-0.2857
2.2800,-0.0567,-0.9006,-0.2857
2.2800,-0.0567,-0.9006,-0.2857
2.2960,-0.0567,-0.9006,-0.2857
2.3010,-0.0650,-0.9289,-0.2793
2.3010,-0.0650,-0.9289,-0.2793
2.3010,-0.0650,-0.9289,-0.2793
2.3210,-0.0804,-0.9431,-0.2913
2.3220,-0.0804,-0.9431,-0.2913
2.3220,-0.0804,-0.9431,-0.2913
2.3410,-0.0872,-0.9343,-0.2779
2.3410,-0.0872,-0.9343,-0.2779
2.3420,-0.0872,-0.9343,-0.2779
2.3440,-0.0872,-0.9343,-0.2779
2.3440,-0.0872,-0.9343,-0.2779
2.3590,-0.0626,-0.9204,-0.2725
2.3600,-0.0626,-0.9204,-0.2725
2.3600,-0.0626,-0.9204,-0.2725
2.3800,-0.0604,-0.9057,-0.2779
2.3810,-0.0604,-0.9057,-0.2779
2.3810,-0.0604,-0.9057,-0.2779
2.4000,-0.1000,-0.9028,-0.2776
2.4000,-0.1000,-0.9028,-0.2776
2.4000,-0.1000,-0.9028,-0.2776
2.4200,-0.1090,-0.9172,-0.2720
2.4210,-0.1090,-0.9172,-0.2720
2.4210,-0.1090,-0.9172,-0.2720
2.4230,-0.1090,-0.9172,-0.2720
2.4230,-0.1090,-0.9172,-0.2720
2.4400,-0.0811,-0.9270,-0.2762
2.4400,-0.0811,-0.9270,-0.2762
2.4400,-0.0811,-0.9270,-0.2762
2.4590,-0.0609,-0.9194,-0.2991
2.4600,-0.0609,-0.9194,-0.2991
2.4600,-0.0609,-0.9194,-0.2991
2.4810,-0.0569,-0.9094,-0.2832
2.4820,-0.0569,-0.9094,-0.2832
2.4820,-0.0569,-0.9094,-0.2832
2.4970,-0.0569,-0.9094,-0.2832
2.5010,-0.0501,-0.9145,-0.2610
2.5010,-0.0501,-0.9145,-0.2610
2.5010,-0.0501,-0.9145,-0.2610
2.5030,-0.0501,-0.9145,-0.2610
2.5040,-0.0501,-0.9145,-0.2610
2.5200,-0.0775,-0.9118,-0.2701
2.5200,-0.0775,-0.9118,-0.2701
2.5200,-0.0775,-0.9118,-0.2701
2.5380,-0.0853,-0.9062,-0.2766
2.5380,-0.0853,-0.9062,-0.2766
2.5390,-0.0853,-0.9062,-0.2766
2.5580,-0.0640,-0.9255,-0.2749
2.5580,-0.0640,-0.9255,-0.2749
2.5580,-0.0640,-0.9255,-0.2749
2.5790,-0.0264,-0.9392,-0.2591
2.5790,-0.0264,-0.9392,-0.2591
2.5790,-0.0264,-0.9392,-0.2591
2.5820,-0.0264,-0.9392,-0.2591
2.5820,-0.0264,-0.9392,-0.2591
2.5980,-0.0156,-0.9289,-0.2517
2.5980,-0.0156,-0.9289,-0.2517
2.5980,-0.0156,-0.9289,-0.2517
2.6180,-0.0349,-0.9170,-0.2652
2.6180,-0.0349,-0.9170,-0.2652
2.6180,-0.0349,-0.9170,-0.2652
2.6380,-0.0467,-0.9216,-0.2898
2.6380,-0.0467,-0.9216,-0.2898
2.6380,-0.0467,-0.9216,-0.2898
2.6590,-0.0547,-0.9248,-0.2862
2.6590,-0.0547,-0.9248,-0.2862
2.6590,-0.0547,-0.9248,-0.2862
2.6610,-0.0547,-0.9248,-0.2862
2.6620,-0.0547,-0.9248,-0.2862
2.6770,-0.0425,-0.9135,-0.2718
2.6770,-0.0425,-0.9135,-0.2718
2.6770,-0.0425,-0.9135,-0.2718
2.7140,-0.0425,-0.9135,-0.2718
2.7140,-0.0347,-0.9020,-0.2872
2.7140,-0.0347,-0.9020,-0.2872
2.7140,-0.0347,-0.9020,-0.2872
2.7170,-0.0675,-0.9121,-0.2950
2.7170,-0.0675,-0.9121,-0.2950
2.7170,-0.0675,-0.9121,-0.2950
2.7370,-0.0804,-0.9111,-0.2850
2.7370,-0.0804,-0.9111,-0.2850
2.7370,-0.0804,-0.9111,-0.2850
2.7400,-0.0804,-0.9111,-0.2850
2.7400,-0.0804,-0.9111,-0.2850
2.7560,-0.0848,-0.9172,-0.2710
2.7560,-0.0848,-0.9172,-0.2710
2.7560,-0.0848,-0.9172,-0.2710
2.7770,-0.0731,-0.9233,-0.2806
2.7770,-0.0731,-0.9233,-0.2806
2.7770,-0.0731,-0.9233,-0.2806
2.7970,-0.0677,-0.9255,-0.2825
2.7970,-0.0677,-0.9255,-0.2825
2.7970,-0.0677,-0.9255,-0.2825
2.8160,-0.0921,-0.9140,-0.2732
2.8170,-0.0921,-0.9140,-0.2732
2.8170,-0.0921,-0.9140,-0.2732
2.8210,-0.0921,-0.9140,-0.2732
2.8210,-0.0921,-0.9140,-0.2732
2.8360,-0.0811,-0.9174,-0.2762
2.8370,-0.0811,-0.9174,-0.2762
2.8370,-0.0811,-0.9174,-0.2762
2.8560,-0.0557,-0.9333,-0.2813
2.8570,-0.0557,-0.9333,-0.2813
2.8570,-0.0557,-0.9333,-0.2813
2.8770,-0.0572,-0.9140,-0.2759
2.8770,-0.0572,-0.9140,-0.2759
2.8770,-0.0572,-0.9140,-0.2759
2.8910,-0.0572,-0.9140,-0.2759
2.8970,-0.0506,-0.9096,-0.2705
2.8970,-0.0506,-0.9096,-0.2705
2.8970,-0.0506,-0.9096,-0.2705
2.9000,-0.0506,-0.9096,-0.2705
2.9000,-0.0506,-0.9096,-0.2705
2.9160,-0.0293,-0.9218,-0.2857
2.9160,-0.0293,-0.9218,-0.2857
2.9170,-0.0293,-0.9218,-0.2857
2.9360,-0.0345,-0.9297,-0.2818
2.9360,-0.0345,-0.9297,-0.2818
2.9370,-0.0345,-0.9297,-0.2818
2.9560,-0.0748,-0.9243,-0.2566
2.9560,-0.0748,-0.9243,-0.2566
2.9560,-0.0748,-0.9243,-0.2566
2.9750,-0.0855,-0.9130,-0.2661
2.9750,-0.0855,-0.9130,-0.2661
2.9750,-0.0855,-0.9130,-0.2661
2.9800,-0.0855,-0.9130,-0.2661
2.9800,-0.0855,-0.9130,-0.2661
2.9960,-0.0601,-0.9204,-0.2815
2.9960,-0.0601,-0.9204,-0.2815
2.9960,-0.0601,-0.9204,-0.2815
3.0150,-0.0733,-0.9262,-0.2788
3.0150,-0.0733,-0.9262,-0.2788
3.0160,-0.0733,-0.9262,-0.2788
3.0350,-0.0731,-0.9245,-0.2786
3.0350,-0.0731,-0.9245,-0.2786
3.0360,-0.0731,-0.9245,-0.2786
3.0560,-0.0530,-0.9235,-0.2727
3.0570,-0.0530,-0.9235,-0.2727
3.0570,-0.0530,-0.9235,-0.2727
3.0600,-0.0530,-0.9235,-0.2727
3.0600,-0.0530,-0.9235,-0.2727
3.0750,-0.0489,-0.9150,-0.2754
3.0750,-0.0489,-0.9150,-0.2754
3.0750,-0.0489,-0.9150,-0.2754
3.0880,-0.0489,-0.9150,-0.2754
3.0950,-0.0506,-0.9148,-0.2681
3.0950,-0.0506,-0.9148,-0.2681
3.0950,-0.0506,-0.9148,-0.2681
3.1150,-0.0489,-0.9238,-0.2705
3.1150,-0.0489,-0.9238,-0.2705
3.1150,-0.0489,-0.9238,-0.2705
3.1350,-0.0657,-0.9172,-0.2735
3.1350,-0.0657,-0.9172,-0.2735
3.1350,-0.0657,-0.9172,-0.2735
3.1380,-0.0657,-0.9172,-0.2735
3.1380,-0.0657,-0.9172,-0.2735
3.1550,-0.0753,-0.9167,-0.2793
3.1550,-0.0753,-0.9167,-0.2793
3.1550,-0.0753,-0.9167,-0.2793
3.1750,-0.0467,-0.9292,-0.2600
3.1750,-0.0467,-0.9292,-0.2600
3.1750,-0.0467,-0.9292,-0.2600
3.1950,-0.0464,-0.9316,-0.2481
3.1950,-0.0464,-0.9316,-0.2481
3.1950,-0.0464,-0.9316,-0.2481
3.2150,-0.0435,-0.9165,-0.2583
3.2150,-0.0435,-0.9165,-0.2583
3.2160,-0.0435,-0.9165,-0.2583
3.2160,-0.0435,-0.9165,-0.2583
3.2160,-0.0435,-0.9165,-0.2583
3.2350,-0.0305,-0.9182,-0.2744
3.2350,-0.0305,-0.9182,-0.2744
3.2740,-0.0305,-0.9182,-0.2744
3.2740,-0.0406,-0.9157,-0.2886
3.2740,-0.0406,-0.9157,-0.2886
3.2750,-0.0406,-0.9157,-0.2886
3.2750,-0.0692,-0.9118,-0.2989
3.2750,-0.0692,-0.9118,-0.2989
3.2750,-0.0692,-0.9118,-0.2989
3.2860,-0.0692,-0.9118,-0.2989
3.2940,-0.0902,-0.9167,-0.2854
3.2940,-0.0902,-0.9167,-0.2854
3.2940,-0.0902,-0.9167,-0.2854
3.2950,-0.0902,-0.9167,-0.2854
3.2960,-0.0902,-0.9167,-0.2854
3.3110,-0.0902,-0.9167,-0.2854
3.3130,-0.0826,-0.9138,-0.2732
3.3140,-0.0826,-0.9138,-0.2732
3.3140,-0.0826,-0.9138,-0.2732
3.3340,-0.0806,-0.9206,-0.2659
3.3350,-0.0806,-0.9206,-0.2659
3.3350,-0.0806,-0.9206,-0.2659
3.3540,-0.0965,-0.9209,-0.2720
3.3540,-0.0965,-0.9209,-0.2720
3.3550,-0.0965,-0.9209,-0.2720
3.3740,-0.0870,-0.9189,-0.2718
3.3750,-0.0870,-0.9189,-0.2718
3.3750,-0.0870,-0.9189,-0.2718
3.3750,-0.0870,-0.9189,-0.2718
3.3750,-0.0870,-0.9189,-0.2718
3.3950,-0.0655,-0.9189,-0.2725
3.3950,-0.0655,-0.9189,-0.2725
3.3960,-0.0655,-0.9189,-0.2725
3.4140,-0.0557,-0.9157,-0.2796
3.4140,-0.0557,-0.9157,-0.2796
3.4150,-0.0557,-0.9157,-0.2796
3.4330,-0.0415,-0.9111,-0.2701
3.4340,-0.0415,-0.9111,-0.2701
3.4340,-0.0415,-0.9111,-0.2701
3.4530,-0.0252,-0.9106,-0.2720
3.4540,-0.0252,-0.9106,-0.2720
3.4540,-0.0252,-0.9106,-0.2720
3.4550,-0.0252,-0.9106,-0.2720
3.4550,-0.0252,-0.9106,-0.2720
3.4750,-0.0354,-0.9165,-0.2705
3.4750,-0.0354,-0.9165,-0.2705
3.4750,-0.0354,-0.9165,-0.2705
3.4860,-0.0354,-0.9165,-0.2705
3.4930,-0.0775,-0.9240,-0.2691
3.4930,-0.0775,-0.9240,-0.2691
3.4940,-0.0775,-0.9240,-0.2691
3.5190,-0.0809,-0.9287,-0.2766
3.5190,-0.0809,-0.9287,-0.2766
3.5190,-0.0809,-0.9287,-0.2766
3.5330,-0.0579,-0.9255,-0.2840
3.5330,-0.0579,-0.9255,-0.2840
3.5340,-0.0579,-0.9255,-0.2840
3.5340,-0.0579,-0.9255,-0.2840
3.5370,-0.0579,-0.9255,-0.2840
3.5540,-0.0508,-0.9145,-0.2923
3.5550,-0.0508,-0.9145,-0.2923
3.5550,-0.0508,-0.9145,-0.2923
3.5720,-0.0489,-0.9160,-0.2911
3.5720,-0.0489,-0.9160,-0.2911
3.5720,-0.0489,-0.9160,-0.2911
3.5920,-0.0501,-0.9216,-0.2845
3.5920,-0.0501,-0.9216,-0.2845
3.5920,-0.0501,-0.9216,-0.2845
3.6120,-0.0499,-0.9184,-0.2749
3.6120,-0.0499,-0.9184,-0.2749
3.6120,-0.0499,-0.9184,-0.2749
3.6140,-0.0499,-0.9184,-0.2749
3.6140,-0.0499,-0.9184,-0.2749
3.6330,-0.0511,-0.9140,-0.2810
3.6330,-0.0511,-0.9140,-0.2810
3.6330,-0.0511,-0.9140,-0.2810
3.6510,-0.0865,-0.9172,-0.2676
3.6510,-0.0865,-0.9172,-0.2676
3.6510,-0.0865,-0.9172,-0.2676
3.6710,-0.0784,-0.9143,-0.2727
3.6720,-0.0784,-0.9143,-0.2727
3.6720,-0.0784,-0.9143,-0.2727
3.6820,-0.0784,-0.9143,-0.2727
3.6930,-0.0467,-0.9370,-0.2698
3.6940,-0.0467,-0.9370,-0.2698
3.6940,-0.0467,-0.9370,-0.2698
3.6940,-0.0467,-0.9370,-0.2698
3.6940,-0.0467,-0.9370,-0.2698
3.7130,-0.0445,-0.9443,-0.2463
3.7140,-0.0445,-0.9443,-0.2463
3.7140,-0.0445,-0.9443,-0.2463
3.7320,-0.0494,-0.9172,-0.2510
3.7330,-0.0494,-0.9172,-0.2510
3.7360,-0.0494,-0.9172,-0.2510
3.7500,-0.0406,-0.9086,-0.2784
3.7510,-0.0406,-0.9086,-0.2784
3.7520,-0.0406,-0.9086,-0.2784
3.7710,-0.0499,-0.9160,-0.3004
3.7730,-0.0499,-0.9160,-0.3004
3.7740,-0.0499,-0.9160,-0.3004
3.7750,-0.0499,-0.9160,-0.3004
3.7750,-0.0499,-0.9160,-0.3004
3.8480,-0.0667,-0.9223,-0.3065
3.8480,-0.0667,-0.9223,-0.3065
3.8480,-0.0667,-0.9223,-0.3065
3.8490,-0.0762,-0.9314,-0.2710
3.8490,-0.0762,-0.9314,-0.2710
3.8490,-0.0762,-0.9314,-0.2710
3.8490,-0.0714,-0.9287,-0.2493
3.8540,-0.0714,-0.9287,-0.2493
3.8540,-0.0714,-0.9287,-0.2493
3.8550,-0.0521,-0.9223,-0.2544
3.8550,-0.0521,-0.9223,-0.2544
3.8550,-0.0521,-0.9223,-0.2544
3.8560,-0.0521,-0.9223,-0.2544
3.8560,-0.0521,-0.9223,-0.2544
3.8700,-0.0582,-0.9179,-0.2786
3.8700,-0.0582,-0.9179,-0.2786
3.8700,-0.0582,-0.9179,-0.2786
3.8790,-0.0582,-0.9179,-0.2786
3.8900,-0.0875,-0.9152,-0.2771
3.8900,-0.0875,-0.9152,-0.2771
3.8900,-0.0875,-0.9152,-0.2771
3.9100,-0.0772,-0.9143,-0.2769
3.9100,-0.0772,-0.9143,-0.2769
3.9100,-0.0772,-0.9143,-0.2769
3.9300,-0.0437,-0.9177,-0.2713
3.9320,-0.0437,-0.9177,-0.2713
3.9330,-0.0437,-0.9177,-0.2713
3.9330,-0.0437,-0.9177,-0.2713
3.9330,-0.0437,-0.9177,-0.2713
3.9500,-0.0452,-0.9062,-0.2808
3.9510,-0.0452,-0.9062,-0.2808
3.9510,-0.0452,-0.9062,-0.2808
3.9690,-0.0599,-0.8979,-0.2894
3.9700,-0.0599,-0.8979,-0.2894
3.9700,-0.0599,-0.8979,-0.2894
3.9900,-0.0523,-0.9118,-0.3099
3.9900,-0.0523,-0.9118,-0.3099
3.9910,-0.0523,-0.9118,-0.3099
4.0100,-0.0765,-0.9209,-0.3079
4.0130,-0.0765,-0.9209,-0.3079
4.0140,-0.0765,-0.9209,-0.3079
4.0140,-0.0765,-0.9209,-0.3079
4.0150,-0.0765,-0.9209,-0.3079
4.0340,-0.0907,-0.9123,-0.2764
4.0350,-0.0907,-0.9123,-0.2764
4.0350,-0.0907,-0.9123,-0.2764
4.0500,-0.0540,-0.9184,-0.2781
4.0520,-0.0540,-0.9184,-0.2781
4.0530,-0.0540,-0.9184,-0.2781
4.0730,-0.0418,-0.9297,-0.2769
4.0730,-0.0418,-0.9297,-0.2769
4.0740,-0.0418,-0.9297,-0.2769
4.0780,-0.0418,-0.9297,-0.2769
4.0890,-0.0770,-0.9213,-0.2620
4.0890,-0.0770,-0.9213,-0.2620
4.0890,-0.0770,-0.9213,-0.2620
4.0920,-0.0770,-0.9213,-0.2620
4.0930,-0.0770,-0.9213,-0.2620
4.1090,-0.0828,-0.9082,-0.2725
4.1100,-0.0828,-0.9082,-0.2725
4.1100,-0.0828,-0.9082,-0.2725
4.1290,-0.0547,-0.9191,-0.2713
4.1290,-0.0547,-0.9191,-0.2713
4.1290,-0.0547,-0.9191,-0.2713
4.1480,-0.0367,-0.9480,-0.2676
4.1490,-0.0367,-0.9480,-0.2676
4.1490,-0.0367,-0.9480,-0.2676
4.1680,-0.0327,-0.9463,-0.2600
4.1690,-0.0327,-0.9463,-0.2600
4.1690,-0.0327,-0.9463,-0.2600
4.1710,-0.0327,-0.9463,-0.2600
4.1710,-0.0327,-0.9463,-0.2600
4.1930,-0.0425,-0.9074,-0.2498
4.1930,-0.0425,-0.9074,-0.2498
4.1930,-0.0425,-0.9074,-0.2498
4.2120,-0.0599,-0.8847,-0.2593
4.2120,-0.0599,-0.8847,-0.2593
4.2130,-0.0599,-0.8847,-0.2593
4.2300,-0.0736,-0.8906,-0.2867
4.2300,-0.0736,-0.8906,-0.2867
4.2300,-0.0736,-0.8906,-0.2867
4.2500,-0.0462,-0.9140,-0.2938
4.2500,-0.0462,-0.9140,-0.2938
4.2500,-0.0462,-0.9140,-0.2938
4.2500,-0.0462,-0.9140,-0.2938
4.2510,-0.0462,-0.9140,-0.2938
4.2700,-0.0540,-0.9338,-0.2859
4.2700,-0.0540,-0.9338,-0.2859
4.2700,-0.0540,-0.9338,-0.2859
4.2770,-0.0540,-0.9338,-0.2859
4.2920,-0.0596,-0.9392,-0.2791
4.2920,-0.0596,-0.9392,-0.2791
4.2920,-0.0596,-0.9392,-0.2791
4.3090,-0.0567,-0.9407,-0.2818
4.3090,-0.0567,-0.9407,-0.2818
4.3090,-0.0567,-0.9407,-0.2818
4.3290,-0.0562,-0.9377,-0.2715
4.3290,-0.0562,-0.9377,-0.2715
4.3290,-0.0562,-0.9377,-0.2715
4.3300,-0.0562,-0.9377,-0.2715
4.3580,-0.0562,-0.9377,-0.2715
4.3580,-0.0675,-0.9226,-0.2806
4.3590,-0.0675,-0.9226,-0.2806
4.3590,-0.0675,-0.9226,-0.2806
4.3660,-0.0699,-0.9145,-0.2825
4.3660,-0.0699,-0.9145,-0.2825
4.3660,-0.0699,-0.9145,-0.2825
4.3890,-0.0638,-0.9213,-0.2642
4.3890,-0.0638,-0.9213,-0.2642
4.3900,-0.0638,-0.9213,-0.2642
4.4080,-0.0384,-0.9301,-0.2698
4.4080,-0.0384,-0.9301,-0.2698
4.4080,-0.0384,-0.9301,-0.2698
4.4090,-0.0384,-0.9301,-0.2698
4.4090,-0.0384,-0.9301,-0.2698
4.4280,-0.0401,-0.9289,-0.2723
4.4280,-0.0401,-0.9289,-0.2723
4.4280,-0.0401,-0.9289,-0.2723
4.4480,-0.0775,-0.9135,-0.2732
4.4480,-0.0775,-0.9135,-0.2732
4.4480,-0.0775,-0.9135,-0.2732
4.4690,-0.0667,-0.9050,-0.2955
4.4690,-0.0667,-0.9050,-0.2955
4.4690,-0.0667,-0.9050,-0.2955
4.4750,-0.0667,-0.9050,-0.2955
4.4890,-0.0626,-0.9174,-0.3006
4.4890,-0.0626,-0.9174,-0.3006
4.4890,-0.0626,-0.9174,-0.3006
4.4900,-0.0626,-0.9174,-0.3006
4.4900,-0.0626,-0.9174,-0.3006
4.5090,-0.0645,-0.9138,-0.2847
4.5100,-0.0645,-0.9138,-0.2847
4.5100,-0.0645,-0.9138,-0.2847
4.5280,-0.0594,-0.9057,-0.2781
4.5290,-0.0594,-0.9057,-0.2781
4.5290,-0.0594,-0.9057,-0.2781
4.5490,-0.0569,-0.9077,-0.2595
4.5490,-0.0569,-0.9077,-0.2595
4.5500,-0.0569,-0.9077,-0.2595
4.5680,-0.0587,-0.9226,-0.2657
4.5690,-0.0587,-0.9226,-0.2657
4.5690,-0.0587,-0.9226,-0.2657
4.5690,-0.0587,-0.9226,-0.2657
4.5690,-0.0587,-0.9226,-0.2657
4.5870,-0.0518,-0.9306,-0.2595
4.5880,-0.0518,-0.9306,-0.2595
4.5880,-0.0518,-0.9306,-0.2595
4.6080,-0.0806,-0.9143,-0.2686
4.6080,-0.0806,-0.9143,-0.2686
4.6080,-0.0806,-0.9143,-0.2686
4.6270,-0.0780,-0.9045,-0.2835
4.6270,-0.0780,-0.9045,-0.2835
4.6270,-0.0780,-0.9045,-0.2835
4.6480,-0.0398,-0.9389,-0.2659
4.6480,-0.0398,-0.9389,-0.2659
4.6480,-0.0398,-0.9389,-0.2659
4.6480,-0.0398,-0.9389,-0.2659
4.6480,-0.0398,-0.9389,-0.2659
4.6680,-0.0337,-0.9492,-0.2512
4.6680,-0.0337,-0.9492,-0.2512
4.6680,-0.0337,-0.9492,-0.2512
4.6740,-0.0337,-0.9492,-0.2512
4.6910,-0.0247,-0.9182,-0.2637
4.6910,-0.0247,-0.9182,-0.2637
4.6910,-0.0247,-0.9182,-0.2637
4.7070,-0.0327,-0.9108,-0.2578
4.7070,-0.0327,-0.9108,-0.2578
4.7070,-0.0327,-0.9108,-0.2578
4.7270,-0.0494,-0.9072,-0.2652
4.7270,-0.0494,-0.9072,-0.2652
4.7270,-0.0494,-0.9072,-0.2652
4.7280,-0.0494,-0.9072,-0.2652
4.7280,-0.0494,-0.9072,-0.2652
4.7480,-0.0584,-0.9082,-0.2840
4.7480,-0.0584,-0.9082,-0.2840
4.7480,-0.0584,-0.9082,-0.2840
4.7650,-0.0516,-0.9165,-0.2920
4.7650,-0.0516,-0.9165,-0.2920
4.7650,-0.0516,-0.9165,-0.2920
4.7870,-0.0726,-0.9113,-0.2864
4.7870,-0.0726,-0.9113,-0.2864
4.7870,-0.0726,-0.9113,-0.2864
4.8050,-0.0995,-0.9096,-0.2818
4.8050,-0.0995,-0.9096,-0.2818
4.8050,-0.0995,-0.9096,-0.2818
4.8060,-0.0995,-0.9096,-0.2818
4.8060,-0.0995,-0.9096,-0.2818
4.8260,-0.0697,-0.9284,-0.2759
4.8260,-0.0697,-0.9284,-0.2759
4.8270,-0.0697,-0.9284,-0.2759
4.8450,-0.0701,-0.9253,-0.2708
4.8450,-0.0701,-0.9253,-0.2708
4.8450,-0.0701,-0.9253,-0.2708
4.8640,-0.0621,-0.9191,-0.2781
4.8640,-0.0621,-0.9191,-0.2781
4.8650,-0.0621,-0.9191,-0.2781
4.8720,-0.0621,-0.9191,-0.2781
4.8850,-0.0806,-0.9314,-0.2788
4.8850,-0.0806,-0.9314,-0.2788
4.8850,-0.0806,-0.9314,-0.2788
4.9260,-0.0806,-0.9314,-0.2788
4.9260,-0.0806,-0.9314,-0.2788
4.9260,-0.0919,-0.9145,-0.2635
4.9260,-0.0919,-0.9145,-0.2635
4.9270,-0.0919,-0.9145,-0.2635
4.9270,-0.0545,-0.9199,-0.2642
4.9270,-0.0545,-0.9199,-0.2642
4.9270,-0.0545,-0.9199,-0.2642
4.9440,-0.0232,-0.9380,-0.2749
4.9440,-0.0232,-0.9380,-0.2749
4.9440,-0.0232,-0.9380,-0.2749
4.9640,-0.0259,-0.9233,-0.2657
4.9640,-0.0259,-0.9233,-0.2657
4.9640,-0.0259,-0.9233,-0.2657
4.9640,-0.0259,-0.9233,-0.2657
4.9650,-0.0259,-0.9233,-0.2657
4.9850,-0.0743,-0.8920,-0.2708
4.9850,-0.0743,-0.8920,-0.2708
4.9850,-0.0743,-0.8920,-0.2708
5.0030,-0.0567,-0.9011,-0.2955
5.0030,-0.0567,-0.9011,-0.2955
5.0030,-0.0567,-0.9011,-0.2955
5.0230,-0.0332,-0.9367,-0.3072
5.0240,-0.0332,-0.9367,-0.3072
5.0240,-0.0332,-0.9367,-0.3072
5.0420,-0.0606,-0.9539,-0.2930
5.0420,-0.0606,-0.9539,-0.2930
5.0420,-0.0606,-0.9539,-0.2930
5.0430,-0.0606,-0.9539,-0.2930
5.0430,-0.0606,-0.9539,-0.2930
5.0630,-0.0697,-0.9270,-0.2754
5.0630,-0.0697,-0.9270,-0.2754
5.0640,-0.0697,-0.9270,-0.2754
5.0710,-0.0697,-0.9270,-0.2754
5.0820,-0.0489,-0.8932,-0.2754
5.0820,-0.0489,-0.8932,-0.2754
5.0830,-0.0489,-0.8932,-0.2754
5.1020,-0.0371,-0.8969,-0.2779
5.1020,-0.0371,-0.8969,-0.2779
5.1020,-0.0371,-0.8969,-0.2779
5.1220,-0.0369,-0.9304,-0.2583
5.1220,-0.0369,-0.9304,-0.2583
5.1220,-0.0369,-0.9304,-0.2583
5.1240,-0.0369,-0.9304,-0.2583
5.1240,-0.0369,-0.9304,-0.2583
5.1420,-0.0662,-0.9321,-0.2566
5.1430,-0.0662,-0.9321,-0.2566
5.1430,-0.0662,-0.9321,-0.2566
5.1610,-0.0530,-0.9074,-0.2569
5.1620,-0.0530,-0.9074,-0.2569
5.1620,-0.0530,-0.9074,-0.2569
5.1810,-0.0200,-0.9209,-0.2671
5.1820,-0.0200,-0.9209,-0.2671
5.1820,-0.0200,-0.9209,-0.2671
5.2010,-0.0147,-0.9404,-0.2637
5.2010,-0.0147,-0.9404,-0.2637
5.2020,-0.0147,-0.9404,-0.2637
5.2040,-0.0147,-0.9404,-0.2637
5.2040,-0.0147,-0.9404,-0.2637
5.2210,-0.0134,-0.9355,-0.2603
5.2210,-0.0134,-0.9355,-0.2603
5.2220,-0.0134,-0.9355,-0.2603
5.2410,-0.0076,-0.9226,-0.2681
5.2410,-0.0076,-0.9226,-0.2681
5.2410,-0.0076,-0.9226,-0.2681
5.2610,-0.0308,-0.9028,-0.2872
5.2610,-0.0308,-0.9028,-0.2872
5.2610,-0.0308,-0.9028,-0.2872
5.2700,-0.0308,-0.9028,-0.2872
5.2810,-0.0577,-0.8947,-0.2928
5.2810,-0.0577,-0.8947,-0.2928
5.2810,-0.0577,-0.8947,-0.2928
5.2820,-0.0577,-0.8947,-0.2928
5.2820,-0.0577,-0.8947,-0.2928
5.3020,-0.0374,-0.9128,-0.2933
5.3020,-0.0374,-0.9128,-0.2933
5.3020,-0.0374,-0.9128,-0.2933
5.3200,-0.0494,-0.9240,-0.2925
5.3210,-0.0494,-0.9240,-0.2925
5.3210,-0.0494,-0.9240,-0.2925
5.3410,-0.0924,-0.8994,-0.2916
5.3410,-0.0924,-0.8994,-0.2916
5.3410,-0.0924,-0.8994,-0.2916
5.3650,-0.0736,-0.9052,-0.2999
5.3660,-0.0736,-0.9052,-0.2999
5.3660,-0.0736,-0.9052,-0.2999
5.3680,-0.0736,-0.9052,-0.2999
5.3680,-0.0736,-0.9052,-0.2999
5.3810,-0.0706,-0.9328,-0.2786
5.3810,-0.0706,-0.9328,-0.2786
5.3810,-0.0706,-0.9328,-0.2786
5.4030,-0.0689,-0.9218,-0.2793
5.4030,-0.0689,-0.9218,-0.2793
5.4030,-0.0689,-0.9218,-0.2793
5.4190,-0.0609,-0.9094,-0.2869
5.4200,-0.0609,-0.9094,-0.2869
5.4200,-0.0609,-0.9094,-0.2869
5.4380,-0.0762,-0.9089,-0.2903
5.4380,-0.0762,-0.9089,-0.2903
5.4390,-0.0762,-0.9089,-0.2903
5.4800,-0.0762,-0.9089,-0.2903
5.4800,-0.0762,-0.9089,-0.2903
5.4810,-0.0584,-0.9235,-0.2832
5.4810,-0.0584,-0.9235,-0.2832
5.4820,-0.0584,-0.9235,-0.2832
5.4820,-0.0584,-0.9235,-0.2832
5.4820,-0.0335,-0.9199,-0.2727
5.4820,-0.0335,-0.9199,-0.2727
5.4830,-0.0335,-0.9199,-0.2727
5.4990,-0.0257,-0.9094,-0.2674
5.4990,-0.0257,-0.9094,-0.2674
5.4990,-0.0257,-0.9094,-0.2674
5.5190,-0.0117,-0.9148,-0.2725
5.5190,-0.0117,-0.9148,-0.2725
5.5190,-0.0117,-0.9148,-0.2725
5.5210,-0.0117,-0.9148,-0.2725
5.5210,-0.0117,-0.9148,-0.2725
5.5390,-0.0210,-0.9096,-0.2859
5.5400,-0.0210,-0.9096,-0.2859
5.5400,-0.0210,-0.9096,-0.2859
5.5600,-0.0418,-0.9099,-0.2862
5.5600,-0.0418,-0.9099,-0.2862
5.5600,-0.0418,-0.9099,-0.2862
5.5800,-0.0357,-0.9116,-0.3050
5.5800,-0.0357,-0.9116,-0.3050
5.5810,-0.0357,-0.9116,-0.3050
5.6000,-0.0540,-0.9201,-0.2872
5.6000,-0.0540,-0.9201,-0.2872
5.6000,-0.0540,-0.9201,-0.2872
5.6010,-0.0540,-0.9201,-0.2872
5.6010,-0.0540,-0.9201,-0.2872
5.6210,-0.0579,-0.9187,-0.2810
5.6210,-0.0579,-0.9187,-0.2810
5.6210,-0.0579,-0.9187,-0.2810
5.6390,-0.0430,-0.9265,-0.2852
5.6390,-0.0430,-0.9265,-0.2852
5.6390,-0.0430,-0.9265,-0.2852
5.6600,-0.0327,-0.9328,-0.2862
5.6600,-0.0327,-0.9328,-0.2862
5.6600,-0.0327,-0.9328,-0.2862
5.6660,-0.0327,-0.9328,-0.2862
5.6790,-0.0530,-0.9218,-0.2798
5.6800,-0.0530,-0.9218,-0.2798
5.6800,-0.0530,-0.9218,-0.2798
5.6800,-0.0530,-0.9218,-0.2798
5.6800,-0.0530,-0.9218,-0.2798
5.6990,-0.0978,-0.9275,-0.2850
5.7000,-0.0978,-0.9275,-0.2850
5.7000,-0.0978,-0.9275,-0.2850
5.7200,-0.0953,-0.9292,-0.2901
5.7200,-0.0953,-0.9292,-0.2901
5.7200,-0.0953,-0.9292,-0.2901
5.7400,-0.0450,-0.9328,-0.2803
5.7400,-0.0450,-0.9328,-0.2803
5.7400,-0.0450,-0.9328,-0.2803
5.7580,-0.0186,-0.9277,-0.2701
5.7580,-0.0186,-0.9277,-0.2701
5.7580,-0.0186,-0.9277,-0.2701
5.7610,-0.0186,-0.9277,-0.2701
5.7620,-0.0186,-0.9277,-0.2701
5.7800,-0.0183,-0.9118,-0.2564
5.7800,-0.0183,-0.9118,-0.2564
5.7810,-0.0183,-0.9118,-0.2564
5.7980,-0.0274,-0.9038,-0.2630
5.7980,-0.0274,-0.9038,-0.2630
5.7980,-0.0274,-0.9038,-0.2630
5.8180,-0.0374,-0.9077,-0.2967
5.8180,-0.0374,-0.9077,-0.2967
5.8180,-0.0374,-0.9077,-0.2967
5.8390,-0.0596,-0.9052,-0.2945
5.8390,-0.0596,-0.9052,-0.2945
5.8390,-0.0596,-0.9052,-0.2945
5.8410,-0.0596,-0.9052,-0.2945
5.8420,-0.0596,-0.9052,-0.2945
5.8590,-0.0415,-0.9040,-0.2784
5.8600,-0.0415,-0.9040,-0.2784
5.8600,-0.0415,-0.9040,-0.2784
5.8710,-0.0415,-0.9040,-0.2784
5.8780,-0.0437,-0.9140,-0.2659
5.8780,-0.0437,-0.9140,-0.2659
5.8780,-0.0437,-0.9140,-0.2659
5.8980,-0.0833,-0.9130,-0.2781
5.8980,-0.0833,-0.9130,-0.2781
5.8990,-0.0833,-0.9130,-0.2781
5.9180,-0.0782,-0.9270,-0.3123
5.9180,-0.0782,-0.9270,-0.3123
5.9180,-0.0782,-0.9270,-0.3123
5.9210,-0.0782,-0.9270,-0.3123
5.9210,-0.0782,-0.9270,-0.3123
5.9390,-0.0699,-0.9458,-0.2974
5.9390,-0.0699,-0.9458,-0.2974
5.9390,-0.0699,-0.9458,-0.2974
5.9580,-0.0853,-0.9228,-0.2701
5.9580,-0.0853,-0.9228,-0.2701
5.9580,-0.0853,-0.9228,-0.2701
5.9770,-0.0589,-0.9060,-0.2788
5.9780,-0.0589,-0.9060,-0.2788
5.9780,-0.0589,-0.9060,-0.2788
5.9980,-0.0283,-0.9216,-0.2950
5.9980,-0.0283,-0.9216,-0.2950
6.0450,-0.0283,-0.9216,-0.2950
6.0450,-0.0283,-0.9216,-0.2950
6.0450,-0.0283,-0.9216,-0.2950
6.0450,-0.0220,-0.9231,-0.2898
6.0450,-0.0220,-0.9231,-0.2898
6.0450,-0.0220,-0.9231,-0.2898
6.0450,-0.0543,-0.9074,-0.2842
6.0450,-0.0543,-0.9074,-0.2842
6.0450,-0.0543,-0.9074,-0.2842
6.0570,-0.0545,-0.9074,-0.2979
6.0570,-0.0545,-0.9074,-0.2979
6.0570,-0.0545,-0.9074,-0.2979
6.0680,-0.0545,-0.9074,-0.2979
6.0770,-0.0511,-0.9250,-0.3008
6.0770,-0.0511,-0.9250,-0.3008
6.0770,-0.0511,-0.9250,-0.3008
6.0800,-0.0511,-0.9250,-0.3008
6.0800,-0.0511,-0.9250,-0.3008
6.0980,-0.0474,-0.9226,-0.2864
6.0980,-0.0474,-0.9226,-0.2864
6.0980,-0.0474,-0.9226,-0.2864
6.1170,-0.0137,-0.9135,-0.2815
6.1170,-0.0137,-0.9135,-0.2815
6.1170,-0.0137,-0.9135,-0.2815
6.1360,-0.0232,-0.9135,-0.2788
6.1370,-0.0232,-0.9135,-0.2788
6.1370,-0.0232,-0.9135,-0.2788
6.1560,-0.0305,-0.9218,-0.2769
6.1570,-0.0305,-0.9218,-0.2769
6.1570,-0.0305,-0.9218,-0.2769
6.1570,-0.0305,-0.9218,-0.2769
6.1570,-0.0305,-0.9218,-0.2769
6.1780,-0.0587,-0.9223,-0.2749
6.1780,-0.0587,-0.9223,-0.2749
6.1780,-0.0587,-0.9223,-0.2749
6.1960,-0.0890,-0.8984,-0.2825
6.1970,-0.0890,-0.8984,-0.2825
6.1970,-0.0890,-0.8984,-0.2825
6.2160,-0.0494,-0.9113,-0.2989
6.2170,-0.0494,-0.9113,-0.2989
6.2170,-0.0494,-0.9113,-0.2989
6.2370,-0.0198,-0.9397,-0.2911
6.2370,-0.0198,-0.9397,-0.2911
6.2370,-0.0198,-0.9397,-0.2911
6.2400,-0.0198,-0.9397,-0.2911
6.2400,-0.0198,-0.9397,-0.2911
6.2590,-0.0430,-0.9294,-0.2679
6.2590,-0.0430,-0.9294,-0.2679
6.2590,-0.0430,-0.9294,-0.2679
6.2610,-0.0430,-0.9294,-0.2679
6.2770,-0.0467,-0.9035,-0.2703
6.2770,-0.0467,-0.9035,-0.2703
6.2770,-0.0467,-0.9035,-0.2703
6.2960,-0.0467,-0.8942,-0.3026
6.2960,-0.0467,-0.8942,-0.3026
6.2960,-0.0467,-0.8942,-0.3026
6.3150,-0.0303,-0.9077,-0.2994
6.3160,-0.0303,-0.9077,-0.2994
6.3160,-0.0303,-0.9077,-0.2994
6.3160,-0.0303,-0.9077,-0.2994
6.3160,-0.0303,-0.9077,-0.2994
6.3370,-0.0083,-0.9311,-0.2679
6.3370,-0.0083,-0.9311,-0.2679
6.3370,-0.0083,-0.9311,-0.2679
6.3570,-0.0459,-0.9155,-0.2427
6.3570,-0.0459,-0.9155,-0.2427
6.3570,-0.0459,-0.9155,-0.2427
6.3750,-0.0623,-0.9128,-0.2657
6.3760,-0.0623,-0.9128,-0.2657
6.3760,-0.0623,-0.9128,-0.2657
6.3950,-0.0682,-0.9365,-0.2710
6.3960,-0.0682,-0.9365,-0.2710
6.3960,-0.0682,-0.9365,-0.2710
6.3960,-0.0682,-0.9365,-0.2710
6.3960,-0.0682,-0.9365,-0.2710
6.4170,-0.0557,-0.9275,-0.2832
6.4170,-0.0557,-0.9275,-0.2832
6.4170,-0.0557,-0.9275,-0.2832
6.4350,-0.0423,-0.9174,-0.2982
6.4350,-0.0423,-0.9174,-0.2982
6.4360,-0.0423,-0.9174,-0.2982
6.4590,-0.0408,-0.9145,-0.2969
6.4590,-0.0408,-0.9145,-0.2969
6.4600,-0.0408,-0.9145,-0.2969
6.4620,-0.0408,-0.9145,-0.2969
6.4750,-0.0435,-0.9194,-0.2867
6.4750,-0.0435,-0.9194,-0.2867
6.4760,-0.0435,-0.9194,-0.2867
6.4760,-0.0435,-0.9194,-0.2867
6.4760,-0.0435,-0.9194,-0.2867
6.4960,-0.0472,-0.9167,-0.2972
6.4970,-0.0472,-0.9167,-0.2972
6.4970,-0.0472,-0.9167,-0.2972
6.5160,-0.0301,-0.9248,-0.2960
6.5160,-0.0301,-0.9248,-0.2960
6.5160,-0.0301,-0.9248,-0.2960
6.5340,-0.0144,-0.9240,-0.2869
6.5350,-0.0144,-0.9240,-0.2869
6.5350,-0.0144,-0.9240,-0.2869
6.5540,-0.0540,-0.9060,-0.2835
6.5930,-0.0540,-0.9060,-0.2835
6.5930,-0.0540,-0.9060,-0.2835
6.5930,-0.0540,-0.9060,-0.2835
6.5930,-0.0540,-0.9060,-0.2835
6.5940,-0.0765,-0.9030,-0.2884
6.5940,-0.0765,-0.9030,-0.2884
6.5940,-0.0765,-0.9030,-0.2884
6.5950,-0.0511,-0.9223,-0.2911
6.5950,-0.0511,-0.9223,-0.2911
6.5950,-0.0511,-0.9223,-0.2911
6.6140,-0.0415,-0.9235,-0.2881
6.6140,-0.0415,-0.9235,-0.2881
6.6140,-0.0415,-0.9235,-0.2881
6.6340,-0.0359,-0.9057,-0.2925
6.6340,-0.0359,-0.9057,-0.2925
6.6340,-0.0359,-0.9057,-0.2925
6.6350,-0.0359,-0.9057,-0.2925
6.6350,-0.0359,-0.9057,-0.2925
6.6540,-0.0523,-0.8918,-0.2776
6.6540,-0.0523,-0.8918,-0.2776
6.6540,-0.0523,-0.8918,-0.2776
6.6590,-0.0523,-0.8918,-0.2776
6.6760,-0.0398,-0.8869,-0.2747
6.6760,-0.0398,-0.8869,-0.2747
6.6760,-0.0398,-0.8869,-0.2747
6.6950,-0.0337,-0.9135,-0.2747
6.6950,-0.0337,-0.9135,-0.2747
6.6950,-0.0337,-0.9135,-0.2747
6.7130,-0.0567,-0.9250,-0.2566
6.7140,-0.0567,-0.9250,-0.2566
6.7140,-0.0567,-0.9250,-0.2566
6.7140,-0.0567,-0.9250,-0.2566
6.7140,-0.0567,-0.9250,-0.2566
6.7330,-0.0279,-0.9155,-0.2786
6.7330,-0.0279,-0.9155,-0.2786
6.7330,-0.0279,-0.9155,-0.2786
6.7540,0.0029,-0.9323,-0.2869
6.7550,0.0029,-0.9323,-0.2869
6.7550,0.0029,-0.9323,-0.2869
6.7730,-0.0203,-0.9385,-0.2759
6.7730,-0.0203,-0.9385,-0.2759
6.7740,-0.0203,-0.9385,-0.2759
6.7940,-0.0396,-0.9345,-0.2737
6.7940,-0.0396,-0.9345,-0.2737
6.7950,-0.0396,-0.9345,-0.2737
6.7950,-0.0396,-0.9345,-0.2737
6.7960,-0.0396,-0.9345,-0.2737
6.8160,-0.0296,-0.9341,-0.2930
6.8170,-0.0296,-0.9341,-0.2930
6.8170,-0.0296,-0.9341,-0.2930
6.8340,-0.0198,-0.9275,-0.3074
6.8340,-0.0198,-0.9275,-0.3074
6.8350,-0.0198,-0.9275,-0.3074
6.8520,-0.0391,-0.9113,-0.2928
6.8530,-0.0391,-0.9113,-0.2928
6.8540,-0.0391,-0.9113,-0.2928
6.8570,-0.0391,-0.9113,-0.2928
6.8720,-0.0635,-0.9008,-0.2806
6.8730,-0.0635,-0.9008,-0.2806
6.8730,-0.0635,-0.9008,-0.2806
6.8740,-0.0635,-0.9008,-0.2806
6.8740,-0.0635,-0.9008,-0.2806
6.8920,-0.0552,-0.9126,-0.2872
6.8920,-0.0552,-0.9126,-0.2872
6.8930,-0.0552,-0.9126,-0.2872
6.9160,-0.0628,-0.9314,-0.2886
6.9170,-0.0628,-0.9314,-0.2886
6.9170,-0.0628,-0.9314,-0.2886
6.9310,-0.0872,-0.9204,-0.2828
6.9320,-0.0872,-0.9204,-0.2828
6.9320,-0.0872,-0.9204,-0.2828
6.9520,-0.0665,-0.9172,-0.2850
6.9550,-0.0665,-0.9172,-0.2850
6.9560,-0.0665,-0.9172,-0.2850
6.9570,-0.0665,-0.9172,-0.2850
6.9570,-0.0665,-0.9172,-0.2850
6.9730,-0.0425,-0.9179,-0.2896
6.9740,-0.0425,-0.9179,-0.2896
6.9740,-0.0425,-0.9179,-0.2896
6.9940,-0.0406,-0.9052,-0.2791
6.9950,-0.0406,-0.9052,-0.2791
6.9960,-0.0406,-0.9052,-0.2791
7.0130,-0.0457,-0.9089,-0.2732
7.0140,-0.0457,-0.9089,-0.2732
7.0150,-0.0457,-0.9089,-0.2732
7.0330,-0.0425,-0.9118,-0.2769
7.0340,-0.0425,-0.9118,-0.2769
7.0340,-0.0425,-0.9118,-0.2769
7.0360,-0.0425,-0.9118,-0.2769
7.0360,-0.0425,-0.9118,-0.2769
7.0560,-0.0323,-0.9079,-0.2857
7.0570,-0.0323,-0.9079,-0.2857
7.0570,-0.0323,-0.9079,-0.2857
7.0580,-0.0323,-0.9079,-0.2857
7.0740,-0.0254,-0.9050,-0.2911
7.0750,-0.0254,-0.9050,-0.2911
7.0760,-0.0254,-0.9050,-0.2911
7.0930,-0.0315,-0.9145,-0.2876
7.0940,-0.0315,-0.9145,-0.2876
7.0940,-0.0315,-0.9145,-0.2876
7.1620,-0.0200,-0.9348,-0.3016
7.1630,-0.0200,-0.9348,-0.3016
7.1640,-0.0200,-0.9348,-0.3016
7.1640,-0.0200,-0.9348,-0.3016
7.1640,-0.0200,-0.9348,-0.3016
7.1650,-0.0310,-0.9394,-0.3006
7.1650,-0.0310,-0.9394,-0.3006
7.1650,-0.0310,-0.9394,-0.3006
7.1650,-0.0418,-0.9253,-0.3030
7.1660,-0.0418,-0.9253,-0.3030
7.1660,-0.0418,-0.9253,-0.3030
7.1720,-0.0481,-0.9069,-0.2820
7.1720,-0.0481,-0.9069,-0.2820
7.1720,-0.0481,-0.9069,-0.2820
7.1900,-0.0335,-0.9064,-0.2786
7.1900,-0.0335,-0.9064,-0.2786
7.1900,-0.0335,-0.9064,-0.2786
7.1920,-0.0335,-0.9064,-0.2786
7.1920,-0.0335,-0.9064,-0.2786
7.2120,-0.0391,-0.9140,-0.2876
7.2120,-0.0391,-0.9140,-0.2876
7.2120,-0.0391,-0.9140,-0.2876
7.2330,-0.0533,-0.9133,-0.2879
7.2330,-0.0533,-0.9133,-0.2879
7.2330,-0.0533,-0.9133,-0.2879
7.2510,-0.0657,-0.9184,-0.2842
7.2510,-0.0657,-0.9184,-0.2842
7.2510,-0.0657,-0.9184,-0.2842
7.2530,-0.0657,-0.9184,-0.2842
7.2710,-0.0616,-0.9130,-0.2867
7.2720,-0.0616,-0.9130,-0.2867
7.2720,-0.0616,-0.9130,-0.2867
7.2720,-0.0616,-0.9130,-0.2867
7.2720,-0.0616,-0.9130,-0.2867
7.2920,-0.0315,-0.9226,-0.2859
7.2920,-0.0315,-0.9226,-0.2859
7.2930,-0.0315,-0.9226,-0.2859
7.3110,-0.0037,-0.9433,-0.2771
7.3110,-0.0037,-0.9433,-0.2771
7.3110,-0.0037,-0.9433,-0.2771
7.3320,0.0000,-0.9328,-0.2703
7.3320,0.0000,-0.9328,-0.2703
7.3320,0.0000,-0.9328,-0.2703
7.3520,-0.0156,-0.9091,-0.2669
7.3520,-0.0156,-0.9091,-0.2669
7.3520,-0.0156,-0.9091,-0.2669
7.3530,-0.0156,-0.9091,-0.2669
7.3530,-0.0156,-0.9091,-0.2669
7.3720,-0.0218,-0.8940,-0.2891
7.3720,-0.0218,-0.8940,-0.2891
7.3730,-0.0218,-0.8940,-0.2891
7.3930,-0.0181,-0.8976,-0.3133
7.3930,-0.0181,-0.8976,-0.3133
7.3930,-0.0181,-0.8976,-0.3133
7.4120,-0.0276,-0.9038,-0.3131
7.4120,-0.0276,-0.9038,-0.3131
7.4120,-0.0276,-0.9038,-0.3131
7.4320,-0.0687,-0.9128,-0.2989
7.4320,-0.0687,-0.9128,-0.2989
7.4320,-0.0687,-0.9128,-0.2989
7.4320,-0.0687,-0.9128,-0.2989
7.4330,-0.0687,-0.9128,-0.2989
7.4520,-0.0938,-0.9145,-0.2935
7.4520,-0.0938,-0.9145,-0.2935
7.4520,-0.0938,-0.9145,-0.2935
7.4520,-0.0938,-0.9145,-0.2935
7.4720,-0.0621,-0.9172,-0.2974
7.4720,-0.0621,-0.9172,-0.2974
7.4730,-0.0621,-0.9172,-0.2974
7.4920,-0.0748,-0.9257,-0.2950
7.4930,-0.0748,-0.9257,-0.2950
7.4930,-0.0748,-0.9257,-0.2950
7.5130,-0.0782,-0.9174,-0.2854
7.5140,-0.0782,-0.9174,-0.2854
7.5140,-0.0782,-0.9174,-0.2854
7.5140,-0.0782,-0.9174,-0.2854
7.5140,-0.0782,-0.9174,-0.2854
7.5320,-0.0596,-0.9130,-0.2810
7.5330,-0.0596,-0.9130,-0.2810
7.5330,-0.0596,-0.9130,-0.2810
7.5520,-0.0503,-0.9111,-0.2808
7.5520,-0.0503,-0.9111,-0.2808
7.5520,-0.0503,-0.9111,-0.2808
7.5720,-0.0345,-0.9123,-0.2803
7.5720,-0.0345,-0.9123,-0.2803
7.5720,-0.0345,-0.9123,-0.2803
7.5920,-0.0210,-0.9250,-0.2857
7.5920,-0.0210,-0.9250,-0.2857
7.5920,-0.0210,-0.9250,-0.2857
7.5930,-0.0210,-0.9250,-0.2857
7.5930,-0.0210,-0.9250,-0.2857
7.6120,-0.0244,-0.9350,-0.2703
7.6130,-0.0244,-0.9350,-0.2703
7.6130,-0.0244,-0.9350,-0.2703
7.6310,-0.0296,-0.9162,-0.2681
7.6320,-0.0296,-0.9162,-0.2681
7.6320,-0.0296,-0.9162,-0.2681
7.6480,-0.0279,-0.9042,-0.2747
7.6480,-0.0279,-0.9042,-0.2747
7.6490,-0.0279,-0.9042,-0.2747
7.6880,-0.0279,-0.9042,-0.2747
7.6880,-0.0357,-0.9189,-0.2806
7.6880,-0.0357,-0.9189,-0.2806
7.6880,-0.0357,-0.9189,-0.2806
7.6880,-0.0357,-0.9189,-0.2806
7.6880,-0.0357,-0.9189,-0.2806
7.6880,-0.0357,-0.9213,-0.2974
7.6890,-0.0357,-0.9213,-0.2974
7.6890,-0.0357,-0.9213,-0.2974
7.7110,-0.0389,-0.9152,-0.2930
7.7120,-0.0389,-0.9152,-0.2930
7.7120,-0.0389,-0.9152,-0.2930
7.7290,-0.0462,-0.9118,-0.2908
7.7290,-0.0462,-0.9118,-0.2908
7.7290,-0.0462,-0.9118,-0.2908
7.7520,-0.0396,-0.9165,-0.2867
7.7520,-0.0396,-0.9165,-0.2867
7.7520,-0.0396,-0.9165,-0.2867
7.7520,-0.0396,-0.9165,-0.2867
7.7530,-0.0396,-0.9165,-0.2867
7.7680,-0.0310,-0.9206,-0.2925
7.7680,-0.0310,-0.9206,-0.2925
7.7680,-0.0310,-0.9206,-0.2925
7.7890,-0.0479,-0.9148,-0.2938
7.7900,-0.0479,-0.9148,-0.2938
7.7900,-0.0479,-0.9148,-0.2938
7.8080,-0.0591,-0.9157,-0.2913
7.8080,-0.0591,-0.9157,-0.2913
7.8080,-0.0591,-0.9157,-0.2913
7.8270,-0.0567,-0.9223,-0.2886
7.8270,-0.0567,-0.9223,-0.2886
7.8270,-0.0567,-0.9223,-0.2886
7.8270,-0.0567,-0.9223,-0.2886
7.8270,-0.0567,-0.9223,-0.2886
7.8470,-0.0274,-0.9277,-0.2881
7.8480,-0.0274,-0.9277,-0.2881
7.8480,-0.0274,-0.9277,-0.2881
7.8510,-0.0274,-0.9277,-0.2881
7.8680,-0.0325,-0.9375,-0.2798
7.8690,-0.0325,-0.9375,-0.2798
7.8690,-0.0325,-0.9375,-0.2798
7.8880,-0.0144,-0.9211,-0.2679
7.8880,-0.0144,-0.9211,-0.2679
7.8880,-0.0144,-0.9211,-0.2679
7.9060,-0.0024,-0.9086,-0.2647
7.9060,-0.0024,-0.9086,-0.2647
7.9060,-0.0024,-0.9086,-0.2647
7.9060,-0.0024,-0.9086,-0.2647
7.9060,-0.0024,-0.9086,-0.2647
7.9280,-0.0196,-0.9099,-0.2784
7.9280,-0.0196,-0.9099,-0.2784
7.9280,-0.0196,-0.9099,-0.2784
7.9480,-0.0301,-0.9077,-0.3055
7.9480,-0.0301,-0.9077,-0.3055
7.9480,-0.0301,-0.9077,-0.3055
7.9680,-0.0381,-0.9006,-0.3126
7.9680,-0.0381,-0.9006,-0.3126
7.9680,-0.0381,-0.9006,-0.3126
7.9870,-0.0442,-0.9082,-0.3013
7.9870,-0.0442,-0.9082,-0.3013
7.9880,-0.0442,-0.9082,-0.3013
7.9880,-0.0442,-0.9082,-0.3013
7.9900,-0.0442,-0.9082,-0.3013
8.0080,-0.0618,-0.9245,-0.2862
8.0080,-0.0618,-0.9245,-0.2862
8.0080,-0.0618,-0.9245,-0.2862
8.0320,-0.0897,-0.9130,-0.2715
8.0320,-0.0897,-0.9130,-0.2715
8.0320,-0.0897,-0.9130,-0.2715
8.0470,-0.0838,-0.9040,-0.2784
8.0480,-0.0838,-0.9040,-0.2784
8.0480,-0.0838,-0.9040,-0.2784
8.0500,-0.0838,-0.9040,-0.2784
8.0670,-0.0528,-0.9018,-0.2840
8.0670,-0.0528,-0.9018,-0.2840
8.0670,-0.0528,-0.9018,-0.2840
8.0670,-0.0528,-0.9018,-0.2840
8.0680,-0.0528,-0.9018,-0.2840
8.0860,-0.0516,-0.9099,-0.2894
8.0860,-0.0516,-0.9099,-0.2894
8.0870,-0.0516,-0.9099,-0.2894
8.1070,-0.0503,-0.9253,-0.2935
8.1070,-0.0503,-0.9253,-0.2935
8.1080,-0.0503,-0.9253,-0.2935
8.1280,-0.0296,-0.9397,-0.2835
8.1280,-0.0296,-0.9397,-0.2835
8.1280,-0.0296,-0.9397,-0.2835
8.1460,-0.0225,-0.9262,-0.2896
8.1460,-0.0225,-0.9262,-0.2896
8.1470,-0.0225,-0.9262,-0.2896
8.1500,-0.0225,-0.9262,-0.2896
8.1500,-0.0225,-0.9262,-0.2896
8.1660,-0.0347,-0.9084,-0.2830
8.1660,-0.0347,-0.9084,-0.2830
8.1670,-0.0347,-0.9084,-0.2830
8.1920,-0.0435,-0.9179,-0.2639
8.1920,-0.0435,-0.9179,-0.2639
8.1920,-0.0435,-0.9179,-0.2639
8.2080,-0.0455,-0.9231,-0.2803
8.2090,-0.0455,-0.9231,-0.2803
8.2540,-0.0455,-0.9231,-0.2803
8.2540,-0.0305,-0.9189,-0.2923
8.2540,-0.0305,-0.9189,-0.2923
8.2550,-0.0305,-0.9189,-0.2923
8.2550,-0.0305,-0.9189,-0.2923
8.2550,-0.0305,-0.9189,-0.2923
8.2560,-0.0340,-0.9213,-0.2872
8.2560,-0.0340,-0.9213,-0.2872
8.2570,-0.0340,-0.9213,-0.2872
8.2570,-0.0340,-0.9213,-0.2872
8.2650,-0.0506,-0.9155,-0.2864
8.2650,-0.0506,-0.9155,-0.2864
8.2650,-0.0506,-0.9155,-0.2864
8.2840,-0.0635,-0.9099,-0.2925
8.2840,-0.0635,-0.9099,-0.2925
8.2840,-0.0635,-0.9099,-0.2925
8.3080,-0.0653,-0.9113,-0.2864
8.3080,-0.0653,-0.9113,-0.2864
8.3080,-0.0653,-0.9113,-0.2864
8.3090,-0.0653,-0.9113,-0.2864
8.3090,-0.0653,-0.9113,-0.2864
8.3260,-0.0420,-0.9067,-0.2972
8.3260,-0.0420,-0.9067,-0.2972
8.3260,-0.0420,-0.9067,-0.2972
8.3480,-0.0283,-0.8994,-0.3143
8.3480,-0.0283,-0.8994,-0.3143
8.3480,-0.0283,-0.8994,-0.3143
8.3640,-0.0298,-0.9101,-0.3050
8.3640,-0.0298,-0.9101,-0.3050
8.3640,-0.0298,-0.9101,-0.3050
8.3860,-0.0381,-0.9138,-0.2947
8.3860,-0.0381,-0.9138,-0.2947
8.3870,-0.0381,-0.9138,-0.2947
8.3870,-0.0381,-0.9138,-0.2947
8.3870,-0.0381,-0.9138,-0.2947
8.4060,-0.0254,-0.9067,-0.2906
8.4060,-0.0254,-0.9067,-0.2906
8.4070,-0.0254,-0.9067,-0.2906
8.4270,-0.0389,-0.9135,-0.2757
8.4270,-0.0389,-0.9135,-0.2757
8.4270,-0.0389,-0.9135,-0.2757
8.4450,-0.0308,-0.9338,-0.2705
8.4450,-0.0308,-0.9338,-0.2705
8.4460,-0.0308,-0.9338,-0.2705
8.4480,-0.0308,-0.9338,-0.2705
8.4660,-0.0259,-0.9421,-0.2681
8.4670,-0.0259,-0.9421,-0.2681
8.4670,-0.0259,-0.9421,-0.2681
8.4670,-0.0259,-0.9421,-0.2681
8.4670,-0.0259,-0.9421,-0.2681
8.4850,-0.0222,-0.9255,-0.2867
8.4850,-0.0222,-0.9255,-0.2867
8.4850,-0.0222,-0.9255,-0.2867
8.5070,-0.0327,-0.9152,-0.3057
8.5070,-0.0327,-0.9152,-0.3057
8.5070,-0.0327,-0.9152,-0.3057
8.5270,-0.0528,-0.9104,-0.3045
8.5270,-0.0528,-0.9104,-0.3045
8.5270,-0.0528,-0.9104,-0.3045
8.5450,-0.0623,-0.9121,-0.2886
8.5450,-0.0623,-0.9121,-0.2886
8.5450,-0.0623,-0.9121,-0.2886
8.5450,-0.0623,-0.9121,-0.2886
8.5460,-0.0623,-0.9121,-0.2886
8.5640,-0.0633,-0.9099,-0.2857
8.5640,-0.0633,-0.9099,-0.2857
8.5640,-0.0633,-0.9099,-0.2857
8.5860,-0.0543,-0.9099,-0.2972
8.5860,-0.0543,-0.9099,-0.2972
8.5870,-0.0543,-0.9099,-0.2972
8.6070,-0.0489,-0.9140,-0.2938
8.6070,-0.0489,-0.9140,-0.2938
8.6070,-0.0489,-0.9140,-0.2938
8.6270,-0.0631,-0.9074,-0.2859
8.6270,-0.0631,-0.9074,-0.2859
8.6270,-0.0631,-0.9074,-0.2859
8.6270,-0.0631,-0.9074,-0.2859
8.6280,-0.0631,-0.9074,-0.2859
8.6450,-0.0547,-0.9094,-0.2859
8.6450,-0.0547,-0.9094,-0.2859
8.6460,-0.0547,-0.9094,-0.2859
8.6470,-0.0547,-0.9094,-0.2859
8.6650,-0.0420,-0.9196,-0.2810
8.6650,-0.0420,-0.9196,-0.2810
8.6650,-0.0420,-0.9196,-0.2810
8.6820,-0.0396,-0.9216,-0.2762
8.6820,-0.0396,-0.9216,-0.2762
8.6830,-0.0396,-0.9216,-0.2762
8.7030,-0.0249,-0.9148,-0.2930
8.7030,-0.0249,-0.9148,-0.2930
8.7040,-0.0249,-0.9148,-0.2930
8.7040,-0.0249,-0.9148,-0.2930
8.7040,-0.0249,-0.9148,-0.2930
8.7240,-0.0274,-0.9108,-0.3018
8.7240,-0.0274,-0.9108,-0.3018
8.7240,-0.0274,-0.9108,-0.3018
8.7450,-0.0379,-0.9133,-0.2982
8.7450,-0.0379,-0.9133,-0.2982
8.7460,-0.0379,-0.9133,-0.2982
8.7620,-0.0330,-0.9238,-0.2894
8.8090,-0.0330,-0.9238,-0.2894
8.8090,-0.0330,-0.9238,-0.2894
8.8090,-0.0518,-0.9194,-0.2923
8.8100,-0.0518,-0.9194,-0.2923
8.8100,-0.0518,-0.9194,-0.2923
8.8100,-0.0518,-0.9194,-0.2923
8.8100,-0.0518,-0.9194,-0.2923
8.8100,-0.0567,-0.9045,-0.2979
8.8100,-0.0567,-0.9045,-0.2979
8.8100,-0.0567,-0.9045,-0.2979
8.8240,-0.0415,-0.9050,-0.3072
8.8240,-0.0415,-0.9050,-0.3072
8.8240,-0.0415,-0.9050,-0.3072
8.8400,-0.0462,-0.9209,-0.2938
8.8400,-0.0462,-0.9209,-0.2938
8.8410,-0.0462,-0.9209,-0.2938
8.8440,-0.0462,-0.9209,-0.2938
8.8600,-0.0337,-0.9231,-0.2896
8.8600,-0.0337,-0.9231,-0.2896
8.8610,-0.0337,-0.9231,-0.2896
8.8610,-0.0337,-0.9231,-0.2896
8.8610,-0.0337,-0.9231,-0.2896
8.8820,-0.0308,-0.9084,-0.2737
8.8830,-0.0308,-0.9084,-0.2737
8.8830,-0.0308,-0.9084,-0.2737
8.9010,-0.0330,-0.8930,-0.2828
8.9020,-0.0330,-0.8930,-0.2828
8.9020,-0.0330,-0.8930,-0.2828
8.9220,-0.0408,-0.9033,-0.2857
8.9230,-0.0408,-0.9033,-0.2857
8.9230,-0.0408,-0.9033,-0.2857
8.9400,-0.0784,-0.9226,-0.2796
8.9410,-0.0784,-0.9226,-0.2796
8.9410,-0.0784,-0.9226,-0.2796
8.9410,-0.0784,-0.9226,-0.2796
8.9410,-0.0784,-0.9226,-0.2796
8.9610,-0.0599,-0.9272,-0.2942
8.9610,-0.0599,-0.9272,-0.2942
8.9610,-0.0599,-0.9272,-0.2942
8.9820,-0.0481,-0.9392,-0.2933
8.9830,-0.0481,-0.9392,-0.2933
8.9830,-0.0481,-0.9392,-0.2933
9.0010,-0.0467,-0.9394,-0.2930
9.0020,-0.0467,-0.9394,-0.2930
9.0020,-0.0467,-0.9394,-0.2930
9.0210,-0.0327,-0.9213,-0.2986
9.0210,-0.0327,-0.9213,-0.2986
9.0220,-0.0327,-0.9213,-0.2986
9.0220,-0.0327,-0.9213,-0.2986
9.0220,-0.0327,-0.9213,-0.2986
9.0420,-0.0403,-0.9082,-0.2991
9.0420,-0.0403,-0.9082,-0.2991
9.0430,-0.0403,-0.9082,-0.2991
9.0430,-0.0403,-0.9082,-0.2991
9.0620,-0.0291,-0.9018,-0.3079
9.0620,-0.0291,-0.9018,-0.3079
9.0620,-0.0291,-0.9018,-0.3079
9.0800,-0.0391,-0.9040,-0.2972
9.0800,-0.0391,-0.9040,-0.2972
9.0800,-0.0391,-0.9040,-0.2972
9.1000,-0.0367,-0.9130,-0.2808
9.1010,-0.0367,-0.9130,-0.2808
9.1010,-0.0367,-0.9130,-0.2808
9.1010,-0.0367,-0.9130,-0.2808
9.1010,-0.0367,-0.9130,-0.2808
9.1200,-0.0384,-0.9157,-0.2752
9.1200,-0.0384,-0.9157,-0.2752
9.1200,-0.0384,-0.9157,-0.2752
9.1410,-0.0606,-0.9177,-0.2713
9.1420,-0.0606,-0.9177,-0.2713
9.1420,-0.0606,-0.9177,-0.2713
9.1600,-0.0621,-0.9148,-0.2820
9.1600,-0.0621,-0.9148,-0.2820
9.1610,-0.0621,-0.9148,-0.2820
9.1800,-0.0530,-0.9170,-0.3030
9.1810,-0.0530,-0.9170,-0.3030
9.1810,-0.0530,-0.9170,-0.3030
9.1810,-0.0530,-0.9170,-0.3030
9.1810,-0.0530,-0.9170,-0.3030
9.1990,-0.0486,-0.9245,-0.2903
9.1990,-0.0486,-0.9245,-0.2903
9.1990,-0.0486,-0.9245,-0.2903
9.2200,-0.0450,-0.9121,-0.2852
9.2200,-0.0450,-0.9121,-0.2852
9.2200,-0.0450,-0.9121,-0.2852
9.2390,-0.0369,-0.9030,-0.2876
9.2390,-0.0369,-0.9030,-0.2876
9.2390,-0.0369,-0.9030,-0.2876
9.2390,-0.0369,-0.9030,-0.2876
9.2590,-0.0352,-0.9113,-0.3033
9.2590,-0.0352,-0.9113,-0.3033
9.2590,-0.0352,-0.9113,-0.3033
9.2600,-0.0352,-0.9113,-0.3033
9.2600,-0.0352,-0.9113,-0.3033
9.2790,-0.0374,-0.9062,-0.3123
9.2790,-0.0374,-0.9062,-0.3123
9.2800,-0.0374,-0.9062,-0.3123
9.3000,-0.0279,-0.9050,-0.3023
9.3000,-0.0279,-0.9050,-0.3023
9.3000,-0.0279,-0.9050,-0.3023
9.3490,-0.0516,-0.9062,-0.2940
9.3490,-0.0516,-0.9062,-0.2940
9.3490,-0.0516,-0.9062,-0.2940
9.3500,-0.0616,-0.9050,-0.2923
9.3500,-0.0616,-0.9050,-0.2923
9.3500,-0.0616,-0.9050,-0.2923
9.3510,-0.0616,-0.9050,-0.2923
9.3510,-0.0616,-0.9050,-0.2923
9.3580,-0.0594,-0.9206,-0.2933
9.3580,-0.0594,-0.9206,-0.2933
9.3580,-0.0594,-0.9206,-0.2933
9.3780,-0.0499,-0.9250,-0.2969
9.3780,-0.0499,-0.9250,-0.2969
9.3780,-0.0499,-0.9250,-0.2969
9.3970,-0.0445,-0.9191,-0.2859
9.3970,-0.0445,-0.9191,-0.2859
9.3970,-0.0445,-0.9191,-0.2859
9.4170,-0.0374,-0.9143,-0.2872
9.4170,-0.0374,-0.9143,-0.2872
9.4170,-0.0374,-0.9143,-0.2872
9.4180,-0.0374,-0.9143,-0.2872
9.4190,-0.0374,-0.9143,-0.2872
9.4370,-0.0415,-0.9045,-0.2859
9.4370,-0.0415,-0.9045,-0.2859
9.4370,-0.0415,-0.9045,-0.2859
9.4380,-0.0415,-0.9045,-0.2859
9.4580,-0.0760,-0.9113,-0.2850
9.4580,-0.0760,-0.9113,-0.2850
9.4580,-0.0760,-0.9113,-0.2850
9.4760,-0.0565,-0.9187,-0.2852
9.4770,-0.0565,-0.9187,-0.2852
9.4770,-0.0565,-0.9187,-0.2852
9.4970,-0.0379,-0.9316,-0.2852
9.4970,-0.0379,-0.9316,-0.2852
9.4970,-0.0379,-0.9316,-0.2852
9.4980,-0.0379,-0.9316,-0.2852
9.4980,-0.0379,-0.9316,-0.2852
9.5160,-0.0240,-0.9431,-0.2881
9.5170,-0.0240,-0.9431,-0.2881
9.5170,-0.0240,-0.9431,-0.2881
9.5380,-0.0112,-0.9380,-0.2891
9.5380,-0.0112,-0.9380,-0.2891
9.5380,-0.0112,-0.9380,-0.2891
9.5560,-0.0242,-0.9140,-0.2823
9.5570,-0.0242,-0.9140,-0.2823
9.5570,-0.0242,-0.9140,-0.2823
9.5760,-0.0435,-0.8827,-0.2974
9.5770,-0.0435,-0.8827,-0.2974
9.5770,-0.0435,-0.8827,-0.2974
9.5770,-0.0435,-0.8827,-0.2974
9.5770,-0.0435,-0.8827,-0.2974
9.5960,-0.0477,-0.8810,-0.3050
9.5960,-0.0477,-0.8810,-0.3050
9.5960,-0.0477,-0.8810,-0.3050
9.6200,-0.0650,-0.8996,-0.2766
9.6200,-0.0650,-0.8996,-0.2766
9.6200,-0.0650,-0.8996,-0.2766
9.6350,-0.0550,-0.9196,-0.2688
9.6360,-0.0550,-0.9196,-0.2688
9.6360,-0.0550,-0.9196,-0.2688
9.6370,-0.0550,-0.9196,-0.2688
9.6560,-0.0719,-0.9150,-0.2818
9.6560,-0.0719,-0.9150,-0.2818
9.6560,-0.0719,-0.9150,-0.2818
9.6570,-0.0719,-0.9150,-0.2818
9.6570,-0.0719,-0.9150,-0.2818
9.6750,-0.0782,-0.9167,-0.2889
9.6750,-0.0782,-0.9167,-0.2889
9.6760,-0.0782,-0.9167,-0.2889
9.6960,-0.0550,-0.9299,-0.2969
9.6970,-0.0550,-0.9299,-0.2969
9.6970,-0.0550,-0.9299,-0.2969
9.7160,-0.0447,-0.9201,-0.3004
9.7160,-0.0447,-0.9201,-0.3004
9.7160,-0.0447,-0.9201,-0.3004
9.7360,-0.0579,-0.8996,-0.2942
9.7360,-0.0579,-0.8996,-0.2942
9.7360,-0.0579,-0.8996,-0.2942
9.7360,-0.0579,-0.8996,-0.2942
9.7360,-0.0579,-0.8996,-0.2942
9.7550,-0.0518,-0.9016,-0.2898
9.7550,-0.0518,-0.9016,-0.2898
9.7550,-0.0518,-0.9016,-0.2898
9.7750,-0.0418,-0.9170,-0.2986
9.7750,-0.0418,-0.9170,-0.2986
9.7750,-0.0418,-0.9170,-0.2986
9.7970,-0.0418,-0.9238,-0.2974
9.7970,-0.0418,-0.9238,-0.2974
9.7970,-0.0418,-0.9238,-0.2974
9.8150,-0.0413,-0.9253,-0.3033
9.8150,-0.0413,-0.9253,-0.3033
9.8150,-0.0413,-0.9253,-0.3033
9.8160,-0.0413,-0.9253,-0.3033
9.8160,-0.0413,-0.9253,-0.3033
9.8350,-0.0393,-0.9196,-0.3172
9.8350,-0.0393,-0.9196,-0.3172
9.8350,-0.0393,-0.9196,-0.3172
9.8350,-0.0393,-0.9196,-0.3172
9.8540,-0.0437,-0.9177,-0.3026
9.8540,-0.0437,-0.9177,-0.3026
9.8970,-0.0437,-0.9177,-0.3026
9.8970,-0.0396,-0.9199,-0.2881
9.8970,-0.0396,-0.9199,-0.2881
9.8970,-0.0396,-0.9199,-0.2881
9.8970,-0.0494,-0.9128,-0.2820
9.8970,-0.0494,-0.9128,-0.2820
9.8970,-0.0494,-0.9128,-0.2820
9.8980,-0.0494,-0.9128,-0.2820
9.8980,-0.0494,-0.9128,-0.2820
9.9130,-0.0525,-0.9101,-0.2744
9.9130,-0.0525,-0.9101,-0.2744
9.9130,-0.0525,-0.9101,-0.2744
9.9330,-0.0435,-0.9216,-0.2742
9.9330,-0.0435,-0.9216,-0.2742
9.9330,-0.0435,-0.9216,-0.2742
9.9540,-0.0433,-0.9179,-0.2759
9.9550,-0.0433,-0.9179,-0.2759
9.9550,-0.0433,-0.9179,-0.2759
9.9740,-0.0726,-0.9064,-0.2786
9.9740,-0.0726,-0.9064,-0.2786
9.9740,-0.0726,-0.9064,-0.2786
9.9750,-0.0726,-0.9064,-0.2786
9.9750,-0.0726,-0.9064,-0.2786
9.9940,-0.0613,-0.9006,-0.2891
9.9940,-0.0613,-0.9006,-0.2891
9.9940,-0.0613,-0.9006,-0.2891
10.0130,-0.0318,-0.9228,-0.2933
10.0140,-0.0318,-0.9228,-0.2933
10.0140,-0.0318,-0.9228,-0.2933
10.0380,-0.0345,-0.9341,-0.2815
10.0390,-0.0345,-0.9341,-0.2815
10.0400,-0.0345,-0.9341,-0.2815
10.0410,-0.0345,-0.9341,-0.2815
10.0530,-0.0222,-0.9245,-0.2759
10.0540,-0.0222,-0.9245,-0.2759
10.0540,-0.0222,-0.9245,-0.2759
10.0550,-0.0222,-0.9245,-0.2759
10.0730,-0.0112,-0.9116,-0.2867
10.0740,-0.0112,-0.9116,-0.2867
10.0740,-0.0112,-0.9116,-0.2867
10.0950,-0.0220,-0.9025,-0.2930
10.0960,-0.0220,-0.9025,-0.2930
10.0970,-0.0220,-0.9025,-0.2930
10.1130,-0.0254,-0.8986,-0.3038
10.1130,-0.0254,-0.8986,-0.3038
10.1140,-0.0254,-0.8986,-0.3038
10.1340,-0.0352,-0.8969,-0.3233
10.1350,-0.0352,-0.8969,-0.3233
10.1350,-0.0352,-0.8969,-0.3233
10.1360,-0.0352,-0.8969,-0.3233
10.1370,-0.0352,-0.8969,-0.3233
10.1530,-0.0692,-0.9099,-0.3045
10.1540,-0.0692,-0.9099,-0.3045
10.1540,-0.0692,-0.9099,-0.3045
10.1750,-0.0802,-0.9096,-0.2972
10.1760,-0.0802,-0.9096,-0.2972
10.1770,-0.0802,-0.9096,-0.2972
10.1910,-0.0560,-0.9199,-0.2906
10.1920,-0.0560,-0.9199,-0.2906
10.1920,-0.0560,-0.9199,-0.2906
10.2140,-0.0748,-0.9201,-0.2832
10.2150,-0.0748,-0.9201,-0.2832
10.2170,-0.0748,-0.9201,-0.2832
10.2170,-0.0748,-0.9201,-0.2832
10.2180,-0.0748,-0.9201,-0.2832
10.2310,-0.0694,-0.9077,-0.2857
10.2320,-0.0694,-0.9077,-0.2857
10.2330,-0.0694,-0.9077,-0.2857
10.2340,-0.0694,-0.9077,-0.2857
10.2540,-0.0662,-0.9135,-0.2854
10.2540,-0.0662,-0.9135,-0.2854
10.2550,-0.0662,-0.9135,-0.2854
10.2710,-0.0672,-0.9152,-0.2913
10.2720,-0.0672,-0.9152,-0.2913
10.2730,-0.0672,-0.9152,-0.2913
10.2950,-0.0572,-0.9213,-0.2916
10.2960,-0.0572,-0.9213,-0.2916
10.2970,-0.0572,-0.9213,-0.2916
10.2980,-0.0572,-0.9213,-0.2916
10.2980,-0.0572,-0.9213,-0.2916
10.3120,-0.0503,-0.9257,-0.2935
10.3130,-0.0503,-0.9257,-0.2935
10.3130,-0.0503,-0.9257,-0.2935
10.3380,-0.0269,-0.9201,-0.3013
10.3390,-0.0269,-0.9201,-0.3013
10.3390,-0.0269,-0.9201,-0.3013
10.3520,-0.0100,-0.9162,-0.3008
10.3520,-0.0100,-0.9162,-0.3008
10.3530,-0.0100,-0.9162,-0.3008
10.3750,-0.0240,-0.9182,-0.3060
10.3750,-0.0240,-0.9182,-0.3060
10.3760,-0.0240,-0.9182,-0.3060
10.3770,-0.0240,-0.9182,-0.3060
10.3770,-0.0240,-0.9182,-0.3060
10.3910,-0.0230,-0.9260,-0.3028
10.3920,-0.0230,-0.9260,-0.3028
10.3920,-0.0230,-0.9260,-0.3028
10.4120,-0.0266,-0.9209,-0.2862
10.4150,-0.0266,-0.9209,-0.2862
10.4160,-0.0266,-0.9209,-0.2862
10.4790,-0.0315,-0.9123,-0.2810
10.4790,-0.0315,-0.9123,-0.2810
10.4790,-0.0315,-0.9123,-0.2810
10.4800,-0.0315,-0.9123,-0.2810
10.4800,-0.0137,-0.9135,-0.2801
10.4800,-0.0137,-0.9135,-0.2801
10.4800,-0.0137,-0.9135,-0.2801
10.4810,-0.0137,-0.9135,-0.2801
10.4810,-0.0137,-0.9135,-0.2801
10.4810,-0.0396,-0.9096,-0.2766
10.4810,-0.0396,-0.9096,-0.2766
10.4810,-0.0396,-0.9096,-0.2766
10.4890,-0.0697,-0.9042,-0.2862
10.4890,-0.0697,-0.9042,-0.2862
10.4890,-0.0697,-0.9042,-0.2862
10.5080,-0.0445,-0.9069,-0.2979
10.5080,-0.0445,-0.9069,-0.2979
10.5090,-0.0445,-0.9069,-0.2979
10.5280,-0.0237,-0.9231,-0.2842
10.5280,-0.0237,-0.9231,-0.2842
10.5280,-0.0237,-0.9231,-0.2842
10.5310,-0.0237,-0.9231,-0.2842
10.5310,-0.0237,-0.9231,-0.2842
10.5520,-0.0616,-0.9194,-0.2859
10.5520,-0.0616,-0.9194,-0.2859
10.5520,-0.0616,-0.9194,-0.2859
10.5690,-0.0682,-0.9099,-0.2918
10.5690,-0.0682,-0.9099,-0.2918
10.5700,-0.0682,-0.9099,-0.2918
10.5900,-0.0428,-0.9174,-0.3160
10.5900,-0.0428,-0.9174,-0.3160
10.5910,-0.0428,-0.9174,-0.3160
10.6120,-0.0506,-0.9126,-0.3048
10.6120,-0.0506,-0.9126,-0.3048
10.6130,-0.0506,-0.9126,-0.3048
10.6130,-0.0506,-0.9126,-0.3048
10.6140,-0.0506,-0.9126,-0.3048
10.6290,-0.0479,-0.9128,-0.3050
10.6300,-0.0479,-0.9128,-0.3050
10.6300,-0.0479,-0.9128,-0.3050
10.6310,-0.0479,-0.9128,-0.3050
10.6480,-0.0291,-0.9111,-0.3067
10.6500,-0.0291,-0.9111,-0.3067
10.6500,-0.0291,-0.9111,-0.3067
10.6700,-0.0340,-0.9055,-0.2903
10.6700,-0.0340,-0.9055,-0.2903
10.6710,-0.0340,-0.9055,-0.2903
10.6930,-0.0533,-0.9067,-0.2842
10.6940,-0.0533,-0.9067,-0.2842
10.6940,-0.0533,-0.9067,-0.2842
10.6950,-0.0533,-0.9067,-0.2842
10.6970,-0.0533,-0.9067,-0.2842
10.7120,-0.0332,-0.9165,-0.2859
10.7130,-0.0332,-0.9165,-0.2859
10.7130,-0.0332,-0.9165,-0.2859
10.7320,-0.0323,-0.9289,-0.2769
10.7330,-0.0323,-0.9289,-0.2769
10.7330,-0.0323,-0.9289,-0.2769
10.7530,-0.0379,-0.9238,-0.2754
10.7530,-0.0379,-0.9238,-0.2754
10.7540,-0.0379,-0.9238,-0.2754
10.7720,-0.0415,-0.9155,-0.2813
10.7720,-0.0415,-0.9155,-0.2813
10.7730,-0.0415,-0.9155,-0.2813
10.7740,-0.0415,-0.9155,-0.2813
10.7740,-0.0415,-0.9155,-0.2813
10.7890,-0.0367,-0.9060,-0.2911
10.7900,-0.0367,-0.9060,-0.2911
10.7900,-0.0367,-0.9060,-0.2911
10.8110,-0.0340,-0.9079,-0.2964
10.8110,-0.0340,-0.9079,-0.2964
10.8120,-0.0340,-0.9079,-0.2964
10.8310,-0.0494,-0.9123,-0.2928
10.8320,-0.0494,-0.9123,-0.2928
10.8320,-0.0494,-0.9123,-0.2928
10.8330,-0.0494,-0.9123,-0.2928
10.8520,-0.0452,-0.9133,-0.2930
10.8520,-0.0452,-0.9133,-0.2930
10.8530,-0.0452,-0.9133,-0.2930
10.8550,-0.0452,-0.9133,-0.2930
10.8550,-0.0452,-0.9133,-0.2930
10.8560,-0.0452,-0.9133,-0.2930
10.8710,-0.0261,-0.9140,-0.2982
10.8720,-0.0261,-0.9140,-0.2982
10.8720,-0.0261,-0.9140,-0.2982
10.8910,-0.0257,-0.9035,-0.3067
10.8910,-0.0257,-0.9035,-0.3067
10.8920,-0.0257,-0.9035,-0.3067
10.9150,-0.0525,-0.9106,-0.2908
10.9160,-0.0525,-0.9106,-0.2908
10.9160,-0.0525,-0.9106,-0.2908
10.9290,-0.0413,-0.9006,-0.3062
10.9290,-0.0413,-0.9006,-0.3062
10.9320,-0.0413,-0.9006,-0.3062
10.9330,-0.0413,-0.9006,-0.3062
10.9340,-0.0413,-0.9006,-0.3062
10.9540,-0.0313,-0.9096,-0.2999
10.9550,-0.0313,-0.9096,-0.2999
10.9550,-0.0313,-0.9096,-0.2999
10.9720,-0.0425,-0.9262,-0.2847
11.0370,-0.0425,-0.9262,-0.2847
11.0370,-0.0425,-0.9262,-0.2847
11.0370,-0.0562,-0.9204,-0.2923
11.0370,-0.0562,-0.9204,-0.2923
11.0380,-0.0562,-0.9204,-0.2923
11.0380,-0.0528,-0.9150,-0.2967
11.0380,-0.0528,-0.9150,-0.2967
11.0380,-0.0528,-0.9150,-0.2967
11.0380,-0.0528,-0.9150,-0.2967
11.0380,-0.0528,-0.9150,-0.2967
11.0390,-0.0538,-0.9111,-0.2977
11.0390,-0.0538,-0.9111,-0.2977
11.0390,-0.0538,-0.9111,-0.2977
11.0390,-0.0538,-0.9111,-0.2977
11.0460,-0.0494,-0.9121,-0.2994
11.0460,-0.0494,-0.9121,-0.2994
11.0460,-0.0494,-0.9121,-0.2994
11.0660,-0.0384,-0.9155,-0.2901
11.0660,-0.0384,-0.9155,-0.2901
11.0660,-0.0384,-0.9155,-0.2901
11.0860,-0.0371,-0.9309,-0.2952
11.0860,-0.0371,-0.9309,-0.2952
11.0860,-0.0371,-0.9309,-0.2952
11.0890,-0.0371,-0.9309,-0.2952
11.0890,-0.0371,-0.9309,-0.2952
11.1060,-0.0349,-0.9262,-0.3048
11.1070,-0.0349,-0.9262,-0.3048
11.1070,-0.0349,-0.9262,-0.3048
11.1280,-0.0320,-0.9174,-0.2938
11.1290,-0.0320,-0.9174,-0.2938
11.1290,-0.0320,-0.9174,-0.2938
11.1480,-0.0408,-0.9148,-0.2808
11.1480,-0.0408,-0.9148,-0.2808
11.1490,-0.0408,-0.9148,-0.2808
11.1730,-0.0472,-0.9126,-0.2913
11.1730,-0.0472,-0.9126,-0.2913
11.1740,-0.0472,-0.9126,-0.2913
11.1750,-0.0472,-0.9126,-0.2913
11.1750,-0.0472,-0.9126,-0.2913
11.1900,-0.0369,-0.9133,-0.3114
11.1940,-0.0369,-0.9133,-0.3114
11.1950,-0.0369,-0.9133,-0.3114
11.2110,-0.0457,-0.9084,-0.2996
11.2120,-0.0457,-0.9084,-0.2996
11.2150,-0.0457,-0.9084,-0.2996
11.2300,-0.0430,-0.9077,-0.3004
11.2310,-0.0430,-0.9077,-0.3004
11.2320,-0.0430,-0.9077,-0.3004
11.2340,-0.0430,-0.9077,-0.3004
11.2480,-0.0386,-0.9150,-0.3016
11.2490,-0.0386,-0.9150,-0.3016
11.2500,-0.0386,-0.9150,-0.3016
11.2500,-0.0386,-0.9150,-0.3016
11.2510,-0.0386,-0.9150,-0.3016
11.2670,-0.0330,-0.9189,-0.2986
11.2680,-0.0330,-0.9189,-0.2986
11.2680,-0.0330,-0.9189,-0.2986
11.2900,-0.0374,-0.9084,-0.2955
11.2900,-0.0374,-0.9084,-0.2955
11.2910,-0.0374,-0.9084,-0.2955
11.3080,-0.0701,-0.8952,-0.2854
11.3080,-0.0701,-0.8952,-0.2854
11.3110,-0.0701,-0.8952,-0.2854
11.3280,-0.0560,-0.8928,-0.3060
11.3290,-0.0560,-0.8928,-0.3060
11.3290,-0.0560,-0.8928,-0.3060
11.3330,-0.0560,-0.8928,-0.3060
11.3340,-0.0560,-0.8928,-0.3060
11.3520,-0.0305,-0.9184,-0.2947
11.3520,-0.0305,-0.9184,-0.2947
11.3550,-0.0305,-0.9184,-0.2947
11.3690,-0.0393,-0.9333,-0.2881
11.3700,-0.0393,-0.9333,-0.2881
11.3710,-0.0393,-0.9333,-0.2881
11.3860,-0.0183,-0.9184,-0.2928
11.3860,-0.0183,-0.9184,-0.2928
11.3910,-0.0183,-0.9184,-0.2928
11.4080,-0.0347,-0.8981,-0.3077
11.4090,-0.0347,-0.8981,-0.3077
11.4090,-0.0347,-0.8981,-0.3077
11.4110,-0.0347,-0.8981,-0.3077
11.4120,-0.0347,-0.8981,-0.3077
11.4290,-0.0428,-0.9003,-0.3004
11.4300,-0.0428,-0.9003,-0.3004
11.4300,-0.0428,-0.9003,-0.3004
11.4300,-0.0428,-0.9003,-0.3004
11.4470,-0.0423,-0.9148,-0.3001
11.4480,-0.0423,-0.9148,-0.3001
11.4480,-0.0423,-0.9148,-0.3001
11.4660,-0.0565,-0.9130,-0.2898
11.4670,-0.0565,-0.9130,-0.2898
11.4710,-0.0565,-0.9130,-0.2898
11.4860,-0.0552,-0.9167,-0.2974
11.4870,-0.0552,-0.9167,-0.2974
11.4870,-0.0552,-0.9167,-0.2974
11.4880,-0.0552,-0.9167,-0.2974
11.4890,-0.0552,-0.9167,-0.2974
11.5060,-0.0499,-0.9287,-0.3050
11.5100,-0.0499,-0.9287,-0.3050
11.5110,-0.0499,-0.9287,-0.3050
11.5960,-0.0662,-0.9157,-0.3001
11.5960,-0.0662,-0.9157,-0.3001
11.5960,-0.0662,-0.9157,-0.3001
11.5970,-0.0667,-0.9040,-0.3038
11.5970,-0.0667,-0.9040,-0.3038
11.5970,-0.0667,-0.9040,-0.3038
11.5970,-0.0557,-0.9174,-0.2940
11.5970,-0.0557,-0.9174,-0.2940
11.5970,-0.0557,-0.9174,-0.2940
11.5980,-0.0557,-0.9174,-0.2940
11.5980,-0.0557,-0.9174,-0.2940
11.5980,-0.0445,-0.9257,-0.2913
11.5980,-0.0445,-0.9257,-0.2913
11.5980,-0.0445,-0.9257,-0.2913
11.6030,-0.0386,-0.9062,-0.3033
11.6040,-0.0386,-0.9062,-0.3033
11.6040,-0.0386,-0.9062,-0.3033
11.6220,-0.0552,-0.9047,-0.3138
11.6230,-0.0552,-0.9047,-0.3138
11.6230,-0.0552,-0.9047,-0.3138
11.6230,-0.0552,-0.9047,-0.3138
11.6430,-0.0643,-0.9165,-0.3043
11.6430,-0.0643,-0.9165,-0.3043
11.6430,-0.0643,-0.9165,-0.3043
11.6460,-0.0643,-0.9165,-0.3043
11.6460,-0.0643,-0.9165,-0.3043
11.6630,-0.0261,-0.9287,-0.3001
11.6640,-0.0261,-0.9287,-0.3001
11.6640,-0.0261,-0.9287,-0.3001
11.6840,-0.0249,-0.9243,-0.2894
11.6840,-0.0249,-0.9243,-0.2894
11.6850,-0.0249,-0.9243,-0.2894
11.7050,-0.0455,-0.8981,-0.2857
11.7050,-0.0455,-0.8981,-0.2857
11.7060,-0.0455,-0.8981,-0.2857
11.7240,-0.0403,-0.8989,-0.2920
11.7250,-0.0403,-0.8989,-0.2920
11.7260,-0.0403,-0.8989,-0.2920
11.7260,-0.0403,-0.8989,-0.2920
11.7270,-0.0403,-0.8989,-0.2920
11.7450,-0.0486,-0.9143,-0.2923
11.7450,-0.0486,-0.9143,-0.2923
11.7470,-0.0486,-0.9143,-0.2923
11.7650,-0.0535,-0.9082,-0.2989
11.7650,-0.0535,-0.9082,-0.2989
11.7660,-0.0535,-0.9082,-0.2989
11.7860,-0.0420,-0.9116,-0.3004
11.7860,-0.0420,-0.9116,-0.3004
11.7870,-0.0420,-0.9116,-0.3004
11.8040,-0.0428,-0.9275,-0.2854
11.8050,-0.0428,-0.9275,-0.2854
11.8060,-0.0428,-0.9275,-0.2854
11.8070,-0.0428,-0.9275,-0.2854
11.8100,-0.0428,-0.9275,-0.2854
11.8230,-0.0386,-0.9138,-0.3060
11.8240,-0.0386,-0.9138,-0.3060
11.8240,-0.0386,-0.9138,-0.3060
11.8240,-0.0386,-0.9138,-0.3060
11.8450,-0.0362,-0.8967,-0.3175
11.8450,-0.0362,-0.8967,-0.3175
11.8460,-0.0362,-0.8967,-0.3175
11.8650,-0.0440,-0.8898,-0.3316
11.8660,-0.0440,-0.8898,-0.3316
11.8660,-0.0440,-0.8898,-0.3316
11.8850,-0.0489,-0.9062,-0.3133
11.8870,-0.0489,-0.9062,-0.3133
11.8890,-0.0489,-0.9062,-0.3133
11.8920,-0.0489,-0.9062,-0.3133
11.8930,-0.0489,-0.9062,-0.3133
11.9050,-0.0413,-0.9160,-0.3052
11.9060,-0.0413,-0.9160,-0.3052
11.9060,-0.0413,-0.9160,-0.3052
11.9230,-0.0481,-0.9057,-0.2891
11.9240,-0.0481,-0.9057,-0.2891
11.9240,-0.0481,-0.9057,-0.2891
11.9420,-0.0604,-0.9030,-0.2911
11.9430,-0.0604,-0.9030,-0.2911
11.9430,-0.0604,-0.9030,-0.2911
11.9620,-0.0596,-0.9104,-0.2994
11.9630,-0.0596,-0.9104,-0.2994
11.9640,-0.0596,-0.9104,-0.2994
11.9640,-0.0596,-0.9104,-0.2994
11.9650,-0.0596,-0.9104,-0.2994
11.9820,-0.0574,-0.9116,-0.2964
11.9830,-0.0574,-0.9116,-0.2964
11.9830,-0.0574,-0.9116,-0.2964
12.0020,-0.0616,-0.9082,-0.2989
12.0030,-0.0616,-0.9082,-0.2989
12.0030,-0.0616,-0.9082,-0.2989
12.0240,-0.0503,-0.9025,-0.3126
12.0240,-0.0503,-0.9025,-0.3126
12.0250,-0.0503,-0.9025,-0.3126
12.0250,-0.0503,-0.9025,-0.3126
12.0420,-0.0516,-0.9008,-0.3236
12.0450,-0.0516,-0.9008,-0.3236
12.0450,-0.0516,-0.9008,-0.3236
12.0520,-0.0516,-0.9008,-0.3236
12.0520,-0.0516,-0.9008,-0.3236
12.0600,-0.0513,-0.9113,-0.3175
12.0610,-0.0513,-0.9113,-0.3175
12.1330,-0.0513,-0.9113,-0.3175
12.1330,-0.0547,-0.9116,-0.3140
12.1330,-0.0547,-0.9116,-0.3140
12.1340,-0.0547,-0.9116,-0.3140
12.1340,-0.0499,-0.9003,-0.3148
12.1340,-0.0499,-0.9003,-0.3148
12.1340,-0.0499,-0.9003,-0.3148
12.1340,-0.0357,-0.9113,-0.3016
12.1340,-0.0357,-0.9113,-0.3016
12.1350,-0.0357,-0.9113,-0.3016
12.1350,-0.0357,-0.9113,-0.3016
12.1350,-0.0357,-0.9113,-0.3016
12.1400,-0.0367,-0.9106,-0.2898
12.1400,-0.0367,-0.9106,-0.2898
12.1400,-0.0367,-0.9106,-0.2898
12.1650,-0.0281,-0.9126,-0.2876
12.1650,-0.0281,-0.9126,-0.2876
12.1660,-0.0281,-0.9126,-0.2876
12.1800,-0.0279,-0.9152,-0.3033
12.1800,-0.0279,-0.9152,-0.3033
12.1810,-0.0279,-0.9152,-0.3033
12.2030,-0.0445,-0.9074,-0.3160
12.2030,-0.0445,-0.9074,-0.3160
12.2040,-0.0445,-0.9074,-0.3160
12.2040,-0.0445,-0.9074,-0.3160
12.2050,-0.0445,-0.9074,-0.3160
12.2210,-0.0367,-0.9135,-0.3155
12.2230,-0.0367,-0.9135,-0.3155
12.2240,-0.0367,-0.9135,-0.3155
12.2250,-0.0367,-0.9135,-0.3155
12.2400,-0.0457,-0.9211,-0.3021
12.2410,-0.0457,-0.9211,-0.3021
12.2410,-0.0457,-0.9211,-0.3021
12.2590,-0.0626,-0.9118,-0.3106
12.2590,-0.0626,-0.9118,-0.3106
12.2600,-0.0626,-0.9118,-0.3106
12.2800,-0.0276,-0.9055,-0.3204
12.2800,-0.0276,-0.9055,-0.3204
12.2810,-0.0276,-0.9055,-0.3204
12.2830,-0.0276,-0.9055,-0.3204
12.2830,-0.0276,-0.9055,-0.3204
12.3000,-0.0308,-0.9245,-0.3045
12.3000,-0.0308,-0.9245,-0.3045
12.3010,-0.0308,-0.9245,-0.3045
12.3250,-0.0643,-0.9089,-0.3074
12.3250,-0.0643,-0.9089,-0.3074
12.3260,-0.0643,-0.9089,-0.3074
12.3420,-0.0447,-0.8925,-0.3153
12.3440,-0.0447,-0.8925,-0.3153
12.3440,-0.0447,-0.8925,-0.3153
12.3620,-0.0445,-0.9157,-0.2923
12.3630,-0.0445,-0.9157,-0.2923
12.3630,-0.0445,-0.9157,-0.2923
12.3680,-0.0445,-0.9157,-0.2923
12.3680,-0.0445,-0.9157,-0.2923
12.3780,-0.0516,-0.9150,-0.2891
12.3790,-0.0516,-0.9150,-0.2891
12.3790,-0.0516,-0.9150,-0.2891
12.3970,-0.0447,-0.9025,-0.3160
12.3980,-0.0447,-0.9025,-0.3160
12.3980,-0.0447,-0.9025,-0.3160
12.4180,-0.0181,-0.9067,-0.3077
12.4180,-0.0181,-0.9067,-0.3077
12.4190,-0.0181,-0.9067,-0.3077
12.4190,-0.0181,-0.9067,-0.3077
12.4370,-0.0230,-0.9047,-0.3094
12.4380,-0.0230,-0.9047,-0.3094
12.4390,-0.0230,-0.9047,-0.3094
12.4410,-0.0230,-0.9047,-0.3094
12.4410,-0.0230,-0.9047,-0.3094
12.4570,-0.0762,-0.8788,-0.3023
12.4580,-0.0762,-0.8788,-0.3023
12.4580,-0.0762,-0.8788,-0.3023
12.4780,-0.0565,-0.8932,-0.3114
12.4790,-0.0565,-0.8932,-0.3114
12.4790,-0.0565,-0.8932,-0.3114
12.4990,-0.0254,-0.9245,-0.3104
12.4990,-0.0254,-0.9245,-0.3104
12.4990,-0.0254,-0.9245,-0.3104
12.5180,-0.0491,-0.9089,-0.3094
12.5180,-0.0491,-0.9089,-0.3094
12.5190,-0.0491,-0.9089,-0.3094
12.5200,-0.0491,-0.9089,-0.3094
12.5200,-0.0491,-0.9089,-0.3094
12.5370,-0.0631,-0.8954,-0.3133
12.5380,-0.0631,-0.8954,-0.3133
12.5380,-0.0631,-0.8954,-0.3133
12.5570,-0.0525,-0.9094,-0.3148
12.5580,-0.0525,-0.9094,-0.3148
12.5580,-0.0525,-0.9094,-0.3148
12.5770,-0.0462,-0.9262,-0.3089
12.5770,-0.0462,-0.9262,-0.3089
12.5780,-0.0462,-0.9262,-0.3089
12.5970,-0.0525,-0.9279,-0.3101
12.5980,-0.0525,-0.9279,-0.3101
12.5990,-0.0525,-0.9279,-0.3101
12.5990,-0.0525,-0.9279,-0.3101
12.6000,-0.0525,-0.9279,-0.3101
12.6160,-0.0494,-0.9204,-0.3106
12.6160,-0.0494,-0.9204,-0.3106
12.6860,-0.0494,-0.9204,-0.3106
12.6860,-0.0494,-0.9204,-0.3106
12.6870,-0.0447,-0.9118,-0.3162
12.6870,-0.0447,-0.9118,-0.3162
12.6870,-0.0447,-0.9118,-0.3162
12.6870,-0.0371,-0.9042,-0.3250
12.6870,-0.0371,-0.9042,-0.3250
12.6870,-0.0371,-0.9042,-0.3250
12.6880,-0.0420,-0.8940,-0.3138
12.6880,-0.0420,-0.8940,-0.3138
12.6880,-0.0420,-0.8940,-0.3138
12.6880,-0.0420,-0.8940,-0.3138
12.6880,-0.0420,-0.8940,-0.3138
12.6960,-0.0452,-0.8896,-0.3067
12.6960,-0.0452,-0.8896,-0.3067
12.6960,-0.0452,-0.8896,-0.3067
12.7150,-0.0455,-0.8913,-0.3126
12.7150,-0.0455,-0.8913,-0.3126
12.7160,-0.0455,-0.8913,-0.3126
12.7360,-0.0418,-0.9040,-0.3228
12.7360,-0.0418,-0.9040,-0.3228
12.7360,-0.0418,-0.9040,-0.3228
12.7550,-0.0349,-0.9213,-0.3153
12.7550,-0.0349,-0.9213,-0.3153
12.7550,-0.0349,-0.9213,-0.3153
12.7600,-0.0349,-0.9213,-0.3153
12.7600,-0.0349,-0.9213,-0.3153
12.7760,-0.0386,-0.9150,-0.3082
12.7770,-0.0386,-0.9150,-0.3082
12.7770,-0.0386,-0.9150,-0.3082
12.7950,-0.0418,-0.8959,-0.3128
12.7960,-0.0418,-0.8959,-0.3128
12.7960,-0.0418,-0.8959,-0.3128
12.8150,-0.0386,-0.9062,-0.3096
12.8160,-0.0386,-0.9062,-0.3096
12.8160,-0.0386,-0.9062,-0.3096
12.8160,-0.0386,-0.9062,-0.3096
12.8360,-0.0305,-0.9326,-0.3062
12.8360,-0.0305,-0.9326,-0.3062
12.8370,-0.0305,-0.9326,-0.3062
12.8380,-0.0305,-0.9326,-0.3062
12.8380,-0.0305,-0.9326,-0.3062
12.8560,-0.0176,-0.9284,-0.3060
12.8560,-0.0176,-0.9284,-0.3060
12.8570,-0.0176,-0.9284,-0.3060
12.8750,-0.0220,-0.9086,-0.3016
12.8760,-0.0220,-0.9086,-0.3016
12.8760,-0.0220,-0.9086,-0.3016
12.8960,-0.0059,-0.9148,-0.2913
12.8970,-0.0059,-0.9148,-0.2913
12.8970,-0.0059,-0.9148,-0.2913
12.9170,0.0083,-0.9091,-0.3109
12.9190,0.0083,-0.9091,-0.3109
12.9200,0.0083,-0.9091,-0.3109
12.9200,0.0083,-0.9091,-0.3109
12.9210,0.0083,-0.9091,-0.3109
12.9350,-0.0474,-0.8959,-0.3231
12.9350,-0.0474,-0.8959,-0.3231
12.9360,-0.0474,-0.8959,-0.3231
12.9550,-0.0794,-0.8940,-0.3531
12.9550,-0.0794,-0.8940,-0.3531
12.9560,-0.0794,-0.8940,-0.3531
12.9740,-0.0447,-0.9223,-0.3470
12.9750,-0.0447,-0.9223,-0.3470
12.9750,-0.0447,-0.9223,-0.3470
12.9970,-0.0679,-0.9272,-0.3143
12.9980,-0.0679,-0.9272,-0.3143
12.9990,-0.0679,-0.9272,-0.3143
13.0000,-0.0679,-0.9272,-0.3143
13.0010,-0.0679,-0.9272,-0.3143
13.0150,-0.0782,-0.9025,-0.3092
13.0150,-0.0782,-0.9025,-0.3092
13.0160,-0.0782,-0.9025,-0.3092
13.0170,-0.0782,-0.9025,-0.3092
13.0350,-0.0569,-0.8864,-0.3243
13.0360,-0.0569,-0.8864,-0.3243
13.0370,-0.0569,-0.8864,-0.3243
13.0540,-0.0474,-0.8915,-0.3180
13.0550,-0.0474,-0.8915,-0.3180
13.0550,-0.0474,-0.8915,-0.3180
13.0740,-0.0594,-0.9020,-0.3096
13.0750,-0.0594,-0.9020,-0.3096
13.0750,-0.0594,-0.9020,-0.3096
13.0770,-0.0594,-0.9020,-0.3096
13.0770,-0.0594,-0.9020,-0.3096
13.0950,-0.0525,-0.9050,-0.3021
13.0960,-0.0525,-0.9050,-0.3021
13.0970,-0.0525,-0.9050,-0.3021
13.1140,-0.0499,-0.9045,-0.2950
13.1150,-0.0499,-0.9045,-0.2950
13.1150,-0.0499,-0.9045,-0.2950
13.1360,-0.0459,-0.9033,-0.3048
13.1370,-0.0459,-0.9033,-0.3048
13.1380,-0.0459,-0.9033,-0.3048
13.1550,-0.0362,-0.9167,-0.3067
13.1550,-0.0362,-0.9167,-0.3067
13.1560,-0.0362,-0.9167,-0.3067
13.1570,-0.0362,-0.9167,-0.3067
13.1570,-0.0362,-0.9167,-0.3067
13.1740,-0.0467,-0.9216,-0.3128
13.2390,-0.0467,-0.9216,-0.3128
13.2390,-0.0467,-0.9216,-0.3128
13.2400,-0.0359,-0.9133,-0.3358
13.2400,-0.0359,-0.9133,-0.3358
13.2400,-0.0359,-0.9133,-0.3358
13.2400,-0.0359,-0.9133,-0.3358
13.2400,-0.0301,-0.9126,-0.3348
13.2400,-0.0301,-0.9126,-0.3348
13.2400,-0.0301,-0.9126,-0.3348
13.2410,-0.0335,-0.9118,-0.3170
13.2410,-0.0335,-0.9118,-0.3170
13.2410,-0.0335,-0.9118,-0.3170
13.2410,-0.0335,-0.9118,-0.3170
13.2410,-0.0335,-0.9118,-0.3170
13.2510,-0.0288,-0.9116,-0.3116
13.2520,-0.0288,-0.9116,-0.3116
13.2520,-0.0288,-0.9116,-0.3116
13.2720,-0.0252,-0.9121,-0.3126
13.2720,-0.0252,-0.9121,-0.3126
13.2730,-0.0252,-0.9121,-0.3126
13.2920,-0.0337,-0.9133,-0.3013
13.2920,-0.0337,-0.9133,-0.3013
13.2920,-0.0337,-0.9133,-0.3013
13.3140,-0.0447,-0.9084,-0.2986
13.3150,-0.0447,-0.9084,-0.2986
13.3160,-0.0447,-0.9084,-0.2986
13.3160,-0.0447,-0.9084,-0.2986
13.3170,-0.0447,-0.9084,-0.2986
13.3330,-0.0567,-0.9001,-0.3109
13.3330,-0.0567,-0.9001,-0.3109
13.3340,-0.0567,-0.9001,-0.3109
13.3540,-0.0684,-0.9052,-0.3170
13.3550,-0.0684,-0.9052,-0.3170
13.3580,-0.0684,-0.9052,-0.3170
13.3730,-0.0525,-0.9038,-0.3245
13.3740,-0.0525,-0.9038,-0.3245
13.3740,-0.0525,-0.9038,-0.3245
13.3940,-0.0357,-0.9101,-0.3189
13.3940,-0.0357,-0.9101,-0.3189
13.3950,-0.0357,-0.9101,-0.3189
13.3970,-0.0357,-0.9101,-0.3189
13.3970,-0.0357,-0.9101,-0.3189
13.4140,-0.0357,-0.9101,-0.3189
13.4140,-0.0393,-0.9155,-0.3043
13.4150,-0.0393,-0.9155,-0.3043
13.4170,-0.0393,-0.9155,-0.3043
13.4320,-0.0232,-0.8994,-0.3219
13.4320,-0.0232,-0.8994,-0.3219
13.4330,-0.0232,-0.8994,-0.3219
13.4540,-0.0152,-0.8822,-0.3373
13.4550,-0.0152,-0.8822,-0.3373
13.4550,-0.0152,-0.8822,-0.3373
13.4740,-0.0384,-0.8725,-0.3311
13.4740,-0.0384,-0.8725,-0.3311
13.4770,-0.0384,-0.8725,-0.3311
13.4770,-0.0384,-0.8725,-0.3311
13.4780,-0.0384,-0.8725,-0.3311
13.4930,-0.0540,-0.8844,-0.3167
13.4940,-0.0540,-0.8844,-0.3167
13.4940,-0.0540,-0.8844,-0.3167
13.5120,-0.0587,-0.9028,-0.3106
13.5130,-0.0587,-0.9028,-0.3106
13.5130,-0.0587,-0.9028,-0.3106
13.5350,-0.0550,-0.9223,-0.3082
13.5350,-0.0550,-0.9223,-0.3082
13.5360,-0.0550,-0.9223,-0.3082
13.5550,-0.0609,-0.9174,-0.3143
13.5560,-0.0609,-0.9174,-0.3143
13.5560,-0.0609,-0.9174,-0.3143
13.5570,-0.0609,-0.9174,-0.3143
13.5580,-0.0609,-0.9174,-0.3143
13.5740,-0.0574,-0.9003,-0.3136
13.5740,-0.0574,-0.9003,-0.3136
13.5750,-0.0574,-0.9003,-0.3136
13.5940,-0.0579,-0.8935,-0.3126
13.5980,-0.0579,-0.8935,-0.3126
13.5980,-0.0579,-0.8935,-0.3126
13.6100,-0.0579,-0.8935,-0.3126
13.6110,-0.0538,-0.9072,-0.3106
13.6110,-0.0538,-0.9072,-0.3106
13.6120,-0.0538,-0.9072,-0.3106
13.6350,-0.0396,-0.9150,-0.3111
13.6360,-0.0396,-0.9150,-0.3111
13.6370,-0.0396,-0.9150,-0.3111
13.6370,-0.0396,-0.9150,-0.3111
13.6380,-0.0396,-0.9150,-0.3111
13.6390,-0.0396,-0.9150,-0.3111
13.6510,-0.0327,-0.9047,-0.3177
13.6520,-0.0327,-0.9047,-0.3177
13.6520,-0.0327,-0.9047,-0.3177
13.6720,-0.0418,-0.8962,-0.3189
13.6740,-0.0418,-0.8962,-0.3189
13.6740,-0.0418,-0.8962,-0.3189
13.6920,-0.0455,-0.9025,-0.3233
13.6930,-0.0455,-0.9025,-0.3233
13.6940,-0.0455,-0.9025,-0.3233
13.7130,-0.0342,-0.9187,-0.3260
13.7130,-0.0342,-0.9187,-0.3260
13.7140,-0.0342,-0.9187,-0.3260
13.7150,-0.0342,-0.9187,-0.3260
13.7900,-0.0342,-0.9187,-0.3260
13.7900,-0.0513,-0.9191,-0.3145
13.7900,-0.0513,-0.9191,-0.3145
13.7910,-0.0513,-0.9191,-0.3145
13.7910,-0.0628,-0.9067,-0.3167
13.7910,-0.0628,-0.9067,-0.3167
13.7910,-0.0628,-0.9067,-0.3167
13.7910,-0.0457,-0.9067,-0.3182
13.7920,-0.0457,-0.9067,-0.3182
13.7930,-0.0457,-0.9067,-0.3182
13.7940,-0.0464,-0.9116,-0.3172
13.7940,-0.0464,-0.9116,-0.3172
13.7940,-0.0464,-0.9116,-0.3172
13.7940,-0.0464,-0.9116,-0.3172
13.7940,-0.0464,-0.9116,-0.3172
13.8100,-0.0464,-0.9116,-0.3172
13.8100,-0.0516,-0.9096,-0.3162
13.8100,-0.0516,-0.9096,-0.3162
13.8110,-0.0516,-0.9096,-0.3162
13.8330,-0.0501,-0.9038,-0.3214
13.8340,-0.0501,-0.9038,-0.3214
13.8340,-0.0501,-0.9038,-0.3214
13.8510,-0.0516,-0.9042,-0.3241
13.8510,-0.0516,-0.9042,-0.3241
13.8520,-0.0516,-0.9042,-0.3241
13.8710,-0.0469,-0.9211,-0.3128
13.8710,-0.0469,-0.9211,-0.3128
13.8720,-0.0469,-0.9211,-0.3128
13.8730,-0.0469,-0.9211,-0.3128
13.8730,-0.0469,-0.9211,-0.3128
13.8900,-0.0464,-0.9118,-0.3133
13.8900,-0.0464,-0.9118,-0.3133
13.8910,-0.0464,-0.9118,-0.3133
13.9110,-0.0323,-0.9106,-0.3077
13.9110,-0.0323,-0.9106,-0.3077
13.9120,-0.0323,-0.9106,-0.3077
13.9310,-0.0523,-0.9121,-0.3052
13.9310,-0.0523,-0.9121,-0.3052
13.9320,-0.0523,-0.9121,-0.3052
13.9530,-0.0521,-0.9042,-0.3123
13.9540,-0.0521,-0.9042,-0.3123
13.9550,-0.0521,-0.9042,-0.3123
13.9560,-0.0521,-0.9042,-0.3123
13.9560,-0.0521,-0.9042,-0.3123
13.9720,-0.0677,-0.9003,-0.3101
13.9720,-0.0677,-0.9003,-0.3101
13.9750,-0.0677,-0.9003,-0.3101
13.9940,-0.0305,-0.9062,-0.3170
13.9950,-0.0305,-0.9062,-0.3170
13.9960,-0.0305,-0.9062,-0.3170
14.0120,-0.0305,-0.9062,-0.3170
14.0140,-0.0274,-0.9013,-0.3035
14.0150,-0.0274,-0.9013,-0.3035
14.0160,-0.0274,-0.9013,-0.3035
14.0310,-0.0425,-0.8884,-0.3353
14.0340,-0.0425,-0.8884,-0.3353
14.0340,-0.0425,-0.8884,-0.3353
14.0350,-0.0425,-0.8884,-0.3353
14.0360,-0.0425,-0.8884,-0.3353
14.0510,-0.0230,-0.9047,-0.3253
14.0520,-0.0230,-0.9047,-0.3253
14.0520,-0.0230,-0.9047,-0.3253
14.0730,-0.0403,-0.9126,-0.3304
14.0740,-0.0403,-0.9126,-0.3304
14.0750,-0.0403,-0.9126,-0.3304
14.0920,-0.0579,-0.9064,-0.3409
14.0920,-0.0579,-0.9064,-0.3409
14.0930,-0.0579,-0.9064,-0.3409
14.1140,-0.0638,-0.9028,-0.3170
14.1150,-0.0638,-0.9028,-0.3170
14.1160,-0.0638,-0.9028,-0.3170
14.1160,-0.0638,-0.9028,-0.3170
14.1170,-0.0638,-0.9028,-0.3170
14.1310,-0.0533,-0.8967,-0.2889
14.1320,-0.0533,-0.8967,-0.2889
14.1330,-0.0533,-0.8967,-0.2889
14.1520,-0.0657,-0.8994,-0.2779
14.1530,-0.0657,-0.8994,-0.2779
14.1540,-0.0657,-0.8994,-0.2779
14.1720,-0.0631,-0.9052,-0.2891
14.1730,-0.0631,-0.9052,-0.2891
14.1730,-0.0631,-0.9052,-0.2891
14.1910,-0.0596,-0.9033,-0.3363
14.1920,-0.0596,-0.9033,-0.3363
14.1930,-0.0596,-0.9033,-0.3363
14.1940,-0.0596,-0.9033,-0.3363
14.1940,-0.0596,-0.9033,-0.3363
14.2090,-0.0596,-0.9033,-0.3363
14.2100,-0.0540,-0.8991,-0.3380
14.2110,-0.0540,-0.8991,-0.3380
14.2110,-0.0540,-0.8991,-0.3380
14.2290,-0.0635,-0.9045,-0.3280
14.2290,-0.0635,-0.9045,-0.3280
14.2300,-0.0635,-0.9045,-0.3280
14.2510,-0.0601,-0.8991,-0.3216
14.2520,-0.0601,-0.8991,-0.3216
14.2520,-0.0601,-0.8991,-0.3216
14.2710,-0.0440,-0.8913,-0.3358
14.2710,-0.0440,-0.8913,-0.3358
14.2720,-0.0440,-0.8913,-0.3358
14.3410,-0.0440,-0.8913,-0.3358
14.3410,-0.0440,-0.8913,-0.3358
14.3410,-0.0376,-0.9062,-0.3292
14.3410,-0.0376,-0.9062,-0.3292
14.3410,-0.0376,-0.9062,-0.3292
14.3410,-0.0521,-0.9218,-0.3167
14.3420,-0.0521,-0.9218,-0.3167
14.3420,-0.0521,-0.9218,-0.3167
14.3420,-0.0738,-0.9204,-0.3099
14.3420,-0.0738,-0.9204,-0.3099
14.3420,-0.0738,-0.9204,-0.3099
14.3460,-0.0777,-0.9138,-0.3133
14.3460,-0.0777,-0.9138,-0.3133
14.3460,-0.0777,-0.9138,-0.3133
14.3490,-0.0777,-0.9138,-0.3133
14.3490,-0.0777,-0.9138,-0.3133
14.3690,-0.0584,-0.9008,-0.3104
14.3700,-0.0584,-0.9008,-0.3104
14.3700,-0.0584,-0.9008,-0.3104
14.3860,-0.0601,-0.8906,-0.3114
14.3870,-0.0601,-0.8906,-0.3114
14.3870,-0.0601,-0.8906,-0.3114
14.4070,-0.0601,-0.8906,-0.3114
14.4080,-0.0445,-0.8908,-0.3358
14.4080,-0.0445,-0.8908,-0.3358
14.4080,-0.0445,-0.8908,-0.3358
14.4290,-0.0159,-0.9199,-0.3377
14.4290,-0.0159,-0.9199,-0.3377
14.4290,-0.0159,-0.9199,-0.3377
14.4310,-0.0159,-0.9199,-0.3377
14.4320,-0.0159,-0.9199,-0.3377
14.4490,-0.0132,-0.9397,-0.3145
14.4500,-0.0132,-0.9397,-0.3145
14.4530,-0.0132,-0.9397,-0.3145
14.4680,-0.0337,-0.9187,-0.3111
14.4690,-0.0337,-0.9187,-0.3111
14.4690,-0.0337,-0.9187,-0.3111
14.4870,-0.0281,-0.8915,-0.3272
14.4880,-0.0281,-0.8915,-0.3272
14.4880,-0.0281,-0.8915,-0.3272
14.5120,-0.0061,-0.8935,-0.3644
14.5130,-0.0061,-0.8935,-0.3644
14.5140,-0.0061,-0.8935,-0.3644
14.5140,-0.0061,-0.8935,-0.3644
14.5150,-0.0061,-0.8935,-0.3644
14.5290,-0.0357,-0.8901,-0.3722
14.5310,-0.0357,-0.8901,-0.3722
14.5320,-0.0357,-0.8901,-0.3722
14.5500,-0.0650,-0.8884,-0.3456
14.5500,-0.0650,-0.8884,-0.3456
14.5510,-0.0650,-0.8884,-0.3456
14.5700,-0.0709,-0.9008,-0.3331
14.5710,-0.0709,-0.9008,-0.3331
14.5720,-0.0709,-0.9008,-0.3331
14.5870,-0.0699,-0.9096,-0.3184
14.5880,-0.0699,-0.9096,-0.3184
14.5890,-0.0699,-0.9096,-0.3184
14.5920,-0.0699,-0.9096,-0.3184
14.5940,-0.0699,-0.9096,-0.3184
14.6050,-0.0699,-0.9096,-0.3184
14.6050,-0.0814,-0.9152,-0.3111
14.6060,-0.0814,-0.9152,-0.3111
14.6060,-0.0814,-0.9152,-0.3111
14.6320,-0.0692,-0.9060,-0.3180
14.6330,-0.0692,-0.9060,-0.3180
14.6340,-0.0692,-0.9060,-0.3180
14.6470,-0.0455,-0.9030,-0.3162
14.6490,-0.0455,-0.9030,-0.3162
14.6500,-0.0455,-0.9030,-0.3162
14.6660,-0.0599,-0.8945,-0.3155
14.6670,-0.0599,-0.8945,-0.3155
14.6680,-0.0599,-0.8945,-0.3155
14.6690,-0.0599,-0.8945,-0.3155
14.6690,-0.0599,-0.8945,-0.3155
14.6870,-0.0635,-0.8945,-0.3329
14.6890,-0.0635,-0.8945,-0.3329
14.6900,-0.0635,-0.8945,-0.3329
14.7040,-0.0403,-0.9006,-0.3355
14.7050,-0.0403,-0.9006,-0.3355
14.7050,-0.0403,-0.9006,-0.3355
14.7250,-0.0225,-0.9067,-0.3333
14.7250,-0.0225,-0.9067,-0.3333
14.7260,-0.0225,-0.9067,-0.3333
14.7450,-0.0252,-0.8986,-0.3409
14.7470,-0.0252,-0.8986,-0.3409
14.7530,-0.0252,-0.8986,-0.3409
14.7540,-0.0252,-0.8986,-0.3409
14.7540,-0.0252,-0.8986,-0.3409
14.7660,-0.0303,-0.8952,-0.3355
14.7690,-0.0303,-0.8952,-0.3355
14.7740,-0.0303,-0.8952,-0.3355
14.7910,-0.0264,-0.8932,-0.3402
14.7910,-0.0264,-0.8932,-0.3402
14.7920,-0.0264,-0.8932,-0.3402
14.8040,-0.0264,-0.8932,-0.3402
14.8050,-0.0359,-0.9055,-0.3446
14.8060,-0.0359,-0.9055,-0.3446
14.8070,-0.0359,-0.9055,-0.3446
14.8270,-0.0569,-0.9116,-0.3370
14.8320,-0.0569,-0.9116,-0.3370
14.8980,-0.0569,-0.9116,-0.3370
14.8990,-0.0569,-0.9116,-0.3370
14.8990,-0.0569,-0.9116,-0.3370
14.8990,-0.0325,-0.9047,-0.3309
14.8990,-0.0325,-0.9047,-0.3309
14.8990,-0.0325,-0.9047,-0.3309
14.9000,-0.0178,-0.9064,-0.3267
14.9000,-0.0178,-0.9064,-0.3267
14.9000,-0.0178,-0.9064,-0.3267
14.9010,-0.0090,-0.8984,-0.3360
14.9010,-0.0090,-0.8984,-0.3360
14.9010,-0.0090,-0.8984,-0.3360
14.9070,-0.0230,-0.8891,-0.3270
14.9070,-0.0230,-0.8891,-0.3270
14.9070,-0.0230,-0.8891,-0.3270
14.9080,-0.0230,-0.8891,-0.3270
14.9080,-0.0230,-0.8891,-0.3270
14.9230,-0.0601,-0.8903,-0.3172
14.9240,-0.0601,-0.8903,-0.3172
14.9240,-0.0601,-0.8903,-0.3172
14.9450,-0.0924,-0.8952,-0.2964
14.9450,-0.0924,-0.8952,-0.2964
14.9450,-0.0924,-0.8952,-0.2964
