
time,AccelerometerX,AccelerometerY,AccelerometerZ
0.0120,-0.8507,-0.5328,-0.0083
0.0120,-0.8507,-0.5328,-0.0083
0.0120,-0.8507,-0.5328,-0.0083
0.0410,-0.8356,-0.5465,-0.0313
0.0410,-0.8356,-0.5465,-0.0313
0.0410,-0.8356,-0.5465,-0.0313
0.0410,-0.8356,-0.5465,-0.0313
0.0420,-0.8356,-0.5465,-0.0313
0.0420,-0.8356,-0.5465,-0.0313
0.0480,-0.7505,-0.6305,-0.0797
0.0480,-0.7505,-0.6305,-0.0797
0.0490,-0.7505,-0.6305,-0.0797
0.0700,-0.7327,-0.6256,-0.1166
0.0700,-0.7327,-0.6256,-0.1166
0.0700,-0.7327,-0.6256,-0.1166
0.0900,-0.7488,-0.5797,-0.0726
0.0900,-0.7488,-0.5797,-0.0726
0.0900,-0.7488,-0.5797,-0.0726
0.1100,-0.7899,-0.5501,-0.0648
0.1100,-0.7899,-0.5501,-0.0648
0.1100,-0.7899,-0.5501,-0.0648
0.1120,-0.7899,-0.5501,-0.0648
0.1120,-0.7899,-0.5501,-0.0648
0.1290,-0.8295,-0.5401,-0.0604
0.1290,-0.8295,-0.5401,-0.0604
0.1300,-0.8295,-0.5401,-0.0604
0.1490,-0.7908,-0.5352,-0.0467
0.1500,-0.7908,-0.5352,-0.0467
0.1500,-0.7908,-0.5352,-0.0467
0.1690,-0.7703,-0.5350,-0.0386
0.1690,-0.7703,-0.5350,-0.0386
0.1690,-0.7703,-0.5350,-0.0386
0.1890,-0.8138,-0.5506,-0.0147
0.1890,-0.8138,-0.5506,-0.0147
0.1890,-0.8138,-0.5506,-0.0147
0.1920,-0.8138,-0.5506,-0.0147
0.1920,-0.8138,-0.5506,-0.0147
0.2080,-0.8295,-0.5543,-0.0081
0.2080,-0.8295,-0.5543,-0.0081
0.2090,-0.8295,-0.5543,-0.0081
0.2290,-0.8304,-0.5389,-0.0247
0.2290,-0.8304,-0.5389,-0.0247
0.2290,-0.8304,-0.5389,-0.0247
0.2290,-0.8304,-0.5389,-0.0247
0.2490,-0.8321,-0.5447,-0.0489
0.2490,-0.8321,-0.5447,-0.0489
0.2490,-0.8321,-0.5447,-0.0489
0.2690,-0.8202,-0.5650,-0.0601
0.2690,-0.8202,-0.5650,-0.0601
0.2700,-0.8202,-0.5650,-0.0601
0.2710,-0.8202,-0.5650,-0.0601
0.2710,-0.8202,-0.5650,-0.0601
0.2760,-0.8202,-0.5650,-0.0601
0.2880,-0.7982,-0.5917,-0.0555
0.2880,-0.7982,-0.5917,-0.0555
0.2890,-0.7982,-0.5917,-0.0555
0.3080,-0.7943,-0.5995,-0.0506
0.3080,-0.7943,-0.5995,-0.0506
0.3080,-0.7943,-0.5995,-0.0506
0.3290,-0.7855,-0.5838,-0.0428
0.3290,-0.7855,-0.5838,-0.0428
0.3290,-0.7855,-0.5838,-0.0428
0.3480,-0.7926,-0.5711,-0.0491
0.3480,-0.7926,-0.5711,-0.0491
0.3480,-0.7926,-0.5711,-0.0491
0.3510,-0.7926,-0.5711,-0.0491
0.3510,-0.7926,-0.5711,-0.0491
0.3680,-0.7926,-0.5770,-0.0472
0.3690,-0.7926,-0.5770,-0.0472
0.3690,-0.7926,-0.5770,-0.0472
0.3880,-0.7605,-0.5797,-0.0210
0.3890,-0.7605,-0.5797,-0.0210
0.3890,-0.7605,-0.5797,-0.0210
0.4080,-0.7608,-0.5697,-0.0244
0.4080,-0.7608,-0.5697,-0.0244
0.4080,-0.7608,-0.5697,-0.0244
0.4280,-0.8158,-0.5575,-0.0298
0.4610,-0.8158,-0.5575,-0.0298
0.4610,-0.8158,-0.5575,-0.0298
0.4610,-0.8158,-0.5575,-0.0298
0.4610,-0.8158,-0.5575,-0.0298
0.4620,-0.8158,-0.5575,-0.0298
0.4620,-0.8654,-0.5504,-0.0315
0.4620,-0.8654,-0.5504,-0.0315
0.4620,-0.8654,-0.5504,-0.0315
0.4670,-0.8241,-0.5672,-0.0538
0.4670,-0.8241,-0.5672,-0.0538
0.4670,-0.8241,-0.5672,-0.0538
0.4870,-0.7686,-0.5780,-0.0613
0.4870,-0.7686,-0.5780,-0.0613
0.4880,-0.7686,-0.5780,-0.0613
0.5070,-0.8168,-0.5636,-0.0623
0.5070,-0.8168,-0.5636,-0.0623
0.5070,-0.8168,-0.5636,-0.0623
0.5110,-0.8168,-0.5636,-0.0623
0.5110,-0.8168,-0.5636,-0.0623
0.5280,-0.8527,-0.5626,-0.0362
0.5280,-0.8527,-0.5626,-0.0362
0.5280,-0.8527,-0.5626,-0.0362
0.5470,-0.8236,-0.5736,-0.0491
0.5470,-0.8236,-0.5736,-0.0491
0.5480,-0.8236,-0.5736,-0.0491
0.5670,-0.7940,-0.5677,-0.0689
0.5670,-0.7940,-0.5677,-0.0689
0.5670,-0.7940,-0.5677,-0.0689
0.5870,-0.7798,-0.5570,-0.0711
0.5870,-0.7798,-0.5570,-0.0711
0.5870,-0.7798,-0.5570,-0.0711
0.5900,-0.7798,-0.5570,-0.0711
0.5900,-0.7798,-0.5570,-0.0711
0.6070,-0.7385,-0.5704,-0.0540
0.6070,-0.7385,-0.5704,-0.0540
0.6070,-0.7385,-0.5704,-0.0540
0.6270,-0.7867,-0.5746,-0.0178
0.6280,-0.7867,-0.5746,-0.0178
0.6280,-0.7867,-0.5746,-0.0178
0.6280,-0.7867,-0.5746,-0.0178
0.6470,-0.8233,-0.5523,-0.0032
0.6470,-0.8233,-0.5523,-0.0032
0.6470,-0.8233,-0.5523,-0.0032
0.6670,-0.8453,-0.5377,-0.0171
0.6670,-0.8453,-0.5377,-0.0171
0.6670,-0.8453,-0.5377,-0.0171
0.6700,-0.8453,-0.5377,-0.0171
0.6700,-0.8453,-0.5377,-0.0171
0.6860,-0.8106,-0.5597,-0.0579
0.6860,-0.8106,-0.5597,-0.0579
0.6860,-0.8106,-0.5597,-0.0579
0.7060,-0.7696,-0.5606,-0.1034
0.7060,-0.7696,-0.5606,-0.1034
0.7070,-0.7696,-0.5606,-0.1034
0.7270,-0.7989,-0.5619,-0.0731
0.7270,-0.7989,-0.5619,-0.0731
0.7270,-0.7989,-0.5619,-0.0731
0.7460,-0.8018,-0.5697,-0.0283
0.7470,-0.8018,-0.5697,-0.0283
0.7470,-0.8018,-0.5697,-0.0283
0.7490,-0.8018,-0.5697,-0.0283
0.7500,-0.8018,-0.5697,-0.0283
0.7650,-0.7710,-0.5702,-0.0367
0.7650,-0.7710,-0.5702,-0.0367
0.7650,-0.7710,-0.5702,-0.0367
0.7850,-0.7842,-0.5738,-0.0533
0.7850,-0.7842,-0.5738,-0.0533
0.7850,-0.7842,-0.5738,-0.0533
0.8050,-0.8109,-0.5831,-0.0174
0.8050,-0.8109,-0.5831,-0.0174
0.8050,-0.8109,-0.5831,-0.0174
0.8250,-0.8346,-0.5680,-0.0078
0.8260,-0.8346,-0.5680,-0.0078
0.8260,-0.8346,-0.5680,-0.0078
0.8270,-0.8346,-0.5680,-0.0078
0.8280,-0.8346,-0.5680,-0.0078
0.8280,-0.8346,-0.5680,-0.0078
0.8450,-0.8104,-0.5518,-0.0271
0.8450,-0.8104,-0.5518,-0.0271
0.8450,-0.8104,-0.5518,-0.0271
0.8650,-0.7828,-0.5658,-0.0550
0.8650,-0.7828,-0.5658,-0.0550
0.8650,-0.7828,-0.5658,-0.0550
0.8850,-0.8109,-0.5760,-0.0697
0.8850,-0.8109,-0.5760,-0.0697
0.8850,-0.8109,-0.5760,-0.0697
0.9040,-0.7564,-0.5814,-0.0670
0.9050,-0.7564,-0.5814,-0.0670
0.9050,-0.7564,-0.5814,-0.0670
0.9070,-0.7564,-0.5814,-0.0670
0.9070,-0.7564,-0.5814,-0.0670
0.9280,-0.7481,-0.5760,-0.0521
0.9280,-0.7481,-0.5760,-0.0521
0.9280,-0.7481,-0.5760,-0.0521
0.9450,-0.8370,-0.5663,-0.0188
0.9450,-0.8370,-0.5663,-0.0188
0.9450,-0.8370,-0.5663,-0.0188
0.9670,-0.8605,-0.5672,-0.0279
0.9670,-0.8605,-0.5672,-0.0279
0.9680,-0.8605,-0.5672,-0.0279
1.0160,-0.8419,-0.5853,-0.0452
1.0160,-0.8419,-0.5853,-0.0452
1.0170,-0.8419,-0.5853,-0.0452
1.0170,-0.8419,-0.5853,-0.0452
1.0170,-0.8419,-0.5853,-0.0452
1.0170,-0.8119,-0.5900,-0.0396
1.0170,-0.8119,-0.5900,-0.0396
1.0170,-0.8119,-0.5900,-0.0396
1.0240,-0.7803,-0.5787,-0.0469
1.0250,-0.7803,-0.5787,-0.0469
1.0250,-0.7803,-0.5787,-0.0469
1.0250,-0.7803,-0.5787,-0.0469
1.0500,-0.7974,-0.5726,-0.0310
1.0500,-0.7974,-0.5726,-0.0310
1.0510,-0.7974,-0.5726,-0.0310
1.0670,-0.7999,-0.5560,-0.0315
1.0670,-0.7999,-0.5560,-0.0315
1.0670,-0.7999,-0.5560,-0.0315
1.0690,-0.7999,-0.5560,-0.0315
1.0690,-0.7999,-0.5560,-0.0315
1.0710,-0.7999,-0.5560,-0.0315
1.0900,-0.7855,-0.5491,-0.0415
1.0900,-0.7855,-0.5491,-0.0415
1.0910,-0.7855,-0.5491,-0.0415
1.1110,-0.7960,-0.5626,-0.0398
1.1110,-0.7960,-0.5626,-0.0398
1.1110,-0.7960,-0.5626,-0.0398
1.1230,-0.7916,-0.5724,-0.0264
1.1240,-0.7916,-0.5724,-0.0264
1.1240,-0.7916,-0.5724,-0.0264
1.1440,-0.7955,-0.5682,-0.0103
1.1440,-0.7955,-0.5682,-0.0103
1.1440,-0.7955,-0.5682,-0.0103
1.1460,-0.7955,-0.5682,-0.0103
1.1470,-0.7955,-0.5682,-0.0103
1.1640,-0.8331,-0.5660,-0.0093
1.1640,-0.8331,-0.5660,-0.0093
1.1640,-0.8331,-0.5660,-0.0093
1.1830,-0.8216,-0.5738,-0.0384
1.1840,-0.8216,-0.5738,-0.0384
1.1840,-0.8216,-0.5738,-0.0384
1.2040,-0.7588,-0.5770,-0.0694
1.2050,-0.7588,-0.5770,-0.0694
1.2050,-0.7588,-0.5770,-0.0694
1.2280,-0.7850,-0.5807,-0.0450
1.2280,-0.7850,-0.5807,-0.0450
1.2280,-0.7850,-0.5807,-0.0450
1.2280,-0.7850,-0.5807,-0.0450
1.2280,-0.7850,-0.5807,-0.0450
1.2290,-0.7850,-0.5807,-0.0450
1.2440,-0.8815,-0.5633,0.0122
1.2440,-0.8815,-0.5633,0.0122
1.2440,-0.8815,-0.5633,0.0122
1.2630,-0.8483,-0.5572,-0.0352
1.2630,-0.8483,-0.5572,-0.0352
1.2640,-0.8483,-0.5572,-0.0352
1.2820,-0.7385,-0.5804,-0.0809
1.2820,-0.7385,-0.5804,-0.0809
1.2820,-0.7385,-0.5804,-0.0809
1.3040,-0.7273,-0.5814,-0.0442
1.3050,-0.7273,-0.5814,-0.0442
1.3050,-0.7273,-0.5814,-0.0442
1.3060,-0.7273,-0.5814,-0.0442
1.3060,-0.7273,-0.5814,-0.0442
1.3260,-0.8370,-0.5575,-0.0139
1.3260,-0.8370,-0.5575,-0.0139
1.3260,-0.8370,-0.5575,-0.0139
1.3430,-0.8800,-0.5575,-0.0286
1.3430,-0.8800,-0.5575,-0.0286
1.3430,-0.8800,-0.5575,-0.0286
1.3630,-0.8207,-0.5614,-0.0479
1.3630,-0.8207,-0.5614,-0.0479
1.3630,-0.8207,-0.5614,-0.0479
1.3830,-0.7547,-0.5518,-0.0604
1.3840,-0.7547,-0.5518,-0.0604
1.3840,-0.7547,-0.5518,-0.0604
1.3880,-0.7547,-0.5518,-0.0604
1.3880,-0.7547,-0.5518,-0.0604
1.4070,-0.7437,-0.5548,-0.0447
1.4070,-0.7437,-0.5548,-0.0447
1.4080,-0.7437,-0.5548,-0.0447
1.4270,-0.8065,-0.5509,0.0169
1.4270,-0.8065,-0.5509,0.0169
1.4280,-0.8065,-0.5509,0.0169
1.4280,-0.8065,-0.5509,0.0169
1.4450,-0.8282,-0.5377,0.0352
1.4450,-0.8282,-0.5377,0.0352
1.4460,-0.8282,-0.5377,0.0352
1.4670,-0.8011,-0.5501,-0.0362
1.4680,-0.8011,-0.5501,-0.0362
1.4720,-0.8011,-0.5501,-0.0362
1.4750,-0.8011,-0.5501,-0.0362
1.4760,-0.8011,-0.5501,-0.0362
1.4860,-0.7960,-0.5821,-0.0389
1.4860,-0.7960,-0.5821,-0.0389
1.4870,-0.7960,-0.5821,-0.0389
1.5030,-0.7918,-0.5836,-0.0296
1.5040,-0.7918,-0.5836,-0.0296
1.5040,-0.7918,-0.5836,-0.0296
1.5250,-0.8036,-0.5772,-0.0352
1.6130,-0.8036,-0.5772,-0.0352
1.6130,-0.8036,-0.5772,-0.0352
1.6130,-0.8182,-0.5777,-0.0261
1.6130,-0.8182,-0.5777,-0.0261
1.6130,-0.8182,-0.5777,-0.0261
1.6130,-0.8182,-0.5777,-0.0261
1.6140,-0.8182,-0.5777,-0.0261
1.6140,-0.7852,-0.5753,-0.0376
1.6140,-0.7852,-0.5753,-0.0376
1.6140,-0.7852,-0.5753,-0.0376
1.6140,-0.7762,-0.5724,-0.0325
1.6150,-0.7762,-0.5724,-0.0325
1.6150,-0.7762,-0.5724,-0.0325
1.6150,-0.7943,-0.5667,-0.0455
1.6150,-0.7943,-0.5667,-0.0455
1.6150,-0.7943,-0.5667,-0.0455
1.6230,-0.8018,-0.5663,-0.0420
1.6230,-0.8018,-0.5663,-0.0420
1.6230,-0.8018,-0.5663,-0.0420
1.6240,-0.8018,-0.5663,-0.0420
1.6250,-0.8018,-0.5663,-0.0420
1.6250,-0.8018,-0.5663,-0.0420
1.6420,-0.8361,-0.5645,-0.0176
1.6420,-0.8361,-0.5645,-0.0176
1.6420,-0.8361,-0.5645,-0.0176
1.6610,-0.8297,-0.5728,-0.0127
1.6610,-0.8297,-0.5728,-0.0127
1.6620,-0.8297,-0.5728,-0.0127
1.6810,-0.7874,-0.5665,-0.0176
1.6820,-0.7874,-0.5665,-0.0176
1.6820,-0.7874,-0.5665,-0.0176
1.7020,-0.7926,-0.5325,-0.0389
1.7020,-0.7926,-0.5325,-0.0389
1.7020,-0.7926,-0.5325,-0.0389
1.7030,-0.7926,-0.5325,-0.0389
1.7030,-0.7926,-0.5325,-0.0389
1.7210,-0.8058,-0.5103,-0.0758
1.7220,-0.8058,-0.5103,-0.0758
1.7220,-0.8058,-0.5103,-0.0758
1.7400,-0.8796,-0.5279,-0.0391
1.7410,-0.8796,-0.5279,-0.0391
1.7420,-0.8796,-0.5279,-0.0391
1.7610,-0.8749,-0.5631,-0.0083
1.7610,-0.8749,-0.5631,-0.0083
1.7620,-0.8749,-0.5631,-0.0083
1.7810,-0.7794,-0.5614,-0.0535
1.7810,-0.7794,-0.5614,-0.0535
1.7830,-0.7794,-0.5614,-0.0535
1.7830,-0.7794,-0.5614,-0.0535
1.7840,-0.7794,-0.5614,-0.0535
1.8020,-0.7737,-0.5506,-0.0599
1.8020,-0.7737,-0.5506,-0.0599
1.8030,-0.7737,-0.5506,-0.0599
1.8210,-0.7889,-0.5491,-0.0142
1.8220,-0.7889,-0.5491,-0.0142
1.8220,-0.7889,-0.5491,-0.0142
1.8230,-0.7889,-0.5491,-0.0142
1.8400,-0.8018,-0.5702,-0.0152
1.8400,-0.8018,-0.5702,-0.0152
1.8410,-0.8018,-0.5702,-0.0152
1.8590,-0.8165,-0.5992,-0.0178
1.8600,-0.8165,-0.5992,-0.0178
1.8600,-0.8165,-0.5992,-0.0178
1.8640,-0.8165,-0.5992,-0.0178
1.8640,-0.8165,-0.5992,-0.0178
1.8780,-0.7896,-0.5897,-0.0237
1.8780,-0.7896,-0.5897,-0.0237
1.8790,-0.7896,-0.5897,-0.0237
1.8970,-0.7845,-0.5538,-0.0283
1.8980,-0.7845,-0.5538,-0.0283
1.8980,-0.7845,-0.5538,-0.0283
1.9180,-0.8084,-0.5455,-0.0252
1.9180,-0.8084,-0.5455,-0.0252
1.9180,-0.8084,-0.5455,-0.0252
1.9370,-0.8065,-0.5523,-0.0433
1.9370,-0.8065,-0.5523,-0.0433
1.9370,-0.8065,-0.5523,-0.0433
1.9400,-0.8065,-0.5523,-0.0433
1.9410,-0.8065,-0.5523,-0.0433
1.9590,-0.7806,-0.5582,-0.0535
1.9590,-0.7806,-0.5582,-0.0535
1.9590,-0.7806,-0.5582,-0.0535
1.9770,-0.8128,-0.5465,-0.0450
1.9770,-0.8128,-0.5465,-0.0450
1.9780,-0.8128,-0.5465,-0.0450
1.9970,-0.8527,-0.5428,-0.0288
1.9970,-0.8527,-0.5428,-0.0288
1.9970,-0.8527,-0.5428,-0.0288
2.0180,-0.8407,-0.5584,-0.0242
2.0180,-0.8407,-0.5584,-0.0242
2.0180,-0.8407,-0.5584,-0.0242
2.0210,-0.8407,-0.5584,-0.0242
2.0210,-0.8407,-0.5584,-0.0242
2.0210,-0.8407,-0.5584,-0.0242
2.0370,-0.8092,-0.5680,-0.0357
2.0380,-0.8092,-0.5680,-0.0357
2.0380,-0.8092,-0.5680,-0.0357
2.0570,-0.8175,-0.5619,-0.0528
2.0570,-0.8175,-0.5619,-0.0528
2.0570,-0.8175,-0.5619,-0.0528
2.1010,-0.8258,-0.5641,-0.0437
2.1010,-0.8258,-0.5641,-0.0437
2.1010,-0.8258,-0.5641,-0.0437
2.1010,-0.8243,-0.5707,-0.0093
2.1020,-0.8243,-0.5707,-0.0093
2.1020,-0.8243,-0.5707,-0.0093
2.1020,-0.8243,-0.5707,-0.0093
2.1020,-0.8243,-0.5707,-0.0093
2.1180,-0.8102,-0.5672,-0.0186
2.1180,-0.8102,-0.5672,-0.0186
2.1180,-0.8102,-0.5672,-0.0186
2.1380,-0.8280,-0.5614,-0.0103
2.1380,-0.8280,-0.5614,-0.0103
2.1380,-0.8280,-0.5614,-0.0103
2.1570,-0.8275,-0.5430,-0.0127
2.1580,-0.8275,-0.5430,-0.0127
2.1580,-0.8275,-0.5430,-0.0127
2.1780,-0.7862,-0.5372,-0.0499
2.1790,-0.7862,-0.5372,-0.0499
2.1790,-0.7862,-0.5372,-0.0499
2.1820,-0.7862,-0.5372,-0.0499
2.1820,-0.7862,-0.5372,-0.0499
2.1970,-0.7874,-0.5518,-0.0591
2.1980,-0.7874,-0.5518,-0.0591
2.1980,-0.7874,-0.5518,-0.0591
2.2190,-0.8226,-0.5531,-0.0701
2.2190,-0.8226,-0.5531,-0.0701
2.2190,-0.8226,-0.5531,-0.0701
2.2190,-0.8226,-0.5531,-0.0701
2.2380,-0.8329,-0.5482,-0.0437
2.2390,-0.8329,-0.5482,-0.0437
2.2390,-0.8329,-0.5482,-0.0437
2.2580,-0.8260,-0.5323,-0.0594
2.2590,-0.8260,-0.5323,-0.0594
2.2590,-0.8260,-0.5323,-0.0594
2.2610,-0.8260,-0.5323,-0.0594
2.2610,-0.8260,-0.5323,-0.0594
2.2770,-0.8312,-0.5430,-0.0743
2.2780,-0.8312,-0.5430,-0.0743
2.2780,-0.8312,-0.5430,-0.0743
2.2980,-0.8358,-0.5633,-0.0127
2.2990,-0.8358,-0.5633,-0.0127
2.2990,-0.8358,-0.5633,-0.0127
2.3190,-0.7923,-0.5528,-0.0068
2.3190,-0.7923,-0.5528,-0.0068
2.3190,-0.7923,-0.5528,-0.0068
2.3390,-0.7845,-0.5521,-0.0210
2.3390,-0.7845,-0.5521,-0.0210
2.3390,-0.7845,-0.5521,-0.0210
2.3390,-0.7845,-0.5521,-0.0210
2.3400,-0.7845,-0.5521,-0.0210
2.3580,-0.7657,-0.5543,-0.0643
2.3590,-0.7657,-0.5543,-0.0643
2.3590,-0.7657,-0.5543,-0.0643
2.3780,-0.7896,-0.5741,-0.0283
2.3780,-0.7896,-0.5741,-0.0283
2.3790,-0.7896,-0.5741,-0.0283
2.3970,-0.8595,-0.5731,0.0181
2.3970,-0.8595,-0.5731,0.0181
2.3980,-0.8595,-0.5731,0.0181
2.4180,-0.8488,-0.5472,0.0076
2.4190,-0.8488,-0.5472,0.0076
2.4190,-0.8488,-0.5472,0.0076
2.4190,-0.8488,-0.5472,0.0076
2.4190,-0.8488,-0.5472,0.0076
2.4190,-0.8488,-0.5472,0.0076
2.4390,-0.7872,-0.5333,-0.0513
2.4390,-0.7872,-0.5333,-0.0513
2.4390,-0.7872,-0.5333,-0.0513
2.4590,-0.7686,-0.5482,-0.0682
2.4590,-0.7686,-0.5482,-0.0682
2.4590,-0.7686,-0.5482,-0.0682
2.4780,-0.7742,-0.5589,-0.0433
2.4790,-0.7742,-0.5589,-0.0433
2.4790,-0.7742,-0.5589,-0.0433
2.4980,-0.7913,-0.5628,-0.0017
2.4980,-0.7913,-0.5628,-0.0017
2.4980,-0.7913,-0.5628,-0.0017
2.4990,-0.7913,-0.5628,-0.0017
2.4990,-0.7913,-0.5628,-0.0017
2.5160,-0.8092,-0.5562,-0.0349
2.5170,-0.8092,-0.5562,-0.0349
2.5170,-0.8092,-0.5562,-0.0349
2.5380,-0.8114,-0.5582,-0.0323
2.5380,-0.8114,-0.5582,-0.0323
2.5390,-0.8114,-0.5582,-0.0323
2.5570,-0.8290,-0.5457,-0.0064
2.5570,-0.8290,-0.5457,-0.0064
2.5570,-0.8290,-0.5457,-0.0064
2.5780,-0.8497,-0.5560,-0.0098
2.5780,-0.8497,-0.5560,-0.0098
2.5780,-0.8497,-0.5560,-0.0098
2.5790,-0.8497,-0.5560,-0.0098
2.5790,-0.8497,-0.5560,-0.0098
2.5970,-0.8693,-0.5802,-0.0286
2.5970,-0.8693,-0.5802,-0.0286
2.5970,-0.8693,-0.5802,-0.0286
2.6160,-0.8693,-0.5802,-0.0286
2.6160,-0.8453,-0.5572,-0.0332
2.6160,-0.8453,-0.5572,-0.0332
2.6570,-0.8453,-0.5572,-0.0332
2.6570,-0.7948,-0.5335,-0.0699
2.6570,-0.7948,-0.5335,-0.0699
2.6580,-0.7948,-0.5335,-0.0699
2.6580,-0.7803,-0.5587,-0.0672
2.6580,-0.7803,-0.5587,-0.0672
2.6580,-0.7803,-0.5587,-0.0672
2.6600,-0.7803,-0.5587,-0.0672
2.6600,-0.7803,-0.5587,-0.0672
2.6740,-0.7684,-0.5790,-0.0452
2.6740,-0.7684,-0.5790,-0.0452
2.6740,-0.7684,-0.5790,-0.0452
2.6940,-0.8114,-0.5557,-0.0401
2.6940,-0.8114,-0.5557,-0.0401
2.6940,-0.8114,-0.5557,-0.0401
2.7140,-0.8463,-0.5511,-0.0147
2.7140,-0.8463,-0.5511,-0.0147
2.7150,-0.8463,-0.5511,-0.0147
2.7340,-0.8329,-0.5579,-0.0166
2.7350,-0.8329,-0.5579,-0.0166
2.7350,-0.8329,-0.5579,-0.0166
2.7380,-0.8329,-0.5579,-0.0166
2.7380,-0.8329,-0.5579,-0.0166
2.7540,-0.7867,-0.5565,-0.0459
2.7540,-0.7867,-0.5565,-0.0459
2.7540,-0.7867,-0.5565,-0.0459
2.7750,-0.7764,-0.5531,-0.0371
2.7750,-0.7764,-0.5531,-0.0371
2.7750,-0.7764,-0.5531,-0.0371
2.7950,-0.8253,-0.5438,-0.0103
2.7960,-0.8253,-0.5438,-0.0103
2.7960,-0.8253,-0.5438,-0.0103
2.8150,-0.8253,-0.5438,-0.0103
2.8150,-0.8427,-0.5467,0.0012
2.8150,-0.8427,-0.5467,0.0012
2.8160,-0.8427,-0.5467,0.0012
2.8190,-0.8427,-0.5467,0.0012
2.8190,-0.8427,-0.5467,0.0012
2.8350,-0.8106,-0.5528,-0.0249
2.8360,-0.8106,-0.5528,-0.0249
2.8360,-0.8106,-0.5528,-0.0249
2.8550,-0.8138,-0.5513,-0.0442
2.8550,-0.8138,-0.5513,-0.0442
2.8550,-0.8138,-0.5513,-0.0442
2.8750,-0.8067,-0.5513,-0.0452
2.8750,-0.8067,-0.5513,-0.0452
2.8750,-0.8067,-0.5513,-0.0452
2.8960,-0.7992,-0.5619,-0.0279
2.8980,-0.7992,-0.5619,-0.0279
2.8980,-0.7992,-0.5619,-0.0279
2.8990,-0.7992,-0.5619,-0.0279
2.8990,-0.7992,-0.5619,-0.0279
2.9190,-0.8307,-0.5553,0.0191
2.9200,-0.8307,-0.5553,0.0191
2.9200,-0.8307,-0.5553,0.0191
2.9340,-0.8297,-0.5315,0.0115
2.9350,-0.8297,-0.5315,0.0115
2.9360,-0.8297,-0.5315,0.0115
2.9540,-0.7794,-0.5276,-0.0452
2.9560,-0.7794,-0.5276,-0.0452
2.9560,-0.7794,-0.5276,-0.0452
2.9770,-0.7979,-0.5623,-0.0601
2.9810,-0.7979,-0.5623,-0.0601
2.9820,-0.7979,-0.5623,-0.0601
2.9830,-0.7979,-0.5623,-0.0601
2.9830,-0.7979,-0.5623,-0.0601
2.9950,-0.8563,-0.5826,-0.0081
2.9950,-0.8563,-0.5826,-0.0081
2.9960,-0.8563,-0.5826,-0.0081
3.0160,-0.8563,-0.5826,-0.0081
3.0160,-0.8370,-0.5704,-0.0340
3.0190,-0.8370,-0.5704,-0.0340
3.0200,-0.8370,-0.5704,-0.0340
3.0340,-0.8016,-0.5633,-0.0491
3.0360,-0.8016,-0.5633,-0.0491
3.0360,-0.8016,-0.5633,-0.0491
3.0560,-0.7811,-0.5557,-0.0379
3.0560,-0.7811,-0.5557,-0.0379
3.0570,-0.7811,-0.5557,-0.0379
3.0570,-0.7811,-0.5557,-0.0379
3.0580,-0.7811,-0.5557,-0.0379
3.0760,-0.7764,-0.5535,-0.0130
3.0770,-0.7764,-0.5535,-0.0130
3.0770,-0.7764,-0.5535,-0.0130
3.0940,-0.7913,-0.5516,-0.0081
3.0950,-0.7913,-0.5516,-0.0081
3.0970,-0.7913,-0.5516,-0.0081
3.1160,-0.8202,-0.5386,-0.0213
3.1160,-0.8202,-0.5386,-0.0213
3.1170,-0.8202,-0.5386,-0.0213
3.1360,-0.8458,-0.5293,0.0044
3.1360,-0.8458,-0.5293,0.0044
3.1370,-0.8458,-0.5293,0.0044
3.1370,-0.8458,-0.5293,0.0044
3.1380,-0.8458,-0.5293,0.0044
3.1560,-0.8607,-0.5286,-0.0283
3.1560,-0.8607,-0.5286,-0.0283
3.1570,-0.8607,-0.5286,-0.0283
3.1760,-0.8138,-0.5425,-0.0623
3.1760,-0.8138,-0.5425,-0.0623
3.2480,-0.8138,-0.5425,-0.0623
3.2480,-0.8094,-0.5491,-0.0345
3.2490,-0.8094,-0.5491,-0.0345
3.2490,-0.8094,-0.5491,-0.0345
3.2490,-0.8094,-0.5491,-0.0345
3.2490,-0.8341,-0.5416,-0.0120
3.2490,-0.8341,-0.5416,-0.0120
3.2500,-0.8341,-0.5416,-0.0120
3.2500,-0.8341,-0.5416,-0.0120
3.2500,-0.8341,-0.5416,-0.0120
3.2500,-0.8187,-0.5491,-0.0313
3.2500,-0.8187,-0.5491,-0.0313
3.2510,-0.8187,-0.5491,-0.0313
3.2510,-0.7904,-0.5543,-0.0481
3.2510,-0.7904,-0.5543,-0.0481
3.2510,-0.7904,-0.5543,-0.0481
3.2710,-0.8358,-0.5433,-0.0115
3.2720,-0.8358,-0.5433,-0.0115
3.2720,-0.8358,-0.5433,-0.0115
3.2910,-0.8216,-0.5237,-0.0064
3.2910,-0.8216,-0.5237,-0.0064
3.2920,-0.8216,-0.5237,-0.0064
3.2940,-0.8216,-0.5237,-0.0064
3.2940,-0.8216,-0.5237,-0.0064
3.3130,-0.7723,-0.5408,-0.0386
3.3130,-0.7723,-0.5408,-0.0386
3.3130,-0.7723,-0.5408,-0.0386
3.3330,-0.7693,-0.5792,-0.0340
3.3330,-0.7693,-0.5792,-0.0340
3.3330,-0.7693,-0.5792,-0.0340
3.3520,-0.8038,-0.5707,-0.0266
3.3520,-0.8038,-0.5707,-0.0266
3.3520,-0.8038,-0.5707,-0.0266
3.3730,-0.8033,-0.5428,-0.0139
3.3730,-0.8033,-0.5428,-0.0139
3.3730,-0.8033,-0.5428,-0.0139
3.3740,-0.8033,-0.5428,-0.0139
3.3740,-0.8033,-0.5428,-0.0139
3.3930,-0.7970,-0.5396,-0.0225
3.3930,-0.7970,-0.5396,-0.0225
3.3930,-0.7970,-0.5396,-0.0225
3.4130,-0.7970,-0.5396,-0.0225
3.4130,-0.8111,-0.5526,-0.0144
3.4130,-0.8111,-0.5526,-0.0144
3.4130,-0.8111,-0.5526,-0.0144
3.4320,-0.8307,-0.5680,0.0015
3.4320,-0.8307,-0.5680,0.0015
3.4320,-0.8307,-0.5680,0.0015
3.4510,-0.8365,-0.5621,0.0037
3.4520,-0.8365,-0.5621,0.0037
3.4520,-0.8365,-0.5621,0.0037
3.4550,-0.8365,-0.5621,0.0037
3.4550,-0.8365,-0.5621,0.0037
3.4720,-0.8346,-0.5379,-0.0117
3.4720,-0.8346,-0.5379,-0.0117
3.4720,-0.8346,-0.5379,-0.0117
3.4900,-0.8405,-0.5391,-0.0249
3.4910,-0.8405,-0.5391,-0.0249
3.4910,-0.8405,-0.5391,-0.0249
3.5110,-0.8375,-0.5531,-0.0186
3.5110,-0.8375,-0.5531,-0.0186
3.5110,-0.8375,-0.5531,-0.0186
3.5300,-0.7967,-0.5540,-0.0288
3.5310,-0.7967,-0.5540,-0.0288
3.5310,-0.7967,-0.5540,-0.0288
3.5340,-0.7967,-0.5540,-0.0288
3.5340,-0.7967,-0.5540,-0.0288
3.5510,-0.7808,-0.5570,-0.0283
3.5510,-0.7808,-0.5570,-0.0283
3.5510,-0.7808,-0.5570,-0.0283
3.5700,-0.8155,-0.5516,-0.0374
3.5700,-0.8155,-0.5516,-0.0374
3.5700,-0.8155,-0.5516,-0.0374
3.5900,-0.8546,-0.5491,-0.0384
3.5900,-0.8546,-0.5491,-0.0384
3.5910,-0.8546,-0.5491,-0.0384
3.6120,-0.8546,-0.5491,-0.0384
3.6120,-0.8197,-0.5553,-0.0369
3.6120,-0.8197,-0.5553,-0.0369
3.6120,-0.8197,-0.5553,-0.0369
3.6120,-0.8197,-0.5553,-0.0369
3.6130,-0.8197,-0.5553,-0.0369
3.6310,-0.8092,-0.5589,-0.0367
3.6310,-0.8092,-0.5589,-0.0367
3.6310,-0.8092,-0.5589,-0.0367
3.6510,-0.7896,-0.5658,-0.0327
3.6510,-0.7896,-0.5658,-0.0327
3.6520,-0.7896,-0.5658,-0.0327
3.6560,-0.7896,-0.5658,-0.0327
3.6700,-0.7710,-0.5599,-0.0386
3.6700,-0.7710,-0.5599,-0.0386
3.6700,-0.7710,-0.5599,-0.0386
3.6910,-0.8326,-0.5516,-0.0215
3.6910,-0.8326,-0.5516,-0.0215
3.6920,-0.8326,-0.5516,-0.0215
3.6950,-0.8326,-0.5516,-0.0215
3.6950,-0.8326,-0.5516,-0.0215
3.7120,-0.8629,-0.5425,-0.0020
3.7120,-0.8629,-0.5425,-0.0020
3.7130,-0.8629,-0.5425,-0.0020
3.7540,-0.8390,-0.5533,-0.0298
3.7550,-0.8390,-0.5533,-0.0298
3.7550,-0.8390,-0.5533,-0.0298
3.7550,-0.8080,-0.5663,-0.0301
3.7550,-0.8080,-0.5663,-0.0301
3.7550,-0.8080,-0.5663,-0.0301
3.7670,-0.8255,-0.5406,-0.0274
3.7680,-0.8255,-0.5406,-0.0274
3.7680,-0.8255,-0.5406,-0.0274
3.7730,-0.8255,-0.5406,-0.0274
3.7730,-0.8255,-0.5406,-0.0274
3.7890,-0.8265,-0.5227,-0.0320
3.7890,-0.8265,-0.5227,-0.0320
3.7890,-0.8265,-0.5227,-0.0320
3.8080,-0.8265,-0.5227,-0.0320
3.8080,-0.7960,-0.5489,-0.0369
3.8080,-0.7960,-0.5489,-0.0369
3.8090,-0.7960,-0.5489,-0.0369
3.8290,-0.7828,-0.5699,-0.0374
3.8290,-0.7828,-0.5699,-0.0374
3.8300,-0.7828,-0.5699,-0.0374
3.8470,-0.7830,-0.5699,-0.0220
3.8480,-0.7830,-0.5699,-0.0220
3.8480,-0.7830,-0.5699,-0.0220
3.8510,-0.7830,-0.5699,-0.0220
3.8510,-0.7830,-0.5699,-0.0220
3.8510,-0.7830,-0.5699,-0.0220
3.8680,-0.8053,-0.5572,0.0000
3.8680,-0.8053,-0.5572,0.0000
3.8680,-0.8053,-0.5572,0.0000
3.8870,-0.8277,-0.5440,-0.0020
3.8880,-0.8277,-0.5440,-0.0020
3.8880,-0.8277,-0.5440,-0.0020
3.9090,-0.8104,-0.5479,-0.0166
3.9090,-0.8104,-0.5479,-0.0166
3.9090,-0.8104,-0.5479,-0.0166
3.9300,-0.7904,-0.5565,-0.0169
3.9300,-0.7904,-0.5565,-0.0169
3.9300,-0.7904,-0.5565,-0.0169
3.9300,-0.7904,-0.5565,-0.0169
3.9300,-0.7904,-0.5565,-0.0169
3.9490,-0.7776,-0.5535,-0.0134
3.9490,-0.7776,-0.5535,-0.0134
3.9490,-0.7776,-0.5535,-0.0134
3.9690,-0.7960,-0.5421,-0.0276
3.9690,-0.7960,-0.5421,-0.0276
3.9690,-0.7960,-0.5421,-0.0276
3.9890,-0.8363,-0.5455,-0.0269
3.9890,-0.8363,-0.5455,-0.0269
3.9890,-0.8363,-0.5455,-0.0269
4.0090,-0.8363,-0.5455,-0.0269
4.0090,-0.8478,-0.5621,-0.0376
4.0090,-0.8478,-0.5621,-0.0376
4.0090,-0.8478,-0.5621,-0.0376
4.0120,-0.8478,-0.5621,-0.0376
4.0120,-0.8478,-0.5621,-0.0376
4.0290,-0.8285,-0.5714,-0.0332
4.0290,-0.8285,-0.5714,-0.0332
4.0290,-0.8285,-0.5714,-0.0332
4.0480,-0.8177,-0.5614,-0.0293
4.0480,-0.8177,-0.5614,-0.0293
4.0490,-0.8177,-0.5614,-0.0293
4.0520,-0.8177,-0.5614,-0.0293
4.0670,-0.7923,-0.5496,-0.0364
4.0670,-0.7923,-0.5496,-0.0364
4.0670,-0.7923,-0.5496,-0.0364
4.0870,-0.8033,-0.5516,-0.0122
4.0870,-0.8033,-0.5516,-0.0122
4.0870,-0.8033,-0.5516,-0.0122
4.0900,-0.8033,-0.5516,-0.0122
4.0910,-0.8033,-0.5516,-0.0122
4.1070,-0.8373,-0.5653,-0.0002
4.1080,-0.8373,-0.5653,-0.0002
4.1080,-0.8373,-0.5653,-0.0002
4.1250,-0.7992,-0.5562,-0.0191
4.1260,-0.7992,-0.5562,-0.0191
4.1260,-0.7992,-0.5562,-0.0191
4.1460,-0.7869,-0.5526,-0.0550
4.1460,-0.7869,-0.5526,-0.0550
4.1460,-0.7869,-0.5526,-0.0550
4.1670,-0.8131,-0.5587,-0.0242
4.1670,-0.8131,-0.5587,-0.0242
4.1670,-0.8131,-0.5587,-0.0242
4.1690,-0.8131,-0.5587,-0.0242
4.1690,-0.8131,-0.5587,-0.0242
4.1890,-0.8238,-0.5406,-0.0174
4.1890,-0.8238,-0.5406,-0.0174
4.1900,-0.8238,-0.5406,-0.0174
4.2060,-0.8238,-0.5406,-0.0174
4.2060,-0.8370,-0.5377,-0.0389
4.2060,-0.8370,-0.5377,-0.0389
4.2060,-0.8370,-0.5377,-0.0389
4.2290,-0.8285,-0.5509,-0.0330
4.2290,-0.8285,-0.5509,-0.0330
4.2290,-0.8285,-0.5509,-0.0330
4.2460,-0.7974,-0.5538,-0.0249
4.2460,-0.7974,-0.5538,-0.0249
4.2460,-0.7974,-0.5538,-0.0249
4.2490,-0.7974,-0.5538,-0.0249
4.2500,-0.7974,-0.5538,-0.0249
4.2880,-0.7886,-0.5709,-0.0220
4.2890,-0.7886,-0.5709,-0.0220
4.2890,-0.7886,-0.5709,-0.0220
4.2890,-0.7945,-0.5733,-0.0196
4.2890,-0.7945,-0.5733,-0.0196
4.2890,-0.7945,-0.5733,-0.0196
4.3070,-0.8351,-0.5509,-0.0198
4.3070,-0.8351,-0.5509,-0.0198
4.3070,-0.8351,-0.5509,-0.0198
4.3250,-0.8551,-0.5521,-0.0215
4.3260,-0.8551,-0.5521,-0.0215
4.3260,-0.8551,-0.5521,-0.0215
4.3280,-0.8551,-0.5521,-0.0215
4.3280,-0.8551,-0.5521,-0.0215
4.3450,-0.8038,-0.5645,-0.0269
4.3450,-0.8038,-0.5645,-0.0269
4.3450,-0.8038,-0.5645,-0.0269
4.3650,-0.7798,-0.5643,-0.0420
4.3650,-0.7798,-0.5643,-0.0420
4.3650,-0.7798,-0.5643,-0.0420
4.3850,-0.8050,-0.5504,-0.0445
4.3850,-0.8050,-0.5504,-0.0445
4.3850,-0.8050,-0.5504,-0.0445
4.4030,-0.8050,-0.5504,-0.0445
4.4030,-0.7930,-0.5533,-0.0235
4.4040,-0.7930,-0.5533,-0.0235
4.4050,-0.7930,-0.5533,-0.0235
4.4070,-0.7930,-0.5533,-0.0235
4.4070,-0.7930,-0.5533,-0.0235
4.4240,-0.7696,-0.5704,-0.0362
4.4240,-0.7696,-0.5704,-0.0362
4.4250,-0.7696,-0.5704,-0.0362
4.4470,-0.8243,-0.5697,-0.0088
4.4470,-0.8243,-0.5697,-0.0088
4.4470,-0.8243,-0.5697,-0.0088
4.4670,-0.8365,-0.5516,0.0198
4.4670,-0.8365,-0.5516,0.0198
4.4670,-0.8365,-0.5516,0.0198
4.4900,-0.7872,-0.5567,-0.0100
4.4900,-0.7872,-0.5567,-0.0100
4.4900,-0.7872,-0.5567,-0.0100
4.4900,-0.7872,-0.5567,-0.0100
4.4910,-0.7872,-0.5567,-0.0100
4.5050,-0.7757,-0.5692,-0.0017
4.5050,-0.7757,-0.5692,-0.0017
4.5050,-0.7757,-0.5692,-0.0017
4.5250,-0.7786,-0.5636,-0.0086
4.5260,-0.7786,-0.5636,-0.0086
4.5260,-0.7786,-0.5636,-0.0086
4.5430,-0.8190,-0.5604,-0.0420
4.5430,-0.8190,-0.5604,-0.0420
4.5440,-0.8190,-0.5604,-0.0420
4.5660,-0.8554,-0.5604,-0.0117
4.5660,-0.8554,-0.5604,-0.0117
4.5660,-0.8554,-0.5604,-0.0117
4.5670,-0.8554,-0.5604,-0.0117
4.5670,-0.8554,-0.5604,-0.0117
4.5850,-0.8566,-0.5477,-0.0093
4.5850,-0.8566,-0.5477,-0.0093
4.5850,-0.8566,-0.5477,-0.0093
4.6020,-0.8566,-0.5477,-0.0093
4.6050,-0.8109,-0.5592,-0.0310
4.6050,-0.8109,-0.5592,-0.0310
4.6050,-0.8109,-0.5592,-0.0310
4.6240,-0.7811,-0.5677,-0.0496
4.6250,-0.7811,-0.5677,-0.0496
4.6250,-0.7811,-0.5677,-0.0496
4.6450,-0.7972,-0.5592,-0.0552
4.6450,-0.7972,-0.5592,-0.0552
4.6460,-0.7972,-0.5592,-0.0552
4.6460,-0.7972,-0.5592,-0.0552
4.6460,-0.7972,-0.5592,-0.0552
4.6640,-0.8211,-0.5582,-0.0193
4.6640,-0.8211,-0.5582,-0.0193
4.6640,-0.8211,-0.5582,-0.0193
4.6840,-0.8075,-0.5628,-0.0310
4.6840,-0.8075,-0.5628,-0.0310
4.6840,-0.8075,-0.5628,-0.0310
4.7040,-0.7967,-0.5650,-0.0340
4.7050,-0.7967,-0.5650,-0.0340
4.7050,-0.7967,-0.5650,-0.0340
4.7240,-0.8248,-0.5511,-0.0271
4.7250,-0.8248,-0.5511,-0.0271
4.7250,-0.8248,-0.5511,-0.0271
4.7250,-0.8248,-0.5511,-0.0271
4.7250,-0.8248,-0.5511,-0.0271
4.7440,-0.8207,-0.5504,-0.0462
4.7440,-0.8207,-0.5504,-0.0462
4.7440,-0.8207,-0.5504,-0.0462
4.7630,-0.8084,-0.5550,-0.0503
4.7640,-0.8084,-0.5550,-0.0503
4.7640,-0.8084,-0.5550,-0.0503
4.7850,-0.8146,-0.5482,-0.0354
4.7860,-0.8146,-0.5482,-0.0354
4.7860,-0.8146,-0.5482,-0.0354
4.8010,-0.8146,-0.5482,-0.0354
4.8020,-0.8290,-0.5587,-0.0384
4.8030,-0.8290,-0.5587,-0.0384
4.8030,-0.8290,-0.5587,-0.0384
4.8050,-0.8290,-0.5587,-0.0384
4.8530,-0.8290,-0.5587,-0.0384
4.8530,-0.8199,-0.5772,-0.0420
4.8530,-0.8199,-0.5772,-0.0420
4.8540,-0.8199,-0.5772,-0.0420
4.8540,-0.7979,-0.5643,-0.0122
4.8540,-0.7979,-0.5643,-0.0122
4.8540,-0.7979,-0.5643,-0.0122
4.8610,-0.8126,-0.5271,-0.0083
4.8610,-0.8126,-0.5271,-0.0083
4.8620,-0.8126,-0.5271,-0.0083
4.8880,-0.8094,-0.5413,-0.0362
4.8890,-0.8094,-0.5413,-0.0362
4.8890,-0.8094,-0.5413,-0.0362
4.8890,-0.8094,-0.5413,-0.0362
4.8890,-0.8094,-0.5413,-0.0362
4.9040,-0.8036,-0.5689,-0.0220
4.9050,-0.8036,-0.5689,-0.0220
4.9050,-0.8036,-0.5689,-0.0220
4.9220,-0.8297,-0.5601,0.0042
4.9220,-0.8297,-0.5601,0.0042
4.9230,-0.8297,-0.5601,0.0042
4.9420,-0.8290,-0.5553,-0.0144
4.9420,-0.8290,-0.5553,-0.0144
4.9420,-0.8290,-0.5553,-0.0144
4.9620,-0.7803,-0.5521,-0.0538
4.9620,-0.7803,-0.5521,-0.0538
4.9620,-0.7803,-0.5521,-0.0538
4.9650,-0.7803,-0.5521,-0.0538
4.9650,-0.7803,-0.5521,-0.0538
4.9850,-0.7864,-0.5518,-0.0384
4.9850,-0.7864,-0.5518,-0.0384
4.9850,-0.7864,-0.5518,-0.0384
5.0010,-0.7864,-0.5518,-0.0384
5.0040,-0.8725,-0.5496,-0.0078
5.0040,-0.8725,-0.5496,-0.0078
5.0040,-0.8725,-0.5496,-0.0078
5.0230,-0.7710,-0.5540,-0.0166
5.0230,-0.7710,-0.5540,-0.0166
5.0240,-0.7710,-0.5540,-0.0166
5.0450,-0.7908,-0.5528,-0.0271
5.0450,-0.7908,-0.5528,-0.0271
5.0460,-0.7908,-0.5528,-0.0271
5.0460,-0.7908,-0.5528,-0.0271
5.0460,-0.7908,-0.5528,-0.0271
5.0660,-0.8529,-0.5428,-0.0254
5.0660,-0.8529,-0.5428,-0.0254
5.0670,-0.8529,-0.5428,-0.0254
5.0820,-0.8534,-0.5447,0.0059
5.0820,-0.8534,-0.5447,0.0059
5.0820,-0.8534,-0.5447,0.0059
5.1040,-0.8080,-0.5633,-0.0032
5.1040,-0.8080,-0.5633,-0.0032
5.1040,-0.8080,-0.5633,-0.0032
5.1240,-0.7864,-0.5775,-0.0364
5.1240,-0.7864,-0.5775,-0.0364
5.1240,-0.7864,-0.5775,-0.0364
5.1240,-0.7864,-0.5775,-0.0364
5.1250,-0.7864,-0.5775,-0.0364
5.1430,-0.8072,-0.5704,-0.0386
5.1440,-0.8072,-0.5704,-0.0386
5.1440,-0.8072,-0.5704,-0.0386
5.1620,-0.8126,-0.5550,-0.0042
5.1620,-0.8126,-0.5550,-0.0042
5.1620,-0.8126,-0.5550,-0.0042
5.1800,-0.8211,-0.5433,-0.0078
5.1800,-0.8211,-0.5433,-0.0078
5.1810,-0.8211,-0.5433,-0.0078
5.1970,-0.8211,-0.5433,-0.0078
5.2010,-0.8009,-0.5548,-0.0288
5.2010,-0.8009,-0.5548,-0.0288
5.2010,-0.8009,-0.5548,-0.0288
5.2020,-0.8009,-0.5548,-0.0288
5.2020,-0.8009,-0.5548,-0.0288
5.2220,-0.7818,-0.5567,-0.0452
5.2220,-0.7818,-0.5567,-0.0452
5.2220,-0.7818,-0.5567,-0.0452
5.2430,-0.8251,-0.5355,-0.0208
5.2430,-0.8251,-0.5355,-0.0208
5.2430,-0.8251,-0.5355,-0.0208
5.2440,-0.8251,-0.5355,-0.0208
5.2620,-0.8361,-0.5223,0.0059
5.2620,-0.8361,-0.5223,0.0059
5.2620,-0.8361,-0.5223,0.0059
5.2810,-0.8055,-0.5201,-0.0174
5.2810,-0.8055,-0.5201,-0.0174
5.2810,-0.8055,-0.5201,-0.0174
5.2810,-0.8055,-0.5201,-0.0174
5.2810,-0.8055,-0.5201,-0.0174
5.3040,-0.7911,-0.5399,-0.0403
5.3040,-0.7911,-0.5399,-0.0403
5.3040,-0.7911,-0.5399,-0.0403
5.3220,-0.7872,-0.5694,-0.0259
5.3220,-0.7872,-0.5694,-0.0259
5.3220,-0.7872,-0.5694,-0.0259
5.3410,-0.8180,-0.5699,0.0159
5.3410,-0.8180,-0.5699,0.0159
5.3410,-0.8180,-0.5699,0.0159
5.3600,-0.8268,-0.5450,0.0020
5.3600,-0.8268,-0.5450,0.0020
5.3610,-0.8268,-0.5450,0.0020
5.4040,-0.8268,-0.5450,0.0020
5.4040,-0.8268,-0.5450,0.0020
5.4050,-0.8290,-0.5474,-0.0271
5.4050,-0.8290,-0.5474,-0.0271
5.4050,-0.8290,-0.5474,-0.0271
5.4050,-0.8290,-0.5474,-0.0271
5.4050,-0.8275,-0.5782,-0.0193
5.4050,-0.8275,-0.5782,-0.0193
5.4050,-0.8275,-0.5782,-0.0193
5.4200,-0.8065,-0.5799,-0.0152
5.4210,-0.8065,-0.5799,-0.0152
5.4210,-0.8065,-0.5799,-0.0152
5.4380,-0.8187,-0.5526,0.0029
5.4380,-0.8187,-0.5526,0.0029
5.4380,-0.8187,-0.5526,0.0029
5.4400,-0.8187,-0.5526,0.0029
5.4400,-0.8187,-0.5526,0.0029
5.4590,-0.8287,-0.5262,-0.0029
5.4590,-0.8287,-0.5262,-0.0029
5.4590,-0.8287,-0.5262,-0.0029
5.4790,-0.8380,-0.5335,-0.0022
5.4790,-0.8380,-0.5335,-0.0022
5.4790,-0.8380,-0.5335,-0.0022
5.4990,-0.7994,-0.5513,-0.0178
5.4990,-0.7994,-0.5513,-0.0178
5.4990,-0.7994,-0.5513,-0.0178
5.5200,-0.7972,-0.5572,-0.0210
5.5200,-0.7972,-0.5572,-0.0210
5.5200,-0.7972,-0.5572,-0.0210
5.5200,-0.7972,-0.5572,-0.0210
5.5200,-0.7972,-0.5572,-0.0210
5.5420,-0.8356,-0.5555,-0.0166
5.5430,-0.8356,-0.5555,-0.0166
5.5430,-0.8356,-0.5555,-0.0166
5.5570,-0.8414,-0.5572,-0.0068
5.5570,-0.8414,-0.5572,-0.0068
5.5570,-0.8414,-0.5572,-0.0068
5.5770,-0.7984,-0.5614,-0.0142
5.5780,-0.7984,-0.5614,-0.0142
5.5780,-0.7984,-0.5614,-0.0142
5.5940,-0.7984,-0.5614,-0.0142
5.5980,-0.7811,-0.5491,-0.0286
5.5980,-0.7811,-0.5491,-0.0286
5.5980,-0.7811,-0.5491,-0.0286
5.5980,-0.7811,-0.5491,-0.0286
5.5990,-0.7811,-0.5491,-0.0286
5.6200,-0.8021,-0.5416,-0.0232
5.6200,-0.8021,-0.5416,-0.0232
5.6200,-0.8021,-0.5416,-0.0232
5.6370,-0.8211,-0.5389,-0.0279
5.6380,-0.8211,-0.5389,-0.0279
5.6380,-0.8211,-0.5389,-0.0279
5.6580,-0.8348,-0.5328,-0.0457
5.6590,-0.8348,-0.5328,-0.0457
5.6590,-0.8348,-0.5328,-0.0457
5.6790,-0.8400,-0.5423,-0.0347
5.6790,-0.8400,-0.5423,-0.0347
5.6790,-0.8400,-0.5423,-0.0347
5.6800,-0.8400,-0.5423,-0.0347
5.6800,-0.8400,-0.5423,-0.0347
5.7000,-0.8319,-0.5435,-0.0098
5.7010,-0.8319,-0.5435,-0.0098
5.7010,-0.8319,-0.5435,-0.0098
5.7170,-0.8114,-0.5362,-0.0100
5.7170,-0.8114,-0.5362,-0.0100
5.7170,-0.8114,-0.5362,-0.0100
5.7370,-0.8141,-0.5438,-0.0152
5.7380,-0.8141,-0.5438,-0.0152
5.7380,-0.8141,-0.5438,-0.0152
5.7580,-0.7835,-0.5619,-0.0161
5.7580,-0.7835,-0.5619,-0.0161
5.7580,-0.7835,-0.5619,-0.0161
5.7590,-0.7835,-0.5619,-0.0161
5.7590,-0.7835,-0.5619,-0.0161
5.7790,-0.7938,-0.5724,-0.0335
5.7800,-0.7938,-0.5724,-0.0335
5.7800,-0.7938,-0.5724,-0.0335
5.7970,-0.7938,-0.5724,-0.0335
5.7970,-0.8583,-0.5594,-0.0010
5.7980,-0.8583,-0.5594,-0.0010
5.7980,-0.8583,-0.5594,-0.0010
5.8170,-0.8478,-0.5489,-0.0083
5.8170,-0.8478,-0.5489,-0.0083
5.8170,-0.8478,-0.5489,-0.0083
5.8370,-0.7906,-0.5565,-0.0164
5.8370,-0.7906,-0.5565,-0.0164
5.8370,-0.7906,-0.5565,-0.0164
5.8380,-0.7906,-0.5565,-0.0164
5.8380,-0.7906,-0.5565,-0.0164
5.8610,-0.7860,-0.5526,-0.0029
5.8620,-0.7860,-0.5526,-0.0029
5.8620,-0.7860,-0.5526,-0.0029
5.8770,-0.7813,-0.5452,-0.0196
5.8770,-0.7813,-0.5452,-0.0196
5.8780,-0.7813,-0.5452,-0.0196
5.8980,-0.7943,-0.5477,0.0044
5.8980,-0.7943,-0.5477,0.0044
5.8980,-0.7943,-0.5477,0.0044
5.9160,-0.7957,-0.5533,0.0120
5.9160,-0.7957,-0.5533,0.0120
5.9700,-0.7957,-0.5533,0.0120
5.9700,-0.7957,-0.5533,0.0120
5.9700,-0.7957,-0.5533,0.0120
5.9700,-0.8233,-0.5447,0.0054
5.9700,-0.8233,-0.5447,0.0054
5.9700,-0.8233,-0.5447,0.0054
5.9710,-0.8092,-0.5452,-0.0005
5.9710,-0.8092,-0.5452,-0.0005
5.9710,-0.8092,-0.5452,-0.0005
5.9750,-0.8216,-0.5540,-0.0164
5.9750,-0.8216,-0.5540,-0.0164
5.9750,-0.8216,-0.5540,-0.0164
5.9920,-0.8216,-0.5540,-0.0164
5.9950,-0.8331,-0.5474,-0.0305
5.9950,-0.8331,-0.5474,-0.0305
5.9950,-0.8331,-0.5474,-0.0305
5.9950,-0.8331,-0.5474,-0.0305
5.9950,-0.8331,-0.5474,-0.0305
6.0180,-0.8275,-0.5499,-0.0105
6.0180,-0.8275,-0.5499,-0.0105
6.0190,-0.8275,-0.5499,-0.0105
6.0340,-0.8326,-0.5655,-0.0027
6.0350,-0.8326,-0.5655,-0.0027
6.0350,-0.8326,-0.5655,-0.0027
6.0550,-0.8014,-0.5665,-0.0283
6.0550,-0.8014,-0.5665,-0.0283
6.0550,-0.8014,-0.5665,-0.0283
6.0750,-0.8014,-0.5494,-0.0308
6.0750,-0.8014,-0.5494,-0.0308
6.0760,-0.8014,-0.5494,-0.0308
6.0760,-0.8014,-0.5494,-0.0308
6.0760,-0.8014,-0.5494,-0.0308
6.0970,-0.8273,-0.5418,0.0034
6.0970,-0.8273,-0.5418,0.0034
6.0970,-0.8273,-0.5418,0.0034
6.1160,-0.8429,-0.5523,-0.0027
6.1160,-0.8429,-0.5523,-0.0027
6.1160,-0.8429,-0.5523,-0.0027
6.1350,-0.8226,-0.5609,-0.0259
6.1360,-0.8226,-0.5609,-0.0259
6.1370,-0.8226,-0.5609,-0.0259
6.1590,-0.8128,-0.5433,-0.0371
6.1590,-0.8128,-0.5433,-0.0371
6.1600,-0.8128,-0.5433,-0.0371
6.1600,-0.8128,-0.5433,-0.0371
6.1610,-0.8128,-0.5433,-0.0371
6.1750,-0.8255,-0.5320,-0.0117
6.1760,-0.8255,-0.5320,-0.0117
6.1770,-0.8255,-0.5320,-0.0117
6.1980,-0.8255,-0.5320,-0.0117
6.2000,-0.8392,-0.5359,0.0130
6.2000,-0.8392,-0.5359,0.0130
6.2010,-0.8392,-0.5359,0.0130
6.2160,-0.8358,-0.5482,0.0007
6.2170,-0.8358,-0.5482,0.0007
6.2170,-0.8358,-0.5482,0.0007
6.2380,-0.8251,-0.5614,-0.0293
6.2390,-0.8251,-0.5614,-0.0293
6.2390,-0.8251,-0.5614,-0.0293
6.2400,-0.8251,-0.5614,-0.0293
6.2400,-0.8251,-0.5614,-0.0293
6.2560,-0.8295,-0.5579,-0.0415
6.2570,-0.8295,-0.5579,-0.0415
6.2570,-0.8295,-0.5579,-0.0415
6.2800,-0.7776,-0.5528,-0.0352
6.2800,-0.7776,-0.5528,-0.0352
6.2810,-0.7776,-0.5528,-0.0352
6.2950,-0.7723,-0.5545,-0.0220
6.2960,-0.7723,-0.5545,-0.0220
6.2970,-0.7723,-0.5545,-0.0220
6.3180,-0.7874,-0.5575,-0.0108
6.3210,-0.7874,-0.5575,-0.0108
6.3220,-0.7874,-0.5575,-0.0108
6.3230,-0.7874,-0.5575,-0.0108
6.3230,-0.7874,-0.5575,-0.0108
6.3380,-0.8185,-0.5413,0.0110
6.3390,-0.8185,-0.5413,0.0110
6.3390,-0.8185,-0.5413,0.0110
6.3560,-0.8251,-0.5291,0.0032
6.3570,-0.8251,-0.5291,0.0032
6.3600,-0.8251,-0.5291,0.0032
6.3760,-0.8126,-0.5386,-0.0171
6.3770,-0.8126,-0.5386,-0.0171
6.3770,-0.8126,-0.5386,-0.0171
6.3930,-0.8126,-0.5386,-0.0171
6.3970,-0.8211,-0.5557,-0.0174
6.3980,-0.8211,-0.5557,-0.0174
6.3990,-0.8211,-0.5557,-0.0174
6.3990,-0.8211,-0.5557,-0.0174
6.4000,-0.8211,-0.5557,-0.0174
6.4160,-0.8226,-0.5567,-0.0120
6.4170,-0.8226,-0.5567,-0.0120
6.4170,-0.8226,-0.5567,-0.0120
6.4370,-0.8124,-0.5433,0.0166
6.4380,-0.8124,-0.5433,0.0166
6.4390,-0.8124,-0.5433,0.0166
6.4570,-0.8116,-0.5452,0.0279
6.4590,-0.8116,-0.5452,0.0279
6.4600,-0.8116,-0.5452,0.0279
6.4730,-0.7972,-0.5555,-0.0137
6.5650,-0.7972,-0.5555,-0.0137
6.5660,-0.7972,-0.5555,-0.0137
6.5660,-0.7972,-0.5555,-0.0137
6.5660,-0.7972,-0.5555,-0.0137
6.5660,-0.7984,-0.5670,-0.0530
6.5660,-0.7984,-0.5670,-0.0530
6.5670,-0.7984,-0.5670,-0.0530
6.5670,-0.8463,-0.5721,0.0010
6.5670,-0.8463,-0.5721,0.0010
6.5670,-0.8463,-0.5721,0.0010
6.5670,-0.8673,-0.5406,0.0283
6.5680,-0.8673,-0.5406,0.0283
6.5680,-0.8673,-0.5406,0.0283
6.5680,-0.8378,-0.5279,-0.0210
6.5680,-0.8378,-0.5279,-0.0210
6.5690,-0.8378,-0.5279,-0.0210
6.5690,-0.8378,-0.5279,-0.0210
6.5690,-0.8378,-0.5279,-0.0210
6.5710,-0.7652,-0.5548,-0.0457
6.5720,-0.7652,-0.5548,-0.0457
6.5720,-0.7652,-0.5548,-0.0457
6.5920,-0.7652,-0.5548,-0.0457
6.5920,-0.7710,-0.5609,-0.0254
6.5930,-0.7710,-0.5609,-0.0254
6.5930,-0.7710,-0.5609,-0.0254
6.6140,-0.8341,-0.5418,-0.0083
6.6150,-0.8341,-0.5418,-0.0083
6.6160,-0.8341,-0.5418,-0.0083
6.6330,-0.8285,-0.5337,-0.0174
6.6340,-0.8285,-0.5337,-0.0174
6.6340,-0.8285,-0.5337,-0.0174
6.6350,-0.8285,-0.5337,-0.0174
6.6350,-0.8285,-0.5337,-0.0174
6.6560,-0.8258,-0.5460,0.0015
6.6570,-0.8258,-0.5460,0.0015
6.6580,-0.8258,-0.5460,0.0015
6.6730,-0.8334,-0.5421,-0.0002
6.6740,-0.8334,-0.5421,-0.0002
6.6750,-0.8334,-0.5421,-0.0002
6.6940,-0.8676,-0.5311,-0.0213
6.6950,-0.8676,-0.5311,-0.0213
6.6960,-0.8676,-0.5311,-0.0213
6.7140,-0.8522,-0.5438,-0.0269
6.7140,-0.8522,-0.5438,-0.0269
6.7170,-0.8522,-0.5438,-0.0269
6.7180,-0.8522,-0.5438,-0.0269
6.7190,-0.8522,-0.5438,-0.0269
6.7330,-0.8187,-0.5506,-0.0056
6.7330,-0.8187,-0.5506,-0.0056
6.7340,-0.8187,-0.5506,-0.0056
6.7510,-0.7999,-0.5355,-0.0037
6.7520,-0.7999,-0.5355,-0.0037
6.7560,-0.7999,-0.5355,-0.0037
6.7710,-0.7845,-0.5240,-0.0291
6.7740,-0.7845,-0.5240,-0.0291
6.7750,-0.7845,-0.5240,-0.0291
6.7890,-0.7845,-0.5240,-0.0291
6.7940,-0.7473,-0.5462,-0.0271
6.7960,-0.7473,-0.5462,-0.0271
6.7960,-0.7473,-0.5462,-0.0271
6.7970,-0.7473,-0.5462,-0.0271
6.7970,-0.7473,-0.5462,-0.0271
6.8150,-0.8204,-0.5902,0.0342
6.8170,-0.8204,-0.5902,0.0342
6.8170,-0.8204,-0.5902,0.0342
6.8330,-0.8060,-0.5834,0.0259
6.8340,-0.8060,-0.5834,0.0259
6.8340,-0.8060,-0.5834,0.0259
6.8540,-0.7847,-0.5465,-0.0120
6.8540,-0.7847,-0.5465,-0.0120
6.8550,-0.7847,-0.5465,-0.0120
6.8710,-0.8150,-0.5428,0.0095
6.8720,-0.8150,-0.5428,0.0095
6.8730,-0.8150,-0.5428,0.0095
6.8730,-0.8150,-0.5428,0.0095
6.8740,-0.8150,-0.5428,0.0095
6.8930,-0.7967,-0.5584,0.0244
6.8930,-0.7967,-0.5584,0.0244
6.8940,-0.7967,-0.5584,0.0244
6.9140,-0.8040,-0.5562,0.0381
6.9140,-0.8040,-0.5562,0.0381
6.9150,-0.8040,-0.5562,0.0381
6.9330,-0.8260,-0.5254,0.0137
6.9340,-0.8260,-0.5254,0.0137
6.9340,-0.8260,-0.5254,0.0137
6.9510,-0.8055,-0.5144,-0.0528
6.9520,-0.8055,-0.5144,-0.0528
6.9520,-0.8055,-0.5144,-0.0528
6.9520,-0.8055,-0.5144,-0.0528
6.9530,-0.8055,-0.5144,-0.0528
6.9740,-0.8502,-0.5516,-0.0127
6.9750,-0.8502,-0.5516,-0.0127
6.9750,-0.8502,-0.5516,-0.0127
6.9850,-0.8502,-0.5516,-0.0127
6.9880,-0.8681,-0.5484,0.0002
6.9890,-0.8681,-0.5484,0.0002
6.9890,-0.8681,-0.5484,0.0002
7.0080,-0.8307,-0.5323,-0.0286
7.0080,-0.8307,-0.5323,-0.0286
7.0090,-0.8307,-0.5323,-0.0286
7.0590,-0.8390,-0.5320,-0.0244
7.0590,-0.8390,-0.5320,-0.0244
7.0600,-0.8390,-0.5320,-0.0244
7.0600,-0.8390,-0.5320,-0.0244
7.0600,-0.8390,-0.5320,-0.0244
7.0600,-0.8290,-0.5477,-0.0166
7.0600,-0.8290,-0.5477,-0.0166
7.0600,-0.8290,-0.5477,-0.0166
7.0680,-0.8224,-0.5626,-0.0374
7.0680,-0.8224,-0.5626,-0.0374
7.0690,-0.8224,-0.5626,-0.0374
7.0940,-0.8610,-0.5643,-0.0090
7.0940,-0.8610,-0.5643,-0.0090
7.0950,-0.8610,-0.5643,-0.0090
7.1110,-0.8429,-0.5501,0.0000
7.1120,-0.8429,-0.5501,0.0000
7.1120,-0.8429,-0.5501,0.0000
7.1120,-0.8429,-0.5501,0.0000
7.1120,-0.8429,-0.5501,0.0000
7.1330,-0.8136,-0.5377,-0.0205
7.1330,-0.8136,-0.5377,-0.0205
7.1330,-0.8136,-0.5377,-0.0205
7.1480,-0.8422,-0.5345,0.0200
7.1480,-0.8422,-0.5345,0.0200
7.1480,-0.8422,-0.5345,0.0200
7.1700,-0.8273,-0.5386,0.0017
7.1700,-0.8273,-0.5386,0.0017
7.1700,-0.8273,-0.5386,0.0017
7.1840,-0.8273,-0.5386,0.0017
7.1860,-0.7784,-0.5633,-0.0205
7.1870,-0.7784,-0.5633,-0.0205
7.1870,-0.7784,-0.5633,-0.0205
7.1880,-0.7784,-0.5633,-0.0205
7.1880,-0.7784,-0.5633,-0.0205
7.2110,-0.7772,-0.5748,-0.0152
7.2110,-0.7772,-0.5748,-0.0152
7.2110,-0.7772,-0.5748,-0.0152
7.2300,-0.8295,-0.5528,0.0181
7.2300,-0.8295,-0.5528,0.0181
7.2300,-0.8295,-0.5528,0.0181
7.2470,-0.8241,-0.5249,0.0396
7.2480,-0.8241,-0.5249,0.0396
7.2480,-0.8241,-0.5249,0.0396
7.2700,-0.8343,-0.5206,0.0164
7.2700,-0.8343,-0.5206,0.0164
7.2700,-0.8343,-0.5206,0.0164
7.2700,-0.8343,-0.5206,0.0164
7.2700,-0.8343,-0.5206,0.0164
7.2940,-0.7838,-0.5467,0.0051
7.2950,-0.7838,-0.5467,0.0051
7.2950,-0.7838,-0.5467,0.0051
7.3130,-0.7737,-0.5704,0.0059
7.3140,-0.7737,-0.5704,0.0059
7.3140,-0.7737,-0.5704,0.0059
7.3310,-0.8282,-0.5535,0.0193
7.3310,-0.8282,-0.5535,0.0193
7.3310,-0.8282,-0.5535,0.0193
7.3540,-0.8610,-0.5252,0.0367
7.3550,-0.8610,-0.5252,0.0367
7.3550,-0.8610,-0.5252,0.0367
7.3550,-0.8610,-0.5252,0.0367
7.3550,-0.8610,-0.5252,0.0367
7.3740,-0.8119,-0.5301,0.0193
7.3740,-0.8119,-0.5301,0.0193
7.3740,-0.8119,-0.5301,0.0193
7.3860,-0.8119,-0.5301,0.0193
7.3870,-0.7786,-0.5496,-0.0007
7.3870,-0.7786,-0.5496,-0.0007
7.3870,-0.7786,-0.5496,-0.0007
7.4150,-0.8099,-0.5416,0.0105
7.4150,-0.8099,-0.5416,0.0105
7.4150,-0.8099,-0.5416,0.0105
7.4330,-0.8439,-0.5289,0.0230
7.4330,-0.8439,-0.5289,0.0230
7.4340,-0.8439,-0.5289,0.0230
7.4340,-0.8439,-0.5289,0.0230
7.4340,-0.8439,-0.5289,0.0230
7.4540,-0.8353,-0.5467,0.0110
7.4540,-0.8353,-0.5467,0.0110
7.4540,-0.8353,-0.5467,0.0110
7.4710,-0.8270,-0.5672,0.0056
7.4710,-0.8270,-0.5672,0.0056
7.4720,-0.8270,-0.5672,0.0056
7.4890,-0.8297,-0.5728,0.0034
7.4890,-0.8297,-0.5728,0.0034
7.4900,-0.8297,-0.5728,0.0034
7.5110,-0.8067,-0.5577,-0.0095
7.5110,-0.8067,-0.5577,-0.0095
7.5120,-0.8067,-0.5577,-0.0095
7.5120,-0.8067,-0.5577,-0.0095
7.5120,-0.8067,-0.5577,-0.0095
7.5300,-0.8094,-0.5369,-0.0061
7.5300,-0.8094,-0.5369,-0.0061
7.5310,-0.8094,-0.5369,-0.0061
7.5480,-0.8402,-0.5423,0.0325
7.5480,-0.8402,-0.5423,0.0325
7.5490,-0.8402,-0.5423,0.0325
7.5680,-0.8422,-0.5474,0.0220
7.5680,-0.8422,-0.5474,0.0220
7.5680,-0.8422,-0.5474,0.0220
7.6110,-0.8422,-0.5474,0.0220
7.6120,-0.8006,-0.5347,-0.0200
7.6120,-0.8006,-0.5347,-0.0200
7.6120,-0.8006,-0.5347,-0.0200
7.6120,-0.8006,-0.5347,-0.0200
7.6120,-0.8006,-0.5347,-0.0200
7.6120,-0.8168,-0.5198,-0.0261
7.6120,-0.8168,-0.5198,-0.0261
7.6120,-0.8168,-0.5198,-0.0261
7.6330,-0.8622,-0.5291,0.0068
7.6330,-0.8622,-0.5291,0.0068
7.6330,-0.8622,-0.5291,0.0068
7.6330,-0.8622,-0.5291,0.0068
7.6480,-0.8133,-0.5350,-0.0068
7.6480,-0.8133,-0.5350,-0.0068
7.6490,-0.8133,-0.5350,-0.0068
7.6650,-0.8077,-0.5372,-0.0125
7.6660,-0.8077,-0.5372,-0.0125
7.6660,-0.8077,-0.5372,-0.0125
7.6660,-0.8077,-0.5372,-0.0125
7.6660,-0.8077,-0.5372,-0.0125
7.6890,-0.8290,-0.5367,0.0061
7.6890,-0.8290,-0.5367,0.0061
7.6890,-0.8290,-0.5367,0.0061
7.7090,-0.8163,-0.5403,0.0068
7.7090,-0.8163,-0.5403,0.0068
7.7090,-0.8163,-0.5403,0.0068
7.7280,-0.7908,-0.5526,0.0193
7.7280,-0.7908,-0.5526,0.0193
7.7280,-0.7908,-0.5526,0.0193
7.7480,-0.7965,-0.5472,0.0090
7.7480,-0.7965,-0.5472,0.0090
7.7480,-0.7965,-0.5472,0.0090
7.7490,-0.7965,-0.5472,0.0090
7.7490,-0.7965,-0.5472,0.0090
7.7760,-0.7872,-0.5496,0.0037
7.7760,-0.7872,-0.5496,0.0037
7.7760,-0.7872,-0.5496,0.0037
7.7820,-0.7872,-0.5496,0.0037
7.7890,-0.8211,-0.5670,0.0159
7.7890,-0.8211,-0.5670,0.0159
7.7890,-0.8211,-0.5670,0.0159
7.8090,-0.8048,-0.5496,0.0127
7.8090,-0.8048,-0.5496,0.0127
7.8100,-0.8048,-0.5496,0.0127
7.8280,-0.8031,-0.5166,0.0024
7.8280,-0.8031,-0.5166,0.0024
7.8290,-0.8031,-0.5166,0.0024
7.8290,-0.8031,-0.5166,0.0024
7.8290,-0.8031,-0.5166,0.0024
7.8480,-0.8270,-0.5274,0.0183
7.8490,-0.8270,-0.5274,0.0183
7.8490,-0.8270,-0.5274,0.0183
7.8640,-0.8202,-0.5491,0.0183
7.8640,-0.8202,-0.5491,0.0183
7.8650,-0.8202,-0.5491,0.0183
7.8860,-0.8175,-0.5403,0.0181
7.8860,-0.8175,-0.5403,0.0181
7.8870,-0.8175,-0.5403,0.0181
7.9060,-0.8265,-0.5318,0.0215
7.9060,-0.8265,-0.5318,0.0215
7.9060,-0.8265,-0.5318,0.0215
7.9060,-0.8265,-0.5318,0.0215
7.9060,-0.8265,-0.5318,0.0215
7.9300,-0.8417,-0.5377,0.0181
7.9300,-0.8417,-0.5377,0.0181
7.9300,-0.8417,-0.5377,0.0181
7.9470,-0.8273,-0.5469,0.0213
7.9480,-0.8273,-0.5469,0.0213
7.9480,-0.8273,-0.5469,0.0213
7.9670,-0.8094,-0.5579,0.0078
7.9680,-0.8094,-0.5579,0.0078
7.9680,-0.8094,-0.5579,0.0078
7.9820,-0.8094,-0.5579,0.0078
7.9860,-0.8124,-0.5685,-0.0049
7.9860,-0.8124,-0.5685,-0.0049
7.9860,-0.8124,-0.5685,-0.0049
7.9870,-0.8124,-0.5685,-0.0049
7.9870,-0.8124,-0.5685,-0.0049
8.0100,-0.8146,-0.5777,0.0134
8.0100,-0.8146,-0.5777,0.0134
8.0100,-0.8146,-0.5777,0.0134
8.0270,-0.8141,-0.5704,-0.0044
8.0270,-0.8141,-0.5704,-0.0044
8.0270,-0.8141,-0.5704,-0.0044
8.0450,-0.8383,-0.5504,-0.0012
8.0460,-0.8383,-0.5504,-0.0012
8.0460,-0.8383,-0.5504,-0.0012
8.0640,-0.8700,-0.5440,0.0225
8.0640,-0.8700,-0.5440,0.0225
8.0640,-0.8700,-0.5440,0.0225
8.0640,-0.8700,-0.5440,0.0225
8.0650,-0.8700,-0.5440,0.0225
8.0870,-0.8387,-0.5457,-0.0007
8.0870,-0.8387,-0.5457,-0.0007
8.0870,-0.8387,-0.5457,-0.0007
8.1060,-0.8116,-0.5411,-0.0291
8.1060,-0.8116,-0.5411,-0.0291
8.1060,-0.8116,-0.5411,-0.0291
8.1240,-0.8485,-0.5274,-0.0093
8.1640,-0.8485,-0.5274,-0.0093
8.1640,-0.8485,-0.5274,-0.0093
8.1640,-0.8260,-0.5223,0.0054
8.1640,-0.8260,-0.5223,0.0054
8.1640,-0.8260,-0.5223,0.0054
8.1640,-0.8260,-0.5223,0.0054
8.1640,-0.8260,-0.5223,0.0054
8.1650,-0.8070,-0.5301,-0.0110
8.1650,-0.8070,-0.5301,-0.0110
8.1650,-0.8070,-0.5301,-0.0110
8.1850,-0.8070,-0.5301,-0.0110
8.1860,-0.8233,-0.5308,-0.0073
8.1860,-0.8233,-0.5308,-0.0073
8.1870,-0.8233,-0.5308,-0.0073
8.2020,-0.8141,-0.5281,0.0149
8.2030,-0.8141,-0.5281,0.0149
8.2030,-0.8141,-0.5281,0.0149
8.2220,-0.7933,-0.5267,0.0147
8.2230,-0.7933,-0.5267,0.0147
8.2230,-0.7933,-0.5267,0.0147
8.2230,-0.7933,-0.5267,0.0147
8.2230,-0.7933,-0.5267,0.0147
8.2430,-0.7693,-0.5457,0.0139
8.2430,-0.7693,-0.5457,0.0139
8.2430,-0.7693,-0.5457,0.0139
8.2620,-0.7605,-0.5804,0.0196
8.2620,-0.7605,-0.5804,0.0196
8.2620,-0.7605,-0.5804,0.0196
8.2820,-0.7816,-0.5914,0.0095
8.2830,-0.7816,-0.5914,0.0095
8.2830,-0.7816,-0.5914,0.0095
8.3020,-0.7806,-0.5711,0.0161
8.3020,-0.7806,-0.5711,0.0161
8.3020,-0.7806,-0.5711,0.0161
8.3030,-0.7806,-0.5711,0.0161
8.3030,-0.7806,-0.5711,0.0161
8.3230,-0.7816,-0.5359,-0.0012
8.3240,-0.7816,-0.5359,-0.0012
8.3240,-0.7816,-0.5359,-0.0012
8.3450,-0.8290,-0.5262,0.0034
8.3450,-0.8290,-0.5262,0.0034
8.3460,-0.8290,-0.5262,0.0034
8.3630,-0.8527,-0.5364,0.0100
8.3630,-0.8527,-0.5364,0.0100
8.3630,-0.8527,-0.5364,0.0100
8.3770,-0.8527,-0.5364,0.0100
8.3820,-0.8370,-0.5494,0.0139
8.3820,-0.8370,-0.5494,0.0139
8.3820,-0.8370,-0.5494,0.0139
8.3830,-0.8370,-0.5494,0.0139
8.3830,-0.8370,-0.5494,0.0139
8.4020,-0.8419,-0.5430,0.0022
8.4030,-0.8419,-0.5430,0.0022
8.4030,-0.8419,-0.5430,0.0022
8.4260,-0.8556,-0.5474,0.0012
8.4260,-0.8556,-0.5474,0.0012
8.4260,-0.8556,-0.5474,0.0012
8.4270,-0.8556,-0.5474,0.0012
8.4430,-0.8559,-0.5555,0.0125
8.4430,-0.8559,-0.5555,0.0125
8.4430,-0.8559,-0.5555,0.0125
8.4620,-0.8434,-0.5479,-0.0022
8.4620,-0.8434,-0.5479,-0.0022
8.4620,-0.8434,-0.5479,-0.0022
8.4620,-0.8434,-0.5479,-0.0022
8.4620,-0.8434,-0.5479,-0.0022
8.4820,-0.8287,-0.5421,-0.0232
8.4820,-0.8287,-0.5421,-0.0232
8.4820,-0.8287,-0.5421,-0.0232
8.5060,-0.8414,-0.5457,-0.0196
8.5060,-0.8414,-0.5457,-0.0196
8.5060,-0.8414,-0.5457,-0.0196
8.5210,-0.8363,-0.5465,-0.0181
8.5220,-0.8363,-0.5465,-0.0181
8.5220,-0.8363,-0.5465,-0.0181
8.5410,-0.7984,-0.5359,-0.0210
8.5420,-0.7984,-0.5359,-0.0210
8.5420,-0.7984,-0.5359,-0.0210
8.5420,-0.7984,-0.5359,-0.0210
8.5420,-0.7984,-0.5359,-0.0210
8.5610,-0.7723,-0.5389,-0.0237
8.5610,-0.7723,-0.5389,-0.0237
8.5610,-0.7723,-0.5389,-0.0237
8.5770,-0.7723,-0.5389,-0.0237
8.5820,-0.8124,-0.5418,-0.0029
8.5830,-0.8124,-0.5418,-0.0029
8.5830,-0.8124,-0.5418,-0.0029
8.6010,-0.8568,-0.5364,0.0176
8.6010,-0.8568,-0.5364,0.0176
8.6010,-0.8568,-0.5364,0.0176
8.6210,-0.7928,-0.5465,-0.0310
8.6210,-0.7928,-0.5465,-0.0310
8.6210,-0.7928,-0.5465,-0.0310
8.6220,-0.7928,-0.5465,-0.0310
8.6220,-0.7928,-0.5465,-0.0310
8.6410,-0.8111,-0.5601,-0.0208
8.6410,-0.8111,-0.5601,-0.0208
8.6410,-0.8111,-0.5601,-0.0208
8.6630,-0.8578,-0.5528,0.0222
8.6630,-0.8578,-0.5528,0.0222
8.7000,-0.8578,-0.5528,0.0222
8.7000,-0.8361,-0.5445,0.0103
8.7000,-0.8361,-0.5445,0.0103
8.7000,-0.8361,-0.5445,0.0103
8.7000,-0.7855,-0.5606,-0.0086
8.7000,-0.7855,-0.5606,-0.0086
8.7000,-0.7855,-0.5606,-0.0086
8.7010,-0.7855,-0.5606,-0.0086
8.7190,-0.7794,-0.5548,-0.0269
8.7190,-0.7794,-0.5548,-0.0269
8.7190,-0.7794,-0.5548,-0.0269
8.7390,-0.8229,-0.5347,0.0081
8.7390,-0.8229,-0.5347,0.0081
8.7390,-0.8229,-0.5347,0.0081
8.7590,-0.8361,-0.5298,0.0142
8.7590,-0.8361,-0.5298,0.0142
8.7590,-0.8361,-0.5298,0.0142
8.7730,-0.8361,-0.5298,0.0142
8.7790,-0.8040,-0.5342,-0.0274
8.7790,-0.8040,-0.5342,-0.0274
8.7800,-0.8040,-0.5342,-0.0274
8.7800,-0.8040,-0.5342,-0.0274
8.7800,-0.8040,-0.5342,-0.0274
8.7990,-0.8143,-0.5643,0.0144
8.7990,-0.8143,-0.5643,0.0144
8.7990,-0.8143,-0.5643,0.0144
8.8190,-0.8119,-0.5685,0.0418
8.8190,-0.8119,-0.5685,0.0418
8.8200,-0.8119,-0.5685,0.0418
8.8390,-0.7794,-0.5450,0.0117
8.8390,-0.7794,-0.5450,0.0117
8.8390,-0.7794,-0.5450,0.0117
8.8610,-0.7933,-0.5379,-0.0032
8.8620,-0.7933,-0.5379,-0.0032
8.8620,-0.7933,-0.5379,-0.0032
8.8630,-0.7933,-0.5379,-0.0032
8.8630,-0.7933,-0.5379,-0.0032
8.8790,-0.8304,-0.5523,0.0166
8.8800,-0.8304,-0.5523,0.0166
8.8800,-0.8304,-0.5523,0.0166
8.9000,-0.8177,-0.5496,-0.0012
8.9000,-0.8177,-0.5496,-0.0012
8.9000,-0.8177,-0.5496,-0.0012
8.9210,-0.7974,-0.5440,-0.0318
8.9210,-0.7974,-0.5440,-0.0318
8.9210,-0.7974,-0.5440,-0.0318
8.9390,-0.8197,-0.5462,-0.0291
8.9390,-0.8197,-0.5462,-0.0291
8.9390,-0.8197,-0.5462,-0.0291
8.9400,-0.8197,-0.5462,-0.0291
8.9400,-0.8197,-0.5462,-0.0291
8.9590,-0.8585,-0.5496,0.0051
8.9600,-0.8585,-0.5496,0.0051
8.9600,-0.8585,-0.5496,0.0051
8.9740,-0.8585,-0.5496,0.0051
8.9760,-0.8561,-0.5445,0.0122
8.9760,-0.8561,-0.5445,0.0122
8.9760,-0.8561,-0.5445,0.0122
8.9980,-0.8593,-0.5460,-0.0117
8.9990,-0.8593,-0.5460,-0.0117
8.9990,-0.8593,-0.5460,-0.0117
9.0170,-0.8312,-0.5663,-0.0235
9.0170,-0.8312,-0.5663,-0.0235
9.0180,-0.8312,-0.5663,-0.0235
9.0210,-0.8312,-0.5663,-0.0235
9.0210,-0.8312,-0.5663,-0.0235
9.0370,-0.8282,-0.5709,-0.0122
9.0370,-0.8282,-0.5709,-0.0122
9.0370,-0.8282,-0.5709,-0.0122
9.0580,-0.8373,-0.5577,0.0024
9.0580,-0.8373,-0.5577,0.0024
9.0580,-0.8373,-0.5577,0.0024
9.0780,-0.8055,-0.5575,-0.0208
9.0780,-0.8055,-0.5575,-0.0208
9.0780,-0.8055,-0.5575,-0.0208
9.0980,-0.7855,-0.5557,-0.0320
9.0990,-0.7855,-0.5557,-0.0320
9.0990,-0.7855,-0.5557,-0.0320
9.0990,-0.7855,-0.5557,-0.0320
9.0990,-0.7855,-0.5557,-0.0320
9.1170,-0.8370,-0.5430,0.0024
9.1170,-0.8370,-0.5430,0.0024
9.1170,-0.8370,-0.5430,0.0024
9.1360,-0.7965,-0.5457,0.0017
9.1370,-0.7965,-0.5457,0.0017
9.1370,-0.7965,-0.5457,0.0017
9.1580,-0.7525,-0.5555,-0.0166
9.1580,-0.7525,-0.5555,-0.0166
9.1580,-0.7525,-0.5555,-0.0166
9.1760,-0.7525,-0.5555,-0.0166
9.1760,-0.8097,-0.5523,-0.0303
9.1770,-0.8097,-0.5523,-0.0303
9.1770,-0.8097,-0.5523,-0.0303
9.1810,-0.8097,-0.5523,-0.0303
9.1810,-0.8097,-0.5523,-0.0303
9.1980,-0.8581,-0.5584,-0.0005
9.1980,-0.8581,-0.5584,-0.0005
9.1990,-0.8581,-0.5584,-0.0005
9.2150,-0.8581,-0.5584,-0.0005
9.2150,-0.8634,-0.5489,0.0154
9.2680,-0.8634,-0.5489,0.0154
9.2680,-0.8634,-0.5489,0.0154
9.2680,-0.8211,-0.5377,-0.0235
9.2680,-0.8211,-0.5377,-0.0235
9.2680,-0.8211,-0.5377,-0.0235
9.2680,-0.8126,-0.5474,-0.0098
9.2680,-0.8126,-0.5474,-0.0098
9.2680,-0.8126,-0.5474,-0.0098
9.2680,-0.8126,-0.5474,-0.0098
9.2690,-0.8126,-0.5474,-0.0098
9.2750,-0.8062,-0.5523,0.0100
9.2750,-0.8062,-0.5523,0.0100
9.2750,-0.8062,-0.5523,0.0100
9.2950,-0.8075,-0.5528,-0.0100
9.2960,-0.8075,-0.5528,-0.0100
9.2960,-0.8075,-0.5528,-0.0100
9.3150,-0.7691,-0.5518,-0.0249
9.3150,-0.7691,-0.5518,-0.0249
9.3160,-0.7691,-0.5518,-0.0249
9.3340,-0.8001,-0.5584,0.0090
9.3350,-0.8001,-0.5584,0.0090
9.3350,-0.8001,-0.5584,0.0090
9.3380,-0.8001,-0.5584,0.0090
9.3380,-0.8001,-0.5584,0.0090
9.3550,-0.8172,-0.5599,0.0215
9.3550,-0.8172,-0.5599,0.0215
9.3550,-0.8172,-0.5599,0.0215
9.3680,-0.8172,-0.5599,0.0215
9.3750,-0.8141,-0.5479,-0.0056
9.3750,-0.8141,-0.5479,-0.0056
9.3760,-0.8141,-0.5479,-0.0056
9.3950,-0.8236,-0.5391,-0.0196
9.3950,-0.8236,-0.5391,-0.0196
9.3950,-0.8236,-0.5391,-0.0196
9.4160,-0.8236,-0.5391,-0.0196
9.4160,-0.8400,-0.5394,0.0044
9.4160,-0.8400,-0.5394,0.0044
9.4170,-0.8400,-0.5394,0.0044
9.4170,-0.8400,-0.5394,0.0044
9.4170,-0.8400,-0.5394,0.0044
9.4360,-0.8128,-0.5306,0.0071
9.4360,-0.8128,-0.5306,0.0071
9.4360,-0.8128,-0.5306,0.0071
9.4550,-0.8163,-0.5408,0.0166
9.4560,-0.8163,-0.5408,0.0166
9.4560,-0.8163,-0.5408,0.0166
9.4770,-0.8199,-0.5577,-0.0059
9.4770,-0.8199,-0.5577,-0.0059
9.4770,-0.8199,-0.5577,-0.0059
9.4970,-0.8168,-0.5413,-0.0423
9.4970,-0.8168,-0.5413,-0.0423
9.4970,-0.8168,-0.5413,-0.0423
9.4970,-0.8168,-0.5413,-0.0423
9.4980,-0.8168,-0.5413,-0.0423
9.5160,-0.8075,-0.5140,-0.0753
9.5160,-0.8075,-0.5140,-0.0753
9.5160,-0.8075,-0.5140,-0.0753
9.5380,-0.8573,-0.5176,-0.0247
9.5390,-0.8573,-0.5176,-0.0247
9.5390,-0.8573,-0.5176,-0.0247
9.5550,-0.8857,-0.5333,0.0095
9.5550,-0.8857,-0.5333,0.0095
9.5560,-0.8857,-0.5333,0.0095
9.5740,-0.8857,-0.5333,0.0095
9.5750,-0.8595,-0.5433,-0.0002
9.5750,-0.8595,-0.5433,-0.0002
9.5750,-0.8595,-0.5433,-0.0002
9.5760,-0.8595,-0.5433,-0.0002
9.5760,-0.8595,-0.5433,-0.0002
9.5950,-0.8253,-0.5337,-0.0442
9.5960,-0.8253,-0.5337,-0.0442
9.5960,-0.8253,-0.5337,-0.0442
9.6170,-0.8314,-0.5428,-0.0543
9.6170,-0.8314,-0.5428,-0.0543
9.6170,-0.8314,-0.5428,-0.0543
9.6350,-0.8084,-0.5721,-0.0027
9.6350,-0.8084,-0.5721,-0.0027
9.6360,-0.8084,-0.5721,-0.0027
9.6560,-0.7654,-0.5579,0.0103
9.6580,-0.7654,-0.5579,0.0103
9.6600,-0.7654,-0.5579,0.0103
9.6600,-0.7654,-0.5579,0.0103
9.6610,-0.7654,-0.5579,0.0103
9.6740,-0.7786,-0.5337,-0.0007
9.6750,-0.7786,-0.5337,-0.0007
9.6750,-0.7786,-0.5337,-0.0007
9.6970,-0.8453,-0.5242,-0.0130
9.6970,-0.8453,-0.5242,-0.0130
9.6980,-0.8453,-0.5242,-0.0130
9.7150,-0.8720,-0.5347,0.0381
9.7160,-0.8720,-0.5347,0.0381
9.7160,-0.8720,-0.5347,0.0381
9.7360,-0.8546,-0.5169,0.0242
9.7370,-0.8546,-0.5169,0.0242
9.7370,-0.8546,-0.5169,0.0242
9.7380,-0.8546,-0.5169,0.0242
9.7390,-0.8546,-0.5169,0.0242
9.7550,-0.8087,-0.5166,0.0054
9.7560,-0.8087,-0.5166,0.0054
9.7560,-0.8087,-0.5166,0.0054
9.8530,-0.8087,-0.5166,0.0054
9.8530,-0.7527,-0.5408,-0.0046
9.8530,-0.7527,-0.5408,-0.0046
9.8530,-0.7527,-0.5408,-0.0046
9.8540,-0.7857,-0.5345,-0.0362
9.8540,-0.7857,-0.5345,-0.0362
9.8540,-0.7857,-0.5345,-0.0362
9.8540,-0.8343,-0.5325,-0.0132
9.8540,-0.8343,-0.5325,-0.0132
9.8540,-0.8343,-0.5325,-0.0132
9.8550,-0.8343,-0.5325,-0.0132
9.8550,-0.8343,-0.5325,-0.0132
9.8550,-0.8913,-0.5262,0.0445
9.8550,-0.8913,-0.5262,0.0445
9.8550,-0.8913,-0.5262,0.0445
9.8560,-0.8559,-0.5154,0.0046
9.8560,-0.8559,-0.5154,0.0046
9.8560,-0.8559,-0.5154,0.0046
9.8710,-0.8136,-0.5198,-0.0247
9.8710,-0.8136,-0.5198,-0.0247
9.8720,-0.8136,-0.5198,-0.0247
9.8930,-0.8625,-0.5306,-0.0276
9.8940,-0.8625,-0.5306,-0.0276
9.8940,-0.8625,-0.5306,-0.0276
9.8950,-0.8625,-0.5306,-0.0276
9.8960,-0.8625,-0.5306,-0.0276
9.9140,-0.8488,-0.5579,0.0095
9.9150,-0.8488,-0.5579,0.0095
9.9150,-0.8488,-0.5579,0.0095
9.9320,-0.8248,-0.5472,0.0257
9.9330,-0.8248,-0.5472,0.0257
9.9340,-0.8248,-0.5472,0.0257
9.9520,-0.8209,-0.5176,-0.0159
9.9540,-0.8209,-0.5176,-0.0159
9.9540,-0.8209,-0.5176,-0.0159
9.9660,-0.8209,-0.5176,-0.0159
9.9740,-0.8204,-0.5091,-0.0411
9.9740,-0.8204,-0.5091,-0.0411
9.9760,-0.8204,-0.5091,-0.0411
9.9780,-0.8204,-0.5091,-0.0411
9.9780,-0.8204,-0.5091,-0.0411
9.9940,-0.8483,-0.5174,0.0098
9.9950,-0.8483,-0.5174,0.0098
9.9950,-0.8483,-0.5174,0.0098
10.0130,-0.8483,-0.5174,0.0098
10.0140,-0.8659,-0.5201,0.0227
10.0150,-0.8659,-0.5201,0.0227
10.0160,-0.8659,-0.5201,0.0227
10.0340,-0.8339,-0.5384,0.0318
10.0340,-0.8339,-0.5384,0.0318
10.0370,-0.8339,-0.5384,0.0318
10.0590,-0.7918,-0.5284,-0.0115
10.0600,-0.7918,-0.5284,-0.0115
10.0600,-0.7918,-0.5284,-0.0115
10.0610,-0.7918,-0.5284,-0.0115
10.0610,-0.7918,-0.5284,-0.0115
10.0750,-0.8163,-0.5181,-0.0357
10.0750,-0.8163,-0.5181,-0.0357
10.0760,-0.8163,-0.5181,-0.0357
10.0960,-0.8444,-0.5274,0.0196
10.0970,-0.8444,-0.5274,0.0196
10.0980,-0.8444,-0.5274,0.0196
10.1170,-0.8295,-0.5225,0.0376
10.1180,-0.8295,-0.5225,0.0376
10.1190,-0.8295,-0.5225,0.0376
10.1350,-0.8055,-0.5115,0.0249
10.1370,-0.8055,-0.5115,0.0249
10.1370,-0.8055,-0.5115,0.0249
10.1380,-0.8055,-0.5115,0.0249
10.1390,-0.8055,-0.5115,0.0249
10.1540,-0.8356,-0.5032,-0.0210
10.1550,-0.8356,-0.5032,-0.0210
10.1560,-0.8356,-0.5032,-0.0210
10.1650,-0.8356,-0.5032,-0.0210
10.1740,-0.8647,-0.5171,-0.0044
10.1780,-0.8647,-0.5171,-0.0044
10.1790,-0.8647,-0.5171,-0.0044
10.1950,-0.8356,-0.5271,0.0130
10.1960,-0.8356,-0.5271,0.0130
10.1960,-0.8356,-0.5271,0.0130
10.2150,-0.7930,-0.5328,-0.0281
10.2160,-0.7930,-0.5328,-0.0281
10.2170,-0.7930,-0.5328,-0.0281
10.2180,-0.7930,-0.5328,-0.0281
10.2180,-0.7930,-0.5328,-0.0281
10.2370,-0.8165,-0.5271,-0.0166
10.2370,-0.8165,-0.5271,-0.0166
10.2380,-0.8165,-0.5271,-0.0166
10.2570,-0.8248,-0.5176,0.0078
10.2570,-0.8248,-0.5176,0.0078
10.2580,-0.8248,-0.5176,0.0078
10.2700,-0.8138,-0.5367,0.0081
10.2710,-0.8138,-0.5367,0.0081
10.2720,-0.8138,-0.5367,0.0081
10.2940,-0.7977,-0.5570,0.0100
10.2950,-0.7977,-0.5570,0.0100
10.2950,-0.7977,-0.5570,0.0100
10.2960,-0.7977,-0.5570,0.0100
10.2960,-0.7977,-0.5570,0.0100
10.3100,-0.8053,-0.5350,0.0115
10.3970,-0.8053,-0.5350,0.0115
10.3970,-0.8053,-0.5350,0.0115
10.3970,-0.8131,-0.5257,0.0156
10.3970,-0.8131,-0.5257,0.0156
10.3970,-0.8131,-0.5257,0.0156
10.3980,-0.8314,-0.5377,0.0503
10.3980,-0.8314,-0.5377,0.0503
10.3980,-0.8314,-0.5377,0.0503
10.3980,-0.8314,-0.5377,0.0503
10.3980,-0.8546,-0.5298,0.0396
10.3990,-0.8546,-0.5298,0.0396
10.3990,-0.8546,-0.5298,0.0396
10.3990,-0.8546,-0.5298,0.0396
10.3990,-0.8546,-0.5298,0.0396
10.3990,-0.8622,-0.5296,0.0017
10.4000,-0.8622,-0.5296,0.0017
10.4000,-0.8622,-0.5296,0.0017
10.4100,-0.8622,-0.5367,0.0345
10.4100,-0.8622,-0.5367,0.0345
10.4100,-0.8622,-0.5367,0.0345
10.4310,-0.8434,-0.5218,0.0271
10.4310,-0.8434,-0.5218,0.0271
10.4320,-0.8434,-0.5218,0.0271
10.4510,-0.8581,-0.5103,0.0029
10.4520,-0.8581,-0.5103,0.0029
10.4520,-0.8581,-0.5103,0.0029
10.4530,-0.8581,-0.5103,0.0029
10.4530,-0.8581,-0.5103,0.0029
10.4690,-0.8788,-0.5130,0.0024
10.4690,-0.8788,-0.5130,0.0024
10.4700,-0.8788,-0.5130,0.0024
10.4890,-0.8556,-0.5401,0.0054
10.4890,-0.8556,-0.5401,0.0054
10.4900,-0.8556,-0.5401,0.0054
10.5100,-0.8099,-0.5543,-0.0166
10.5110,-0.8099,-0.5543,-0.0166
10.5140,-0.8099,-0.5543,-0.0166
10.5310,-0.7984,-0.5479,-0.0083
10.5320,-0.7984,-0.5479,-0.0083
10.5350,-0.7984,-0.5479,-0.0083
10.5350,-0.7984,-0.5479,-0.0083
10.5360,-0.7984,-0.5479,-0.0083
10.5520,-0.8033,-0.5298,0.0017
10.5530,-0.8033,-0.5298,0.0017
10.5540,-0.8033,-0.5298,0.0017
10.5580,-0.8033,-0.5298,0.0017
10.5680,-0.8224,-0.5201,0.0386
10.5710,-0.8224,-0.5201,0.0386
10.5720,-0.8224,-0.5201,0.0386
10.5920,-0.8304,-0.5184,0.0393
10.5930,-0.8304,-0.5184,0.0393
10.5930,-0.8304,-0.5184,0.0393
10.6100,-0.8150,-0.5171,-0.0090
10.6110,-0.8150,-0.5171,-0.0090
10.6130,-0.8150,-0.5171,-0.0090
10.6150,-0.8150,-0.5171,-0.0090
10.6160,-0.8150,-0.5171,-0.0090
10.6330,-0.8563,-0.5227,-0.0046
10.6330,-0.8563,-0.5227,-0.0046
10.6340,-0.8563,-0.5227,-0.0046
10.6500,-0.8732,-0.5188,0.0127
10.6510,-0.8732,-0.5188,0.0127
10.6520,-0.8732,-0.5188,0.0127
10.6770,-0.8615,-0.5174,0.0007
10.6780,-0.8615,-0.5174,0.0007
10.6790,-0.8615,-0.5174,0.0007
10.6880,-0.8331,-0.5176,-0.0054
10.6890,-0.8331,-0.5176,-0.0054
10.6890,-0.8331,-0.5176,-0.0054
10.6900,-0.8331,-0.5176,-0.0054
10.6910,-0.8331,-0.5176,-0.0054
10.7090,-0.8136,-0.5181,0.0064
10.7110,-0.8136,-0.5181,0.0064
10.7130,-0.8136,-0.5181,0.0064
10.7310,-0.8207,-0.5298,0.0174
10.7320,-0.8207,-0.5298,0.0174
10.7320,-0.8207,-0.5298,0.0174
10.7540,-0.8177,-0.5391,0.0318
10.7540,-0.8177,-0.5391,0.0318
10.7550,-0.8177,-0.5391,0.0318
10.7570,-0.8177,-0.5391,0.0318
10.7740,-0.7850,-0.5306,0.0015
10.7790,-0.7850,-0.5306,0.0015
10.7800,-0.7850,-0.5306,0.0015
10.7800,-0.7850,-0.5306,0.0015
10.7810,-0.7850,-0.5306,0.0015
10.7890,-0.8229,-0.5413,0.0086
10.7890,-0.8229,-0.5413,0.0086
10.7900,-0.8229,-0.5413,0.0086
10.8110,-0.8466,-0.5533,0.0298
10.8120,-0.8466,-0.5533,0.0298
10.8130,-0.8466,-0.5533,0.0298
10.8290,-0.8233,-0.5320,0.0186
10.8300,-0.8233,-0.5320,0.0186
10.8310,-0.8233,-0.5320,0.0186
10.8520,-0.8040,-0.5166,0.0090
10.8550,-0.8040,-0.5166,0.0090
10.8550,-0.8040,-0.5166,0.0090
10.8560,-0.8040,-0.5166,0.0090
10.8570,-0.8040,-0.5166,0.0090
10.9400,-0.8102,-0.5201,0.0042
10.9400,-0.8102,-0.5201,0.0042
10.9400,-0.8102,-0.5201,0.0042
10.9410,-0.8463,-0.5247,0.0303
10.9410,-0.8463,-0.5247,0.0303
10.9410,-0.8463,-0.5247,0.0303
10.9410,-0.8551,-0.4971,0.0398
10.9420,-0.8551,-0.4971,0.0398
10.9420,-0.8551,-0.4971,0.0398
10.9420,-0.8571,-0.4883,0.0056
10.9420,-0.8571,-0.4883,0.0056
10.9420,-0.8571,-0.4883,0.0056
10.9430,-0.8571,-0.4883,0.0056
10.9430,-0.8571,-0.4883,0.0056
10.9460,-0.8627,-0.5196,0.0120
10.9460,-0.8627,-0.5196,0.0120
10.9460,-0.8627,-0.5196,0.0120
10.9550,-0.8627,-0.5196,0.0120
10.9650,-0.8529,-0.5433,0.0279
10.9650,-0.8529,-0.5433,0.0279
10.9650,-0.8529,-0.5433,0.0279
10.9830,-0.8334,-0.5403,0.0220
10.9830,-0.8334,-0.5403,0.0220
10.9830,-0.8334,-0.5403,0.0220
11.0000,-0.8334,-0.5403,0.0220
11.0030,-0.7992,-0.5281,-0.0139
11.0040,-0.7992,-0.5281,-0.0139
11.0040,-0.7992,-0.5281,-0.0139
11.0100,-0.7992,-0.5281,-0.0139
11.0100,-0.7992,-0.5281,-0.0139
11.0270,-0.8006,-0.5411,0.0139
11.0270,-0.8006,-0.5411,0.0139
11.0270,-0.8006,-0.5411,0.0139
11.0540,-0.7992,-0.5506,0.0577
11.0550,-0.7992,-0.5506,0.0577
11.0550,-0.7992,-0.5506,0.0577
11.0720,-0.8216,-0.5396,-0.0088
11.0740,-0.8216,-0.5396,-0.0088
11.0750,-0.8216,-0.5396,-0.0088
11.0850,-0.8461,-0.5469,0.0347
11.0850,-0.8461,-0.5469,0.0347
11.0860,-0.8461,-0.5469,0.0347
11.0860,-0.8461,-0.5469,0.0347
11.0870,-0.8461,-0.5469,0.0347
11.1050,-0.8397,-0.5384,0.0127
11.1050,-0.8397,-0.5384,0.0127
11.1060,-0.8397,-0.5384,0.0127
11.1280,-0.8263,-0.5120,0.0203
11.1300,-0.8263,-0.5120,0.0203
11.1300,-0.8263,-0.5120,0.0203
11.1480,-0.8407,-0.4993,0.0225
11.1530,-0.8407,-0.4993,0.0225
11.1540,-0.8407,-0.4993,0.0225
11.1550,-0.8407,-0.4993,0.0225
11.1650,-0.8243,-0.4976,-0.0205
11.1650,-0.8243,-0.4976,-0.0205
11.1660,-0.8243,-0.4976,-0.0205
11.1660,-0.8243,-0.4976,-0.0205
11.1670,-0.8243,-0.4976,-0.0205
11.1840,-0.8102,-0.5015,-0.0056
11.1840,-0.8102,-0.5015,-0.0056
11.1850,-0.8102,-0.5015,-0.0056
11.1990,-0.8102,-0.5015,-0.0056
11.2030,-0.8329,-0.5220,0.0210
11.2040,-0.8329,-0.5220,0.0210
11.2040,-0.8329,-0.5220,0.0210
11.2270,-0.8341,-0.5254,0.0440
11.2270,-0.8341,-0.5254,0.0440
11.2300,-0.8341,-0.5254,0.0440
11.2440,-0.8603,-0.4981,0.0340
11.2440,-0.8603,-0.4981,0.0340
11.2450,-0.8603,-0.4981,0.0340
11.2450,-0.8603,-0.4981,0.0340
11.2460,-0.8603,-0.4981,0.0340
11.2630,-0.8375,-0.5003,0.0230
11.2640,-0.8375,-0.5003,0.0230
11.2640,-0.8375,-0.5003,0.0230
11.2840,-0.7772,-0.5320,0.0051
11.2840,-0.7772,-0.5320,0.0051
11.2850,-0.7772,-0.5320,0.0051
11.3030,-0.7698,-0.5606,0.0259
11.3040,-0.7698,-0.5606,0.0259
11.3040,-0.7698,-0.5606,0.0259
11.3240,-0.8084,-0.5408,0.0152
11.3250,-0.8084,-0.5408,0.0152
11.3260,-0.8084,-0.5408,0.0152
11.3260,-0.8084,-0.5408,0.0152
11.3270,-0.8084,-0.5408,0.0152
11.3430,-0.8414,-0.5162,-0.0002
11.3440,-0.8414,-0.5162,-0.0002
11.3450,-0.8414,-0.5162,-0.0002
11.3520,-0.8414,-0.5162,-0.0002
11.3630,-0.8512,-0.5098,-0.0056
11.3640,-0.8512,-0.5098,-0.0056
11.3640,-0.8512,-0.5098,-0.0056
11.3820,-0.8339,-0.5210,0.0142
11.3830,-0.8339,-0.5210,0.0142
11.3830,-0.8339,-0.5210,0.0142
11.4050,-0.8431,-0.5223,0.0323
11.4060,-0.8431,-0.5223,0.0323
11.4790,-0.8431,-0.5223,0.0323
11.4800,-0.8431,-0.5223,0.0323
11.4800,-0.8431,-0.5223,0.0323
11.4800,-0.8431,-0.5162,0.0139
11.4800,-0.8431,-0.5162,0.0139
11.4800,-0.8431,-0.5162,0.0139
11.4800,-0.8600,-0.5240,0.0120
11.4800,-0.8600,-0.5240,0.0120
11.4810,-0.8600,-0.5240,0.0120
11.4810,-0.8886,-0.5186,0.0518
11.4810,-0.8886,-0.5186,0.0518
11.4810,-0.8886,-0.5186,0.0518
11.4810,-0.8742,-0.5159,0.0474
11.4810,-0.8742,-0.5159,0.0474
11.4820,-0.8742,-0.5159,0.0474
11.4840,-0.8742,-0.5159,0.0474
11.4840,-0.8742,-0.5159,0.0474
11.5010,-0.8603,-0.5281,0.0066
11.5020,-0.8603,-0.5281,0.0066
11.5020,-0.8603,-0.5281,0.0066
11.5230,-0.8485,-0.5389,-0.0027
11.5230,-0.8485,-0.5389,-0.0027
11.5230,-0.8485,-0.5389,-0.0027
11.5420,-0.8326,-0.5350,0.0076
11.5420,-0.8326,-0.5350,0.0076
11.5430,-0.8326,-0.5350,0.0076
11.5520,-0.8326,-0.5350,0.0076
11.5650,-0.8089,-0.5252,0.0059
11.5660,-0.8089,-0.5252,0.0059
11.5660,-0.8089,-0.5252,0.0059
11.5660,-0.8089,-0.5252,0.0059
11.5670,-0.8089,-0.5252,0.0059
11.5840,-0.8160,-0.5308,-0.0178
11.5860,-0.8160,-0.5308,-0.0178
11.5870,-0.8160,-0.5308,-0.0178
11.6030,-0.8595,-0.5330,0.0112
11.6040,-0.8595,-0.5330,0.0112
11.6040,-0.8595,-0.5330,0.0112
11.6220,-0.8502,-0.5291,-0.0213
11.6230,-0.8502,-0.5291,-0.0213
11.6230,-0.8502,-0.5291,-0.0213
11.6420,-0.8048,-0.5440,-0.0513
11.6420,-0.8048,-0.5440,-0.0513
11.6430,-0.8048,-0.5440,-0.0513
11.6450,-0.8048,-0.5440,-0.0513
11.6450,-0.8048,-0.5440,-0.0513
11.6630,-0.8197,-0.5184,-0.0347
11.6630,-0.8197,-0.5184,-0.0347
11.6640,-0.8197,-0.5184,-0.0347
11.6820,-0.8497,-0.5000,-0.0220
11.6830,-0.8497,-0.5000,-0.0220
11.6830,-0.8497,-0.5000,-0.0220
11.7010,-0.8888,-0.5142,-0.0357
11.7030,-0.8888,-0.5142,-0.0357
11.7040,-0.8888,-0.5142,-0.0357
11.7210,-0.8319,-0.5428,-0.0220
11.7220,-0.8319,-0.5428,-0.0220
11.7230,-0.8319,-0.5428,-0.0220
11.7240,-0.8319,-0.5428,-0.0220
11.7240,-0.8319,-0.5428,-0.0220
11.7390,-0.8021,-0.5291,0.0012
11.7390,-0.8021,-0.5291,0.0012
11.7400,-0.8021,-0.5291,0.0012
11.7490,-0.8021,-0.5291,0.0012
11.7590,-0.8669,-0.5188,0.0061
11.7590,-0.8669,-0.5188,0.0061
11.7590,-0.8669,-0.5188,0.0061
11.7800,-0.8414,-0.5186,-0.0115
11.7800,-0.8414,-0.5186,-0.0115
11.7800,-0.8414,-0.5186,-0.0115
11.7990,-0.8304,-0.5105,-0.0274
11.7990,-0.8304,-0.5105,-0.0274
11.7990,-0.8304,-0.5105,-0.0274
11.8020,-0.8304,-0.5105,-0.0274
11.8020,-0.8304,-0.5105,-0.0274
11.8200,-0.8021,-0.5179,-0.0134
11.8200,-0.8021,-0.5179,-0.0134
11.8200,-0.8021,-0.5179,-0.0134
11.8380,-0.8387,-0.5313,0.0171
11.8380,-0.8387,-0.5313,0.0171
11.8380,-0.8387,-0.5313,0.0171
11.8580,-0.8456,-0.5518,0.0391
11.8580,-0.8456,-0.5518,0.0391
11.8580,-0.8456,-0.5518,0.0391
11.8780,-0.8224,-0.5716,0.0464
11.8780,-0.8224,-0.5716,0.0464
11.8780,-0.8224,-0.5716,0.0464
11.8810,-0.8224,-0.5716,0.0464
11.8810,-0.8224,-0.5716,0.0464
