
time,AccelerometerX,AccelerometerY,AccelerometerZ
0.0050,-0.8260,-0.1354,0.5643
0.0060,-0.8260,-0.1354,0.5643
0.0060,-0.8260,-0.1354,0.5643
0.0380,-0.8062,-0.1381,0.5399
0.0380,-0.8062,-0.1381,0.5399
0.0380,-0.8062,-0.1381,0.5399
0.0390,-0.8062,-0.1381,0.5399
0.0390,-0.8062,-0.1381,0.5399
0.0450,-0.8285,-0.1278,0.5433
0.0450,-0.8285,-0.1278,0.5433
0.0450,-0.8285,-0.1278,0.5433
0.0640,-0.8368,-0.1195,0.5540
0.0650,-0.8368,-0.1195,0.5540
0.0650,-0.8368,-0.1195,0.5540
0.0830,-0.8084,-0.1224,0.5318
0.0830,-0.8084,-0.1224,0.5318
0.0830,-0.8084,-0.1224,0.5318
0.1030,-0.7945,-0.1300,0.5592
0.1030,-0.7945,-0.1300,0.5592
0.1030,-0.7945,-0.1300,0.5592
0.1070,-0.7945,-0.1300,0.5592
0.1080,-0.7945,-0.1300,0.5592
0.1220,-0.7896,-0.1259,0.5711
0.1220,-0.7896,-0.1259,0.5711
0.1220,-0.7896,-0.1259,0.5711
0.1430,-0.8050,-0.1166,0.5631
0.1430,-0.8050,-0.1166,0.5631
0.1430,-0.8050,-0.1166,0.5631
0.1630,-0.8016,-0.1180,0.5824
0.1630,-0.8016,-0.1180,0.5824
0.1630,-0.8016,-0.1180,0.5824
0.1700,-0.8016,-0.1180,0.5824
0.1830,-0.8011,-0.1303,0.5802
0.1830,-0.8011,-0.1303,0.5802
0.1830,-0.8011,-0.1303,0.5802
0.1860,-0.8011,-0.1303,0.5802
0.1860,-0.8011,-0.1303,0.5802
0.2020,-0.8126,-0.1354,0.5663
0.2030,-0.8126,-0.1354,0.5663
0.2030,-0.8126,-0.1354,0.5663
0.2220,-0.8124,-0.1263,0.5731
0.2220,-0.8124,-0.1263,0.5731
0.2220,-0.8124,-0.1263,0.5731
0.2430,-0.7977,-0.1259,0.5782
0.2430,-0.7977,-0.1259,0.5782
0.2430,-0.7977,-0.1259,0.5782
0.2630,-0.8168,-0.1215,0.5746
0.2630,-0.8168,-0.1215,0.5746
0.2630,-0.8168,-0.1215,0.5746
0.2660,-0.8168,-0.1215,0.5746
0.2660,-0.8168,-0.1215,0.5746
0.2820,-0.8124,-0.1234,0.5760
0.2820,-0.8124,-0.1234,0.5760
0.2820,-0.8124,-0.1234,0.5760
0.3010,-0.7613,-0.1337,0.5692
0.3020,-0.7613,-0.1337,0.5692
0.3020,-0.7613,-0.1337,0.5692
0.3210,-0.7341,-0.1254,0.5772
0.3210,-0.7341,-0.1254,0.5772
0.3220,-0.7341,-0.1254,0.5772
0.3420,-0.7940,-0.1158,0.6156
0.3420,-0.7940,-0.1158,0.6156
0.3420,-0.7940,-0.1158,0.6156
0.3440,-0.7940,-0.1158,0.6156
0.3450,-0.7940,-0.1158,0.6156
0.3610,-0.8268,-0.1205,0.6144
0.3610,-0.8268,-0.1205,0.6144
0.3610,-0.8268,-0.1205,0.6144
0.3680,-0.8268,-0.1205,0.6144
0.3810,-0.8084,-0.1285,0.6056
0.3810,-0.8084,-0.1285,0.6056
0.3810,-0.8084,-0.1285,0.6056
0.4020,-0.8170,-0.0604,0.5775
0.4020,-0.8170,-0.0604,0.5775
0.4020,-0.8170,-0.0604,0.5775
0.4210,-0.7102,-0.1513,0.5746
0.4210,-0.7102,-0.1513,0.5746
0.4210,-0.7102,-0.1513,0.5746
0.4240,-0.7102,-0.1513,0.5746
0.4250,-0.7102,-0.1513,0.5746
0.4250,-0.7102,-0.1513,0.5746
0.4410,-0.7728,-0.1755,0.5748
0.4410,-0.7728,-0.1755,0.5748
0.4420,-0.7728,-0.1755,0.5748
0.4610,-0.8243,-0.1786,0.5838
0.4610,-0.8243,-0.1786,0.5838
0.4610,-0.8243,-0.1786,0.5838
0.4800,-0.7813,-0.1425,0.6129
0.4800,-0.7813,-0.1425,0.6129
0.4810,-0.7813,-0.1425,0.6129
0.5000,-0.8128,-0.1017,0.6046
0.5000,-0.8128,-0.1017,0.6046
0.5000,-0.8128,-0.1017,0.6046
0.5030,-0.8128,-0.1017,0.6046
0.5040,-0.8128,-0.1017,0.6046
0.5200,-0.8473,-0.1134,0.5829
0.5200,-0.8473,-0.1134,0.5829
0.5200,-0.8473,-0.1134,0.5829
0.5400,-0.8238,-0.1686,0.5809
0.5410,-0.8238,-0.1686,0.5809
0.5410,-0.8238,-0.1686,0.5809
0.5600,-0.7901,-0.1645,0.5711
0.5610,-0.7901,-0.1645,0.5711
0.5610,-0.7901,-0.1645,0.5711
0.5660,-0.7901,-0.1645,0.5711
0.5800,-0.8243,-0.1100,0.5650
0.5810,-0.8243,-0.1100,0.5650
0.5810,-0.8243,-0.1100,0.5650
0.5830,-0.8243,-0.1100,0.5650
0.5830,-0.8243,-0.1100,0.5650
0.6000,-0.8238,-0.1051,0.5794
0.6420,-0.8238,-0.1051,0.5794
0.6420,-0.8238,-0.1051,0.5794
0.6420,-0.8109,-0.1317,0.5917
0.6420,-0.8109,-0.1317,0.5917
0.6430,-0.8109,-0.1317,0.5917
0.6430,-0.8109,-0.1317,0.5917
0.6430,-0.8375,-0.1361,0.5782
0.6430,-0.8375,-0.1361,0.5782
0.6430,-0.8375,-0.1361,0.5782
0.6600,-0.8400,-0.1310,0.5465
0.6610,-0.8400,-0.1310,0.5465
0.6610,-0.8400,-0.1310,0.5465
0.6640,-0.8400,-0.1310,0.5465
0.6640,-0.8400,-0.1310,0.5465
0.6800,-0.8282,-0.1254,0.5570
0.6810,-0.8282,-0.1254,0.5570
0.6810,-0.8282,-0.1254,0.5570
0.6990,-0.8172,-0.1195,0.5665
0.7000,-0.8172,-0.1195,0.5665
0.7000,-0.8172,-0.1195,0.5665
0.7190,-0.7869,-0.1278,0.5487
0.7190,-0.7869,-0.1278,0.5487
0.7190,-0.7869,-0.1278,0.5487
0.7400,-0.7957,-0.1334,0.5548
0.7400,-0.7957,-0.1334,0.5548
0.7410,-0.7957,-0.1334,0.5548
0.7430,-0.7957,-0.1334,0.5548
0.7430,-0.7957,-0.1334,0.5548
0.7600,-0.8165,-0.1496,0.5619
0.7600,-0.8165,-0.1496,0.5619
0.7610,-0.8165,-0.1496,0.5619
0.7650,-0.8165,-0.1496,0.5619
0.7790,-0.8246,-0.1479,0.5518
0.7800,-0.8246,-0.1479,0.5518
0.7800,-0.8246,-0.1479,0.5518
0.7990,-0.8077,-0.1273,0.5790
0.7990,-0.8077,-0.1273,0.5790
0.7990,-0.8077,-0.1273,0.5790
0.8190,-0.8077,-0.1273,0.5790
0.8190,-0.8133,-0.1095,0.5743
0.8190,-0.8133,-0.1095,0.5743
0.8200,-0.8133,-0.1095,0.5743
0.8240,-0.8133,-0.1095,0.5743
0.8240,-0.8133,-0.1095,0.5743
0.8400,-0.7962,-0.1332,0.5394
0.8400,-0.7962,-0.1332,0.5394
0.8400,-0.7962,-0.1332,0.5394
0.8600,-0.7957,-0.1493,0.5377
0.8600,-0.7957,-0.1493,0.5377
0.8600,-0.7957,-0.1493,0.5377
0.8790,-0.7923,-0.1342,0.5631
0.8790,-0.7923,-0.1342,0.5631
0.8790,-0.7923,-0.1342,0.5631
0.8990,-0.8143,-0.1127,0.5689
0.9000,-0.8143,-0.1127,0.5689
0.9000,-0.8143,-0.1127,0.5689
0.9020,-0.8143,-0.1127,0.5689
0.9030,-0.8143,-0.1127,0.5689
0.9200,-0.8043,-0.1193,0.5557
0.9210,-0.8043,-0.1193,0.5557
0.9210,-0.8043,-0.1193,0.5557
0.9420,-0.7904,-0.1347,0.5653
0.9420,-0.7904,-0.1347,0.5653
0.9420,-0.7904,-0.1347,0.5653
0.9620,-0.8038,-0.1339,0.5780
0.9620,-0.8038,-0.1339,0.5780
0.9620,-0.8038,-0.1339,0.5780
0.9650,-0.8038,-0.1339,0.5780
0.9800,-0.8070,-0.1442,0.5750
0.9800,-0.8070,-0.1442,0.5750
0.9800,-0.8070,-0.1442,0.5750
0.9810,-0.8070,-0.1442,0.5750
0.9810,-0.8070,-0.1442,0.5750
1.0020,-0.7943,-0.1559,0.5865
1.0020,-0.7943,-0.1559,0.5865
1.0030,-0.7943,-0.1559,0.5865
1.0230,-0.7943,-0.1559,0.5865
1.0230,-0.8192,-0.1496,0.5897
1.0230,-0.8192,-0.1496,0.5897
1.0230,-0.8192,-0.1496,0.5897
1.0410,-0.8319,-0.1579,0.5858
1.0420,-0.8319,-0.1579,0.5858
1.0420,-0.8319,-0.1579,0.5858
1.0620,-0.8065,-0.1664,0.5772
1.0630,-0.8065,-0.1664,0.5772
1.0630,-0.8065,-0.1664,0.5772
1.0630,-0.8065,-0.1664,0.5772
1.0630,-0.8065,-0.1664,0.5772
1.0820,-0.8043,-0.1672,0.5858
1.0820,-0.8043,-0.1672,0.5858
1.0820,-0.8043,-0.1672,0.5858
1.1010,-0.7955,-0.1574,0.5804
1.1010,-0.7955,-0.1574,0.5804
1.1010,-0.7955,-0.1574,0.5804
1.1210,-0.7869,-0.1508,0.5653
1.1210,-0.7869,-0.1508,0.5653
1.1210,-0.7869,-0.1508,0.5653
1.1380,-0.8111,-0.1586,0.5782
1.1380,-0.8111,-0.1586,0.5782
1.1380,-0.8111,-0.1586,0.5782
1.1720,-0.8111,-0.1586,0.5782
1.1720,-0.8111,-0.1586,0.5782
1.1720,-0.8084,-0.1545,0.5709
1.1720,-0.8084,-0.1545,0.5709
1.1720,-0.8084,-0.1545,0.5709
1.1730,-0.8084,-0.1545,0.5709
1.1770,-0.8253,-0.1437,0.5592
1.1770,-0.8253,-0.1437,0.5592
1.1780,-0.8253,-0.1437,0.5592
1.1970,-0.8444,-0.1432,0.5768
1.1970,-0.8444,-0.1432,0.5768
1.1970,-0.8444,-0.1432,0.5768
1.2180,-0.8309,-0.1618,0.5716
1.2180,-0.8309,-0.1618,0.5716
1.2180,-0.8309,-0.1618,0.5716
1.2220,-0.8309,-0.1618,0.5716
1.2220,-0.8309,-0.1618,0.5716
1.2360,-0.8006,-0.1713,0.5572
1.2370,-0.8006,-0.1713,0.5572
1.2370,-0.8006,-0.1713,0.5572
1.2600,-0.7728,-0.1337,0.5511
1.2600,-0.7728,-0.1337,0.5511
1.2600,-0.7728,-0.1337,0.5511
1.2800,-0.8375,-0.1173,0.5628
1.2800,-0.8375,-0.1173,0.5628
1.2810,-0.8375,-0.1173,0.5628
1.3000,-0.8400,-0.1689,0.5743
1.3000,-0.8400,-0.1689,0.5743
1.3000,-0.8400,-0.1689,0.5743
1.3010,-0.8400,-0.1689,0.5743
1.3010,-0.8400,-0.1689,0.5743
1.3200,-0.7735,-0.1892,0.5597
1.3200,-0.7735,-0.1892,0.5597
1.3200,-0.7735,-0.1892,0.5597
1.3400,-0.8233,-0.1430,0.5577
1.3400,-0.8233,-0.1430,0.5577
1.3410,-0.8233,-0.1430,0.5577
1.3630,-0.8478,-0.1432,0.5743
1.3630,-0.8478,-0.1432,0.5743
1.3630,-0.8478,-0.1432,0.5743
1.3630,-0.8478,-0.1432,0.5743
1.3770,-0.8150,-0.1909,0.5726
1.3780,-0.8150,-0.1909,0.5726
1.3780,-0.8150,-0.1909,0.5726
1.3820,-0.8150,-0.1909,0.5726
1.3820,-0.8150,-0.1909,0.5726
1.3970,-0.8104,-0.1901,0.5980
1.3980,-0.8104,-0.1901,0.5980
1.3980,-0.8104,-0.1901,0.5980
1.4160,-0.8104,-0.1901,0.5980
1.4170,-0.8229,-0.1486,0.5934
1.4170,-0.8229,-0.1486,0.5934
1.4170,-0.8229,-0.1486,0.5934
1.4370,-0.8106,-0.1337,0.5860
1.4370,-0.8106,-0.1337,0.5860
1.4370,-0.8106,-0.1337,0.5860
1.4580,-0.8119,-0.1449,0.5704
1.4580,-0.8119,-0.1449,0.5704
1.4580,-0.8119,-0.1449,0.5704
1.4610,-0.8119,-0.1449,0.5704
1.4610,-0.8119,-0.1449,0.5704
1.4780,-0.7671,-0.1940,0.5428
1.4780,-0.7671,-0.1940,0.5428
1.4780,-0.7671,-0.1940,0.5428
1.4960,-0.7601,-0.1879,0.5359
1.4970,-0.7601,-0.1879,0.5359
1.4970,-0.7601,-0.1879,0.5359
1.5180,-0.8260,-0.1329,0.5606
1.5180,-0.8260,-0.1329,0.5606
1.5180,-0.8260,-0.1329,0.5606
1.5380,-0.8075,-0.1307,0.5699
1.5380,-0.8075,-0.1307,0.5699
1.5380,-0.8075,-0.1307,0.5699
1.5380,-0.8075,-0.1307,0.5699
1.5390,-0.8075,-0.1307,0.5699
1.5570,-0.7894,-0.1620,0.5594
1.5580,-0.7894,-0.1620,0.5594
1.5580,-0.7894,-0.1620,0.5594
1.5620,-0.7894,-0.1620,0.5594
1.5760,-0.7862,-0.1762,0.5601
1.5760,-0.7862,-0.1762,0.5601
1.5760,-0.7862,-0.1762,0.5601
1.5980,-0.8021,-0.1601,0.5746
1.5980,-0.8021,-0.1601,0.5746
1.5980,-0.8021,-0.1601,0.5746
1.6190,-0.8253,-0.1491,0.5738
1.6190,-0.8253,-0.1491,0.5738
1.6190,-0.8253,-0.1491,0.5738
1.6230,-0.8253,-0.1491,0.5738
1.6230,-0.8253,-0.1491,0.5738
1.6410,-0.8260,-0.1821,0.5589
1.6410,-0.8260,-0.1821,0.5589
1.6410,-0.8260,-0.1821,0.5589
1.6580,-0.7730,-0.2050,0.5513
1.6580,-0.7730,-0.2050,0.5513
1.6580,-0.7730,-0.2050,0.5513
1.6790,-0.7879,-0.1870,0.5606
1.6790,-0.7879,-0.1870,0.5606
1.6790,-0.7879,-0.1870,0.5606
1.6980,-0.8439,-0.1808,0.6027
1.7330,-0.8439,-0.1808,0.6027
1.7340,-0.8439,-0.1808,0.6027
1.7340,-0.8439,-0.1808,0.6027
1.7340,-0.8439,-0.1808,0.6027
1.7340,-0.8370,-0.1855,0.6036
1.7340,-0.8370,-0.1855,0.6036
1.7340,-0.8370,-0.1855,0.6036
1.7340,-0.8199,-0.1931,0.5929
1.7340,-0.8199,-0.1931,0.5929
1.7350,-0.8199,-0.1931,0.5929
1.7580,-0.7928,-0.1960,0.5870
1.7580,-0.7928,-0.1960,0.5870
1.7580,-0.7928,-0.1960,0.5870
1.7580,-0.7928,-0.1960,0.5870
1.7780,-0.7517,-0.1850,0.5728
1.7780,-0.7517,-0.1850,0.5728
1.7780,-0.7517,-0.1850,0.5728
1.7800,-0.7517,-0.1850,0.5728
1.7800,-0.7517,-0.1850,0.5728
1.7950,-0.7930,-0.1730,0.5868
1.7950,-0.7930,-0.1730,0.5868
1.7960,-0.7930,-0.1730,0.5868
1.8130,-0.7930,-0.1730,0.5868
1.8180,-0.8539,-0.1738,0.6005
1.8180,-0.8539,-0.1738,0.6005
1.8180,-0.8539,-0.1738,0.6005
1.8340,-0.8715,-0.1813,0.5707
1.8340,-0.8715,-0.1813,0.5707
1.8350,-0.8715,-0.1813,0.5707
1.8550,-0.8512,-0.1835,0.5663
1.8550,-0.8512,-0.1835,0.5663
1.8550,-0.8512,-0.1835,0.5663
1.8580,-0.8512,-0.1835,0.5663
1.8580,-0.8512,-0.1835,0.5663
1.8740,-0.8043,-0.1742,0.5714
1.8740,-0.8043,-0.1742,0.5714
1.8740,-0.8043,-0.1742,0.5714
1.8940,-0.7970,-0.1537,0.5545
1.8940,-0.7970,-0.1537,0.5545
1.8940,-0.7970,-0.1537,0.5545
1.9140,-0.7654,-0.1554,0.5594
1.9140,-0.7654,-0.1554,0.5594
1.9140,-0.7654,-0.1554,0.5594
1.9340,-0.7879,-0.1603,0.5834
1.9340,-0.7879,-0.1603,0.5834
1.9340,-0.7879,-0.1603,0.5834
1.9370,-0.7879,-0.1603,0.5834
1.9370,-0.7879,-0.1603,0.5834
1.9530,-0.8302,-0.1728,0.5797
1.9540,-0.8302,-0.1728,0.5797
1.9540,-0.8302,-0.1728,0.5797
1.9600,-0.8302,-0.1728,0.5797
1.9730,-0.8700,-0.1650,0.5643
1.9740,-0.8700,-0.1650,0.5643
1.9740,-0.8700,-0.1650,0.5643
1.9930,-0.8730,-0.1285,0.5484
1.9940,-0.8730,-0.1285,0.5484
1.9940,-0.8730,-0.1285,0.5484
2.0130,-0.7904,-0.1413,0.5008
2.0130,-0.7904,-0.1413,0.5008
2.0130,-0.7904,-0.1413,0.5008
2.0170,-0.7904,-0.1413,0.5008
2.0170,-0.7904,-0.1413,0.5008
2.0320,-0.7302,-0.1652,0.4631
2.0330,-0.7302,-0.1652,0.4631
2.0330,-0.7302,-0.1652,0.4631
2.0540,-0.7434,-0.1791,0.4934
2.0560,-0.7434,-0.1791,0.4934
2.0560,-0.7434,-0.1791,0.4934
2.0720,-0.7789,-0.1826,0.5506
2.0720,-0.7789,-0.1826,0.5506
2.0720,-0.7789,-0.1826,0.5506
2.0910,-0.8341,-0.1620,0.5719
2.0920,-0.8341,-0.1620,0.5719
2.0920,-0.8341,-0.1620,0.5719
2.0950,-0.8341,-0.1620,0.5719
2.0950,-0.8341,-0.1620,0.5719
2.1120,-0.8798,-0.1601,0.6080
2.1120,-0.8798,-0.1601,0.6080
2.1120,-0.8798,-0.1601,0.6080
2.1320,-0.8610,-0.1703,0.6186
2.1320,-0.8610,-0.1703,0.6186
2.1330,-0.8610,-0.1703,0.6186
2.1520,-0.7820,-0.1816,0.5992
2.1520,-0.7820,-0.1816,0.5992
2.1520,-0.7820,-0.1816,0.5992
2.1570,-0.7820,-0.1816,0.5992
2.1720,-0.7882,-0.1774,0.5648
2.1720,-0.7882,-0.1774,0.5648
2.1730,-0.7882,-0.1774,0.5648
2.1760,-0.7882,-0.1774,0.5648
2.1760,-0.7882,-0.1774,0.5648
2.1940,-0.8099,-0.1664,0.5658
2.1940,-0.8099,-0.1664,0.5658
2.1940,-0.8099,-0.1664,0.5658
2.2150,-0.8402,-0.1337,0.5711
2.2150,-0.8402,-0.1337,0.5711
2.2150,-0.8402,-0.1337,0.5711
2.2330,-0.8211,-0.1283,0.5465
2.2340,-0.8211,-0.1283,0.5465
2.2700,-0.8211,-0.1283,0.5465
2.2700,-0.8018,-0.1486,0.4976
2.2710,-0.8018,-0.1486,0.4976
2.2710,-0.8018,-0.1486,0.4976
2.2710,-0.8018,-0.1486,0.4976
2.2710,-0.8018,-0.1486,0.4976
2.2720,-0.7989,-0.1713,0.5039
2.2720,-0.7989,-0.1713,0.5039
2.2720,-0.7989,-0.1713,0.5039
2.2910,-0.7867,-0.1738,0.5386
2.2910,-0.7867,-0.1738,0.5386
2.2910,-0.7867,-0.1738,0.5386
2.3100,-0.8045,-0.1410,0.5438
2.3100,-0.8045,-0.1410,0.5438
2.3100,-0.8045,-0.1410,0.5438
2.3310,-0.8397,-0.1293,0.5724
2.3320,-0.8397,-0.1293,0.5724
2.3320,-0.8397,-0.1293,0.5724
2.3350,-0.8397,-0.1293,0.5724
2.3360,-0.8397,-0.1293,0.5724
2.3530,-0.8695,-0.1554,0.5944
2.3540,-0.8695,-0.1554,0.5944
2.3540,-0.8695,-0.1554,0.5944
2.3560,-0.8695,-0.1554,0.5944
2.3730,-0.8097,-0.1786,0.5682
2.3730,-0.8097,-0.1786,0.5682
2.3740,-0.8097,-0.1786,0.5682
2.3920,-0.7762,-0.1664,0.5506
2.3930,-0.7762,-0.1664,0.5506
2.3930,-0.7762,-0.1664,0.5506
2.4130,-0.7916,-0.1381,0.5599
2.4140,-0.7916,-0.1381,0.5599
2.4140,-0.7916,-0.1381,0.5599
2.4160,-0.7916,-0.1381,0.5599
2.4160,-0.7916,-0.1381,0.5599
2.4310,-0.8510,-0.1452,0.5621
2.4310,-0.8510,-0.1452,0.5621
2.4320,-0.8510,-0.1452,0.5621
2.4530,-0.8449,-0.1972,0.5423
2.4530,-0.8449,-0.1972,0.5423
2.4530,-0.8449,-0.1972,0.5423
2.4710,-0.7992,-0.2090,0.5396
2.4720,-0.7992,-0.2090,0.5396
2.4720,-0.7992,-0.2090,0.5396
2.4910,-0.7728,-0.1615,0.5218
2.4910,-0.7728,-0.1615,0.5218
2.4910,-0.7728,-0.1615,0.5218
2.4950,-0.7728,-0.1615,0.5218
2.4950,-0.7728,-0.1615,0.5218
2.5110,-0.7649,-0.1227,0.5284
2.5110,-0.7649,-0.1227,0.5284
2.5120,-0.7649,-0.1227,0.5284
2.5310,-0.7945,-0.1366,0.5655
2.5310,-0.7945,-0.1366,0.5655
2.5310,-0.7945,-0.1366,0.5655
2.5510,-0.8170,-0.1699,0.5809
2.5510,-0.8170,-0.1699,0.5809
2.5510,-0.8170,-0.1699,0.5809
2.5560,-0.8170,-0.1699,0.5809
2.5700,-0.8241,-0.1857,0.5880
2.5710,-0.8241,-0.1857,0.5880
2.5710,-0.8241,-0.1857,0.5880
2.5740,-0.8241,-0.1857,0.5880
2.5740,-0.8241,-0.1857,0.5880
2.5900,-0.8485,-0.1813,0.5768
2.5900,-0.8485,-0.1813,0.5768
2.5900,-0.8485,-0.1813,0.5768
2.6070,-0.8485,-0.1813,0.5768
2.6090,-0.8771,-0.1393,0.5792
2.6100,-0.8771,-0.1393,0.5792
2.6100,-0.8771,-0.1393,0.5792
2.6300,-0.9194,-0.1305,0.5785
2.6310,-0.9194,-0.1305,0.5785
2.6310,-0.9194,-0.1305,0.5785
2.6500,-0.8358,-0.1725,0.5337
2.6500,-0.8358,-0.1725,0.5337
2.6510,-0.8358,-0.1725,0.5337
2.6540,-0.8358,-0.1725,0.5337
2.6540,-0.8358,-0.1725,0.5337
2.6700,-0.7667,-0.1877,0.4805
2.6700,-0.7667,-0.1877,0.4805
2.6710,-0.7667,-0.1877,0.4805
2.6900,-0.7882,-0.1452,0.4861
2.6900,-0.7882,-0.1452,0.4861
2.6900,-0.7882,-0.1452,0.4861
2.7090,-0.8712,-0.0963,0.5039
2.7090,-0.8712,-0.0963,0.5039
2.7100,-0.8712,-0.0963,0.5039
2.7300,-0.8832,-0.1300,0.5386
2.7300,-0.8832,-0.1300,0.5386
2.7300,-0.8832,-0.1300,0.5386
2.7310,-0.8832,-0.1300,0.5386
2.7310,-0.8832,-0.1300,0.5386
2.7490,-0.8033,-0.1769,0.5330
2.7500,-0.8033,-0.1769,0.5330
2.7500,-0.8033,-0.1769,0.5330
2.7560,-0.8033,-0.1769,0.5330
2.7690,-0.8026,-0.1461,0.5276
2.7690,-0.8026,-0.1461,0.5276
2.7700,-0.8026,-0.1461,0.5276
2.8040,-0.8519,-0.1408,0.5579
2.8050,-0.8519,-0.1408,0.5579
2.8050,-0.8519,-0.1408,0.5579
2.8080,-0.8295,-0.1593,0.5768
2.8090,-0.8295,-0.1593,0.5768
2.8090,-0.8295,-0.1593,0.5768
2.8110,-0.8295,-0.1593,0.5768
2.8110,-0.8295,-0.1593,0.5768
2.8280,-0.8087,-0.1684,0.5660
2.8280,-0.8087,-0.1684,0.5660
2.8280,-0.8087,-0.1684,0.5660
2.8480,-0.8241,-0.1699,0.5423
2.8480,-0.8241,-0.1699,0.5423
2.8480,-0.8241,-0.1699,0.5423
2.8680,-0.8265,-0.1760,0.5472
2.8680,-0.8265,-0.1760,0.5472
2.8680,-0.8265,-0.1760,0.5472
2.8880,-0.8065,-0.1716,0.5572
2.8890,-0.8065,-0.1716,0.5572
2.8890,-0.8065,-0.1716,0.5572
2.8920,-0.8065,-0.1716,0.5572
2.8920,-0.8065,-0.1716,0.5572
2.9080,-0.7889,-0.1508,0.5738
2.9080,-0.7889,-0.1508,0.5738
2.9080,-0.7889,-0.1508,0.5738
2.9270,-0.8280,-0.1349,0.5658
2.9280,-0.8280,-0.1349,0.5658
2.9280,-0.8280,-0.1349,0.5658
2.9470,-0.8529,-0.1667,0.5504
2.9480,-0.8529,-0.1667,0.5504
2.9480,-0.8529,-0.1667,0.5504
2.9530,-0.8529,-0.1667,0.5504
2.9680,-0.7923,-0.1904,0.5496
2.9680,-0.7923,-0.1904,0.5496
2.9680,-0.7923,-0.1904,0.5496
2.9720,-0.7923,-0.1904,0.5496
2.9720,-0.7923,-0.1904,0.5496
2.9880,-0.8006,-0.1513,0.5545
2.9880,-0.8006,-0.1513,0.5545
2.9880,-0.8006,-0.1513,0.5545
3.0070,-0.8571,-0.1310,0.5567
3.0070,-0.8571,-0.1310,0.5567
3.0080,-0.8571,-0.1310,0.5567
3.0270,-0.8365,-0.1823,0.5589
3.0270,-0.8365,-0.1823,0.5589
3.0270,-0.8365,-0.1823,0.5589
3.0470,-0.8133,-0.1938,0.5555
3.0470,-0.8133,-0.1938,0.5555
3.0470,-0.8133,-0.1938,0.5555
3.0510,-0.8133,-0.1938,0.5555
3.0510,-0.8133,-0.1938,0.5555
3.0670,-0.7891,-0.1488,0.5499
3.0670,-0.7891,-0.1488,0.5499
3.0670,-0.7891,-0.1488,0.5499
3.0860,-0.8192,-0.1212,0.5438
3.0860,-0.8192,-0.1212,0.5438
3.0870,-0.8192,-0.1212,0.5438
3.1050,-0.8842,-0.1457,0.5728
3.1050,-0.8842,-0.1457,0.5728
3.1060,-0.8842,-0.1457,0.5728
3.1250,-0.8554,-0.1755,0.5472
3.1250,-0.8554,-0.1755,0.5472
3.1260,-0.8554,-0.1755,0.5472
3.1300,-0.8554,-0.1755,0.5472
3.1300,-0.8554,-0.1755,0.5472
3.1470,-0.8598,-0.1491,0.5425
3.1470,-0.8598,-0.1491,0.5425
3.1480,-0.8598,-0.1491,0.5425
3.1480,-0.8598,-0.1491,0.5425
3.1650,-0.8559,-0.1422,0.5298
3.1650,-0.8559,-0.1422,0.5298
3.1650,-0.8559,-0.1422,0.5298
3.1840,-0.8119,-0.1606,0.5140
3.1840,-0.8119,-0.1606,0.5140
3.1850,-0.8119,-0.1606,0.5140
3.2030,-0.8314,-0.1381,0.5526
3.2040,-0.8314,-0.1381,0.5526
3.2040,-0.8314,-0.1381,0.5526
3.2070,-0.8314,-0.1381,0.5526
3.2080,-0.8314,-0.1381,0.5526
3.2230,-0.8216,-0.1476,0.5655
3.2230,-0.8216,-0.1476,0.5655
3.2230,-0.8216,-0.1476,0.5655
3.2430,-0.7517,-0.1762,0.5394
3.2440,-0.7517,-0.1762,0.5394
3.2440,-0.7517,-0.1762,0.5394
3.2640,-0.8031,-0.1439,0.5408
3.2640,-0.8031,-0.1439,0.5408
3.2640,-0.8031,-0.1439,0.5408
3.2840,-0.8967,-0.1283,0.5719
3.2850,-0.8967,-0.1283,0.5719
3.2850,-0.8967,-0.1283,0.5719
3.2870,-0.8967,-0.1283,0.5719
3.2870,-0.8967,-0.1283,0.5719
3.3030,-0.8705,-0.1454,0.5738
3.3040,-0.8705,-0.1454,0.5738
3.3040,-0.8705,-0.1454,0.5738
3.3220,-0.8368,-0.1452,0.5697
3.3220,-0.8368,-0.1452,0.5697
3.3230,-0.8368,-0.1452,0.5697
3.3580,-0.8004,-0.1327,0.5579
3.3580,-0.8004,-0.1327,0.5579
3.3580,-0.8004,-0.1327,0.5579
3.3580,-0.8004,-0.1327,0.5579
3.3630,-0.7791,-0.1361,0.5355
3.3630,-0.7791,-0.1361,0.5355
3.3630,-0.7791,-0.1361,0.5355
3.3660,-0.7791,-0.1361,0.5355
3.3660,-0.7791,-0.1361,0.5355
3.3820,-0.7918,-0.1623,0.5604
3.3830,-0.7918,-0.1623,0.5604
3.3830,-0.7918,-0.1623,0.5604
3.4020,-0.8192,-0.1486,0.5826
3.4020,-0.8192,-0.1486,0.5826
3.4030,-0.8192,-0.1486,0.5826
3.4220,-0.8092,-0.1254,0.5643
3.4230,-0.8092,-0.1254,0.5643
3.4230,-0.8092,-0.1254,0.5643
3.4420,-0.7879,-0.1327,0.5557
3.4420,-0.7879,-0.1327,0.5557
3.4420,-0.7879,-0.1327,0.5557
3.4460,-0.7879,-0.1327,0.5557
3.4470,-0.7879,-0.1327,0.5557
3.4620,-0.8121,-0.1611,0.5777
3.4630,-0.8121,-0.1611,0.5777
3.4630,-0.8121,-0.1611,0.5777
3.4820,-0.7608,-0.1686,0.5663
3.4820,-0.7608,-0.1686,0.5663
3.4820,-0.7608,-0.1686,0.5663
3.5020,-0.7664,-0.1359,0.5582
3.5020,-0.7664,-0.1359,0.5582
3.5020,-0.7664,-0.1359,0.5582
3.5220,-0.8505,-0.1459,0.5758
3.5220,-0.8505,-0.1459,0.5758
3.5220,-0.8505,-0.1459,0.5758
3.5270,-0.8505,-0.1459,0.5758
3.5270,-0.8505,-0.1459,0.5758
3.5420,-0.8541,-0.1613,0.5929
3.5420,-0.8541,-0.1613,0.5929
3.5430,-0.8541,-0.1613,0.5929
3.5450,-0.8541,-0.1613,0.5929
3.5620,-0.8766,-0.1151,0.5731
3.5620,-0.8766,-0.1151,0.5731
3.5620,-0.8766,-0.1151,0.5731
3.5860,-0.8683,-0.0894,0.5462
3.5870,-0.8683,-0.0894,0.5462
3.5890,-0.8683,-0.0894,0.5462
3.6040,-0.8683,-0.0894,0.5462
3.6050,-0.8146,-0.1141,0.5303
3.6050,-0.8146,-0.1141,0.5303
3.6060,-0.8146,-0.1141,0.5303
3.6060,-0.8146,-0.1141,0.5303
3.6060,-0.8146,-0.1141,0.5303
3.6220,-0.7586,-0.1549,0.5181
3.6220,-0.7586,-0.1549,0.5181
3.6230,-0.7586,-0.1549,0.5181
3.6420,-0.7732,-0.1515,0.4959
3.6420,-0.7732,-0.1515,0.4959
3.6430,-0.7732,-0.1515,0.4959
3.6620,-0.8370,-0.1070,0.5210
3.6630,-0.8370,-0.1070,0.5210
3.6630,-0.8370,-0.1070,0.5210
3.6830,-0.9121,-0.0728,0.5589
3.6830,-0.9121,-0.0728,0.5589
3.6840,-0.9121,-0.0728,0.5589
3.6850,-0.9121,-0.0728,0.5589
3.6850,-0.9121,-0.0728,0.5589
3.7020,-0.8967,-0.0931,0.5528
3.7020,-0.8967,-0.0931,0.5528
3.7030,-0.8967,-0.0931,0.5528
3.7240,-0.8238,-0.1259,0.5249
3.7250,-0.8238,-0.1259,0.5249
3.7250,-0.8238,-0.1259,0.5249
3.7420,-0.8422,-0.1278,0.5232
3.7430,-0.8422,-0.1278,0.5232
3.7440,-0.8422,-0.1278,0.5232
3.7440,-0.8422,-0.1278,0.5232
3.7630,-0.8192,-0.1198,0.5325
3.7650,-0.8192,-0.1198,0.5325
3.7660,-0.8192,-0.1198,0.5325
3.7670,-0.8192,-0.1198,0.5325
3.7670,-0.8192,-0.1198,0.5325
3.7820,-0.8023,-0.1315,0.5318
3.7820,-0.8023,-0.1315,0.5318
3.7830,-0.8023,-0.1315,0.5318
3.8020,-0.7684,-0.1545,0.5396
3.8020,-0.7684,-0.1545,0.5396
3.8020,-0.7684,-0.1545,0.5396
3.8210,-0.8251,-0.1366,0.5562
3.8220,-0.8251,-0.1366,0.5562
3.8220,-0.8251,-0.1366,0.5562
3.8410,-0.8661,-0.1107,0.5765
3.8420,-0.8661,-0.1107,0.5765
3.8430,-0.8661,-0.1107,0.5765
3.8440,-0.8661,-0.1107,0.5765
3.8440,-0.8661,-0.1107,0.5765
3.8610,-0.8598,-0.1156,0.5538
3.8610,-0.8598,-0.1156,0.5538
3.8620,-0.8598,-0.1156,0.5538
3.8800,-0.7989,-0.1454,0.5592
3.9200,-0.7989,-0.1454,0.5592
3.9200,-0.7989,-0.1454,0.5592
3.9200,-0.8089,-0.1178,0.5702
3.9210,-0.8089,-0.1178,0.5702
3.9210,-0.8089,-0.1178,0.5702
3.9210,-0.8131,-0.1149,0.5709
3.9220,-0.8131,-0.1149,0.5709
3.9220,-0.8131,-0.1149,0.5709
3.9240,-0.8131,-0.1149,0.5709
3.9250,-0.8131,-0.1149,0.5709
3.9400,-0.7478,-0.1527,0.5670
3.9410,-0.7478,-0.1527,0.5670
3.9410,-0.7478,-0.1527,0.5670
3.9420,-0.7478,-0.1527,0.5670
3.9600,-0.7686,-0.1493,0.5655
3.9600,-0.7686,-0.1493,0.5655
3.9600,-0.7686,-0.1493,0.5655
3.9790,-0.8197,-0.1381,0.5628
3.9790,-0.8197,-0.1381,0.5628
3.9790,-0.8197,-0.1381,0.5628
3.9990,-0.8373,-0.1601,0.5689
4.0000,-0.8373,-0.1601,0.5689
4.0000,-0.8373,-0.1601,0.5689
4.0030,-0.8373,-0.1601,0.5689
4.0040,-0.8373,-0.1601,0.5689
4.0210,-0.8295,-0.1466,0.5604
4.0220,-0.8295,-0.1466,0.5604
4.0220,-0.8295,-0.1466,0.5604
4.0460,-0.8111,-0.1246,0.5658
4.0460,-0.8111,-0.1246,0.5658
4.0470,-0.8111,-0.1246,0.5658
4.0640,-0.8148,-0.1400,0.5812
4.0650,-0.8148,-0.1400,0.5812
4.0650,-0.8148,-0.1400,0.5812
4.0800,-0.8402,-0.1530,0.5799
4.0810,-0.8402,-0.1530,0.5799
4.0810,-0.8402,-0.1530,0.5799
4.0820,-0.8402,-0.1530,0.5799
4.0820,-0.8402,-0.1530,0.5799
4.0980,-0.8417,-0.1447,0.5672
4.0990,-0.8417,-0.1447,0.5672
4.0990,-0.8417,-0.1447,0.5672
4.1190,-0.8370,-0.1334,0.5628
4.1190,-0.8370,-0.1334,0.5628
4.1190,-0.8370,-0.1334,0.5628
4.1380,-0.8383,-0.1391,0.5667
4.1380,-0.8383,-0.1391,0.5667
4.1380,-0.8383,-0.1391,0.5667
4.1410,-0.8383,-0.1391,0.5667
4.1610,-0.8011,-0.1576,0.5721
4.1610,-0.8011,-0.1576,0.5721
4.1610,-0.8011,-0.1576,0.5721
4.1620,-0.8011,-0.1576,0.5721
4.1620,-0.8011,-0.1576,0.5721
4.1790,-0.7747,-0.1527,0.5658
4.1790,-0.7747,-0.1527,0.5658
4.1790,-0.7747,-0.1527,0.5658
4.1990,-0.7957,-0.1210,0.5455
4.2000,-0.7957,-0.1210,0.5455
4.2000,-0.7957,-0.1210,0.5455
4.2190,-0.8859,-0.1342,0.5621
4.2190,-0.8859,-0.1342,0.5621
4.2190,-0.8859,-0.1342,0.5621
4.2390,-0.8688,-0.1584,0.5741
4.2390,-0.8688,-0.1584,0.5741
4.2390,-0.8688,-0.1584,0.5741
4.2410,-0.8688,-0.1584,0.5741
4.2410,-0.8688,-0.1584,0.5741
4.2590,-0.8373,-0.1244,0.5667
4.2590,-0.8373,-0.1244,0.5667
4.2590,-0.8373,-0.1244,0.5667
4.2780,-0.8373,-0.1166,0.5819
4.2780,-0.8373,-0.1166,0.5819
4.2790,-0.8373,-0.1166,0.5819
4.2980,-0.8011,-0.1408,0.5421
4.2980,-0.8011,-0.1408,0.5421
4.2990,-0.8011,-0.1408,0.5421
4.3180,-0.7970,-0.1381,0.5118
4.3180,-0.7970,-0.1381,0.5118
4.3180,-0.7970,-0.1381,0.5118
4.3200,-0.7970,-0.1381,0.5118
4.3210,-0.7970,-0.1381,0.5118
4.3380,-0.8199,-0.1107,0.5320
4.3380,-0.8199,-0.1107,0.5320
4.3380,-0.8199,-0.1107,0.5320
4.3390,-0.8199,-0.1107,0.5320
4.3570,-0.8664,-0.0728,0.5521
4.3580,-0.8664,-0.0728,0.5521
4.3580,-0.8664,-0.0728,0.5521
4.3770,-0.8346,-0.1000,0.5391
4.3780,-0.8346,-0.1000,0.5391
4.3780,-0.8346,-0.1000,0.5391
4.3910,-0.8346,-0.1000,0.5391
4.3960,-0.7957,-0.1576,0.5296
4.3960,-0.7957,-0.1576,0.5296
4.3960,-0.7957,-0.1576,0.5296
4.4000,-0.7957,-0.1576,0.5296
4.4000,-0.7957,-0.1576,0.5296
4.4160,-0.7864,-0.1601,0.5484
4.4160,-0.7864,-0.1601,0.5484
4.4450,-0.7864,-0.1601,0.5484
4.4450,-0.7982,-0.1266,0.5746
4.4460,-0.7982,-0.1266,0.5746
4.4460,-0.7982,-0.1266,0.5746
4.4570,-0.8109,-0.0941,0.5814
4.4570,-0.8109,-0.0941,0.5814
4.4570,-0.8109,-0.0941,0.5814
4.4770,-0.7498,-0.1161,0.5868
4.4770,-0.7498,-0.1161,0.5868
4.4770,-0.7498,-0.1161,0.5868
4.4800,-0.7498,-0.1161,0.5868
4.4800,-0.7498,-0.1161,0.5868
4.4970,-0.7654,-0.1574,0.5824
4.4970,-0.7654,-0.1574,0.5824
4.4970,-0.7654,-0.1574,0.5824
4.5160,-0.8331,-0.1659,0.5926
4.5170,-0.8331,-0.1659,0.5926
4.5170,-0.8331,-0.1659,0.5926
4.5360,-0.8439,-0.1342,0.5863
4.5370,-0.8439,-0.1342,0.5863
4.5370,-0.8439,-0.1342,0.5863
4.5370,-0.8439,-0.1342,0.5863
4.5560,-0.8216,-0.1237,0.5487
4.5560,-0.8216,-0.1237,0.5487
4.5560,-0.8216,-0.1237,0.5487
4.5610,-0.8216,-0.1237,0.5487
4.5610,-0.8216,-0.1237,0.5487
4.5760,-0.8182,-0.1537,0.5423
4.5770,-0.8182,-0.1537,0.5423
4.5770,-0.8182,-0.1537,0.5423
4.5980,-0.8048,-0.1400,0.5636
4.5990,-0.8048,-0.1400,0.5636
4.5990,-0.8048,-0.1400,0.5636
4.6150,-0.8427,-0.0877,0.5731
4.6150,-0.8427,-0.0877,0.5731
4.6160,-0.8427,-0.0877,0.5731
4.6350,-0.8629,-0.0921,0.5570
4.6350,-0.8629,-0.0921,0.5570
4.6350,-0.8629,-0.0921,0.5570
4.6390,-0.8629,-0.0921,0.5570
4.6390,-0.8629,-0.0921,0.5570
4.6560,-0.8104,-0.1488,0.5293
4.6560,-0.8104,-0.1488,0.5293
4.6570,-0.8104,-0.1488,0.5293
4.6750,-0.7781,-0.1598,0.5264
4.6750,-0.7781,-0.1598,0.5264
4.6750,-0.7781,-0.1598,0.5264
4.6940,-0.7864,-0.1315,0.5557
4.6940,-0.7864,-0.1315,0.5557
4.6950,-0.7864,-0.1315,0.5557
4.7150,-0.7906,-0.1092,0.5604
4.7150,-0.7906,-0.1092,0.5604
4.7150,-0.7906,-0.1092,0.5604
4.7180,-0.7906,-0.1092,0.5604
4.7190,-0.7906,-0.1092,0.5604
4.7340,-0.8409,-0.1210,0.5834
4.7340,-0.8409,-0.1210,0.5834
4.7350,-0.8409,-0.1210,0.5834
4.7350,-0.8409,-0.1210,0.5834
4.7540,-0.8456,-0.1244,0.5856
4.7550,-0.8456,-0.1244,0.5856
4.7550,-0.8456,-0.1244,0.5856
4.7740,-0.8324,-0.1080,0.5721
4.7740,-0.8324,-0.1080,0.5721
4.7750,-0.8324,-0.1080,0.5721
4.7940,-0.8480,-0.1310,0.5597
4.7940,-0.8480,-0.1310,0.5597
4.7940,-0.8480,-0.1310,0.5597
4.7980,-0.8480,-0.1310,0.5597
4.7980,-0.8480,-0.1310,0.5597
4.8140,-0.8038,-0.1662,0.5364
4.8140,-0.8038,-0.1662,0.5364
4.8140,-0.8038,-0.1662,0.5364
4.8330,-0.7652,-0.1674,0.5513
4.8340,-0.7652,-0.1674,0.5513
4.8340,-0.7652,-0.1674,0.5513
4.8530,-0.8268,-0.1290,0.5670
4.8530,-0.8268,-0.1290,0.5670
4.8540,-0.8268,-0.1290,0.5670
4.8740,-0.8854,-0.1075,0.5714
4.8740,-0.8854,-0.1075,0.5714
4.8740,-0.8854,-0.1075,0.5714
4.8770,-0.8854,-0.1075,0.5714
4.8770,-0.8854,-0.1075,0.5714
4.8930,-0.8617,-0.1398,0.5594
4.8940,-0.8617,-0.1398,0.5594
4.8940,-0.8617,-0.1398,0.5594
4.9130,-0.8040,-0.1586,0.5548
4.9140,-0.8040,-0.1586,0.5548
4.9140,-0.8040,-0.1586,0.5548
4.9330,-0.7896,-0.1381,0.5518
4.9330,-0.7896,-0.1381,0.5518
4.9340,-0.7896,-0.1381,0.5518
4.9340,-0.7896,-0.1381,0.5518
4.9540,-0.7706,-0.1300,0.5597
4.9540,-0.7706,-0.1300,0.5597
4.9540,-0.7706,-0.1300,0.5597
4.9580,-0.7706,-0.1300,0.5597
4.9590,-0.7706,-0.1300,0.5597
4.9740,-0.7911,-0.1249,0.5645
5.0050,-0.7911,-0.1249,0.5645
5.0050,-0.7911,-0.1249,0.5645
5.0050,-0.7911,-0.1249,0.5645
5.0050,-0.8180,-0.1349,0.5870
5.0050,-0.8180,-0.1349,0.5870
5.0050,-0.8180,-0.1349,0.5870
5.0150,-0.8451,-0.1454,0.5948
5.0150,-0.8451,-0.1454,0.5948
5.0150,-0.8451,-0.1454,0.5948
5.0410,-0.8214,-0.1303,0.5665
5.0410,-0.8214,-0.1303,0.5665
5.0410,-0.8214,-0.1303,0.5665
5.0410,-0.8214,-0.1303,0.5665
5.0410,-0.8214,-0.1303,0.5665
5.0550,-0.7952,-0.1403,0.5645
5.0550,-0.7952,-0.1403,0.5645
5.0550,-0.7952,-0.1403,0.5645
5.0740,-0.8040,-0.1474,0.5631
5.0740,-0.8040,-0.1474,0.5631
5.0740,-0.8040,-0.1474,0.5631
5.0940,-0.8414,-0.1481,0.5572
5.0940,-0.8414,-0.1481,0.5572
5.0940,-0.8414,-0.1481,0.5572
5.1140,-0.8353,-0.1581,0.5479
5.1140,-0.8353,-0.1581,0.5479
5.1140,-0.8353,-0.1581,0.5479
5.1170,-0.8353,-0.1581,0.5479
5.1170,-0.8353,-0.1581,0.5479
5.1340,-0.8356,-0.1334,0.5543
5.1340,-0.8356,-0.1334,0.5543
5.1340,-0.8356,-0.1334,0.5543
5.1340,-0.8356,-0.1334,0.5543
5.1540,-0.8439,-0.1149,0.5548
5.1540,-0.8439,-0.1149,0.5548
5.1540,-0.8439,-0.1149,0.5548
5.1740,-0.8211,-0.1320,0.5318
5.1740,-0.8211,-0.1320,0.5318
5.1740,-0.8211,-0.1320,0.5318
5.1950,-0.8111,-0.1496,0.5369
5.1960,-0.8111,-0.1496,0.5369
5.1960,-0.8111,-0.1496,0.5369
5.1970,-0.8111,-0.1496,0.5369
5.1980,-0.8111,-0.1496,0.5369
5.2160,-0.8023,-0.1464,0.5538
5.2160,-0.8023,-0.1464,0.5538
5.2170,-0.8023,-0.1464,0.5538
5.2330,-0.8211,-0.1198,0.5523
5.2330,-0.8211,-0.1198,0.5523
5.2340,-0.8211,-0.1198,0.5523
5.2530,-0.8615,-0.1207,0.5648
5.2530,-0.8615,-0.1207,0.5648
5.2530,-0.8615,-0.1207,0.5648
5.2720,-0.8583,-0.1618,0.5853
5.2720,-0.8583,-0.1618,0.5853
5.2720,-0.8583,-0.1618,0.5853
5.2790,-0.8583,-0.1618,0.5853
5.2800,-0.8583,-0.1618,0.5853
5.2920,-0.8177,-0.1510,0.5638
5.2920,-0.8177,-0.1510,0.5638
5.2930,-0.8177,-0.1510,0.5638
5.3120,-0.8121,-0.1136,0.5575
5.3130,-0.8121,-0.1136,0.5575
5.3130,-0.8121,-0.1136,0.5575
5.3320,-0.7904,-0.1110,0.5604
5.3320,-0.7904,-0.1110,0.5604
5.3320,-0.7904,-0.1110,0.5604
5.3320,-0.7904,-0.1110,0.5604
5.3590,-0.8160,-0.1288,0.5606
5.3590,-0.8160,-0.1288,0.5606
5.3590,-0.8160,-0.1288,0.5606
5.3590,-0.8160,-0.1288,0.5606
5.3590,-0.8160,-0.1288,0.5606
5.3750,-0.8209,-0.1689,0.5692
5.3750,-0.8209,-0.1689,0.5692
5.3750,-0.8209,-0.1689,0.5692
5.3910,-0.8062,-0.1721,0.5438
5.3910,-0.8062,-0.1721,0.5438
5.3910,-0.8062,-0.1721,0.5438
5.4150,-0.8119,-0.1483,0.5428
5.4160,-0.8119,-0.1483,0.5428
5.4160,-0.8119,-0.1483,0.5428
5.4310,-0.8060,-0.1288,0.5494
5.4310,-0.8060,-0.1288,0.5494
5.4320,-0.8060,-0.1288,0.5494
5.4340,-0.8060,-0.1288,0.5494
5.4340,-0.8060,-0.1288,0.5494
5.4510,-0.7979,-0.1417,0.5523
5.4510,-0.7979,-0.1417,0.5523
5.4510,-0.7979,-0.1417,0.5523
5.4710,-0.7879,-0.1615,0.5543
5.4710,-0.7879,-0.1615,0.5543
5.4710,-0.7879,-0.1615,0.5543
5.4910,-0.7935,-0.1549,0.5655
5.4910,-0.7935,-0.1549,0.5655
5.4910,-0.7935,-0.1549,0.5655
5.5100,-0.8275,-0.1403,0.5780
5.5110,-0.8275,-0.1403,0.5780
5.5110,-0.8275,-0.1403,0.5780
5.5140,-0.8275,-0.1403,0.5780
5.5140,-0.8275,-0.1403,0.5780
5.5650,-0.8625,-0.1537,0.5978
5.5650,-0.8625,-0.1537,0.5978
5.5650,-0.8625,-0.1537,0.5978
5.5650,-0.8625,-0.1537,0.5978
5.5650,-0.8693,-0.1728,0.5704
5.5660,-0.8693,-0.1728,0.5704
5.5660,-0.8693,-0.1728,0.5704
5.5700,-0.8077,-0.1662,0.5218
5.5700,-0.8077,-0.1662,0.5218
5.5700,-0.8077,-0.1662,0.5218
5.5830,-0.8077,-0.1662,0.5218
5.5910,-0.7161,-0.1486,0.5269
5.5910,-0.7161,-0.1486,0.5269
5.5920,-0.7161,-0.1486,0.5269
5.5950,-0.7161,-0.1486,0.5269
5.5950,-0.7161,-0.1486,0.5269
5.6140,-0.7833,-0.1378,0.5692
5.6140,-0.7833,-0.1378,0.5692
5.6140,-0.7833,-0.1378,0.5692
5.6310,-0.8185,-0.1344,0.6022
5.6310,-0.8185,-0.1344,0.6022
5.6320,-0.8185,-0.1344,0.6022
5.6510,-0.8336,-0.1354,0.5922
5.6510,-0.8336,-0.1354,0.5922
5.6510,-0.8336,-0.1354,0.5922
5.6750,-0.8896,-0.1628,0.5975
5.6750,-0.8896,-0.1628,0.5975
5.6750,-0.8896,-0.1628,0.5975
5.6780,-0.8896,-0.1628,0.5975
5.6780,-0.8896,-0.1628,0.5975
5.6910,-0.8422,-0.1667,0.5829
5.6910,-0.8422,-0.1667,0.5829
5.6920,-0.8422,-0.1667,0.5829
5.7120,-0.8114,-0.1417,0.5538
5.7120,-0.8114,-0.1417,0.5538
5.7120,-0.8114,-0.1417,0.5538
5.7310,-0.8365,-0.1285,0.5352
5.7310,-0.8365,-0.1285,0.5352
5.7310,-0.8365,-0.1285,0.5352
5.7310,-0.8365,-0.1285,0.5352
5.7510,-0.8319,-0.1400,0.5315
5.7510,-0.8319,-0.1400,0.5315
5.7520,-0.8319,-0.1400,0.5315
5.7540,-0.8319,-0.1400,0.5315
5.7550,-0.8319,-0.1400,0.5315
5.7700,-0.8143,-0.1488,0.5264
5.7700,-0.8143,-0.1488,0.5264
5.7710,-0.8143,-0.1488,0.5264
5.7900,-0.8126,-0.1535,0.5367
5.7900,-0.8126,-0.1535,0.5367
5.7910,-0.8126,-0.1535,0.5367
5.8100,-0.7965,-0.1738,0.5501
5.8100,-0.7965,-0.1738,0.5501
5.8110,-0.7965,-0.1738,0.5501
5.8300,-0.8243,-0.1637,0.5462
5.8310,-0.8243,-0.1637,0.5462
5.8310,-0.8243,-0.1637,0.5462
5.8330,-0.8243,-0.1637,0.5462
5.8340,-0.8243,-0.1637,0.5462
5.8500,-0.8077,-0.1510,0.5760
5.8500,-0.8077,-0.1510,0.5760
5.8500,-0.8077,-0.1510,0.5760
5.8700,-0.8006,-0.1369,0.6010
5.8700,-0.8006,-0.1369,0.6010
5.8700,-0.8006,-0.1369,0.6010
5.8900,-0.8439,-0.1366,0.5968
5.8900,-0.8439,-0.1366,0.5968
5.8900,-0.8439,-0.1366,0.5968
5.9100,-0.8458,-0.1481,0.5633
5.9100,-0.8458,-0.1481,0.5633
5.9100,-0.8458,-0.1481,0.5633
5.9140,-0.8458,-0.1481,0.5633
5.9140,-0.8458,-0.1481,0.5633
5.9290,-0.8458,-0.1481,0.5633
5.9300,-0.8241,-0.1457,0.5347
5.9300,-0.8241,-0.1457,0.5347
5.9300,-0.8241,-0.1457,0.5347
5.9500,-0.8236,-0.1241,0.5108
5.9500,-0.8236,-0.1241,0.5108
5.9510,-0.8236,-0.1241,0.5108
5.9690,-0.7845,-0.1129,0.5242
5.9700,-0.7845,-0.1129,0.5242
5.9700,-0.7845,-0.1129,0.5242
5.9810,-0.7845,-0.1129,0.5242
5.9900,-0.7974,-0.1114,0.5215
5.9900,-0.7974,-0.1114,0.5215
5.9910,-0.7974,-0.1114,0.5215
5.9930,-0.7974,-0.1114,0.5215
5.9940,-0.7974,-0.1114,0.5215
6.0100,-0.8253,-0.1554,0.5450
6.0100,-0.8253,-0.1554,0.5450
6.0100,-0.8253,-0.1554,0.5450
6.0290,-0.7982,-0.1877,0.5628
6.0300,-0.7982,-0.1877,0.5628
6.0300,-0.7982,-0.1877,0.5628
6.0490,-0.8121,-0.1474,0.5606
6.0490,-0.8121,-0.1474,0.5606
6.0490,-0.8121,-0.1474,0.5606
6.0690,-0.8336,-0.1383,0.5777
6.0690,-0.8336,-0.1383,0.5777
6.1070,-0.8336,-0.1383,0.5777
6.1080,-0.8336,-0.1383,0.5777
6.1080,-0.8336,-0.1383,0.5777
6.1080,-0.7974,-0.1674,0.5802
6.1080,-0.7974,-0.1674,0.5802
6.1080,-0.7974,-0.1674,0.5802
6.1110,-0.8312,-0.1681,0.5743
6.1110,-0.8312,-0.1681,0.5743
6.1110,-0.8312,-0.1681,0.5743
6.1270,-0.8312,-0.1681,0.5743
6.1280,-0.8194,-0.1611,0.5794
6.1280,-0.8194,-0.1611,0.5794
6.1280,-0.8194,-0.1611,0.5794
6.1480,-0.8067,-0.1510,0.5733
6.1480,-0.8067,-0.1510,0.5733
6.1480,-0.8067,-0.1510,0.5733
6.1520,-0.8067,-0.1510,0.5733
6.1520,-0.8067,-0.1510,0.5733
6.1670,-0.8138,-0.1410,0.5848
6.1670,-0.8138,-0.1410,0.5848
6.1670,-0.8138,-0.1410,0.5848
6.1870,-0.8659,-0.1342,0.5768
6.1870,-0.8659,-0.1342,0.5768
6.1870,-0.8659,-0.1342,0.5768
6.2070,-0.8468,-0.1518,0.5587
6.2080,-0.8468,-0.1518,0.5587
6.2080,-0.8468,-0.1518,0.5587
6.2280,-0.8084,-0.1637,0.5372
6.2290,-0.8084,-0.1637,0.5372
6.2290,-0.8084,-0.1637,0.5372
6.2320,-0.8084,-0.1637,0.5372
6.2330,-0.8084,-0.1637,0.5372
6.2480,-0.7957,-0.1508,0.5504
6.2480,-0.7957,-0.1508,0.5504
6.2480,-0.7957,-0.1508,0.5504
6.2700,-0.7752,-0.1334,0.5435
6.2710,-0.7752,-0.1334,0.5435
6.2710,-0.7752,-0.1334,0.5435
6.2930,-0.8116,-0.1332,0.5467
6.2930,-0.8116,-0.1332,0.5467
6.2930,-0.8116,-0.1332,0.5467
6.3090,-0.8312,-0.1532,0.5597
6.3100,-0.8312,-0.1532,0.5597
6.3100,-0.8312,-0.1532,0.5597
6.3100,-0.8312,-0.1532,0.5597
6.3100,-0.8312,-0.1532,0.5597
6.3290,-0.8312,-0.1532,0.5597
6.3290,-0.7982,-0.1684,0.5623
6.3290,-0.7982,-0.1684,0.5623
6.3290,-0.7982,-0.1684,0.5623
6.3480,-0.8102,-0.1584,0.5650
6.3480,-0.8102,-0.1584,0.5650
6.3480,-0.8102,-0.1584,0.5650
6.3670,-0.8226,-0.1469,0.5868
6.3670,-0.8226,-0.1469,0.5868
6.3670,-0.8226,-0.1469,0.5868
6.3890,-0.7818,-0.1393,0.5643
6.3890,-0.7818,-0.1393,0.5643
6.3890,-0.7818,-0.1393,0.5643
6.3900,-0.7818,-0.1393,0.5643
6.3900,-0.7818,-0.1393,0.5643
6.4070,-0.8177,-0.1520,0.5477
6.4070,-0.8177,-0.1520,0.5477
6.4070,-0.8177,-0.1520,0.5477
6.4270,-0.8627,-0.1503,0.5570
6.4270,-0.8627,-0.1503,0.5570
6.4270,-0.8627,-0.1503,0.5570
6.4470,-0.8444,-0.1430,0.5604
6.4470,-0.8444,-0.1430,0.5604
6.4470,-0.8444,-0.1430,0.5604
6.4700,-0.7776,-0.1376,0.5320
6.4700,-0.7776,-0.1376,0.5320
6.4700,-0.7776,-0.1376,0.5320
6.4700,-0.7776,-0.1376,0.5320
6.4710,-0.7776,-0.1376,0.5320
6.4870,-0.7923,-0.1327,0.5487
6.4880,-0.7923,-0.1327,0.5487
6.4880,-0.7923,-0.1327,0.5487
6.5090,-0.8475,-0.1503,0.5636
6.5090,-0.8475,-0.1503,0.5636
6.5090,-0.8475,-0.1503,0.5636
6.5290,-0.8475,-0.1503,0.5636
6.5290,-0.8238,-0.1728,0.5494
6.5290,-0.8238,-0.1728,0.5494
6.5290,-0.8238,-0.1728,0.5494
6.5470,-0.7818,-0.1655,0.5797
6.5470,-0.7818,-0.1655,0.5797
6.5470,-0.7818,-0.1655,0.5797
6.5500,-0.7818,-0.1655,0.5797
6.5510,-0.7818,-0.1655,0.5797
6.5660,-0.8116,-0.1447,0.5838
6.5660,-0.8116,-0.1447,0.5838
6.5660,-0.8116,-0.1447,0.5838
6.5790,-0.8116,-0.1447,0.5838
6.5870,-0.7725,-0.1591,0.5562
6.5880,-0.7725,-0.1591,0.5562
6.5880,-0.7725,-0.1591,0.5562
6.6070,-0.7740,-0.1794,0.5643
6.6080,-0.7740,-0.1794,0.5643
6.6080,-0.7740,-0.1794,0.5643
6.6430,-0.8207,-0.1696,0.6063
6.6430,-0.8207,-0.1696,0.6063
6.6440,-0.8207,-0.1696,0.6063
6.6440,-0.8207,-0.1696,0.6063
6.6440,-0.8207,-0.1696,0.6063
6.6450,-0.8431,-0.1596,0.6242
6.6450,-0.8431,-0.1596,0.6242
6.6450,-0.8431,-0.1596,0.6242
6.6640,-0.8439,-0.1508,0.5936
6.6650,-0.8439,-0.1508,0.5936
6.6650,-0.8439,-0.1508,0.5936
6.6840,-0.8246,-0.1486,0.5775
6.6840,-0.8246,-0.1486,0.5775
6.6850,-0.8246,-0.1486,0.5775
6.7050,-0.8048,-0.1540,0.5628
6.7050,-0.8048,-0.1540,0.5628
6.7050,-0.8048,-0.1540,0.5628
6.7070,-0.8048,-0.1540,0.5628
6.7080,-0.8048,-0.1540,0.5628
6.7230,-0.8048,-0.1540,0.5628
6.7260,-0.8131,-0.1496,0.5362
6.7270,-0.8131,-0.1496,0.5362
6.7270,-0.8131,-0.1496,0.5362
6.7450,-0.7860,-0.1603,0.5210
6.7450,-0.7860,-0.1603,0.5210
6.7450,-0.7860,-0.1603,0.5210
6.7650,-0.7798,-0.1630,0.5333
6.7650,-0.7798,-0.1630,0.5333
6.7650,-0.7798,-0.1630,0.5333
6.7850,-0.8055,-0.1686,0.5594
6.7850,-0.8055,-0.1686,0.5594
6.7850,-0.8055,-0.1686,0.5594
6.7880,-0.8055,-0.1686,0.5594
6.7890,-0.8055,-0.1686,0.5594
6.8070,-0.8414,-0.1667,0.5997
6.8080,-0.8414,-0.1667,0.5997
6.8080,-0.8414,-0.1667,0.5997
6.8250,-0.8116,-0.1603,0.6076
6.8250,-0.8116,-0.1603,0.6076
6.8270,-0.8116,-0.1603,0.6076
6.8460,-0.7664,-0.1699,0.5860
6.8480,-0.7664,-0.1699,0.5860
6.8480,-0.7664,-0.1699,0.5860
6.8660,-0.8053,-0.1784,0.5917
6.8680,-0.8053,-0.1784,0.5917
6.8680,-0.8053,-0.1784,0.5917
6.8690,-0.8053,-0.1784,0.5917
6.8690,-0.8053,-0.1784,0.5917
6.8860,-0.8554,-0.1579,0.5858
6.8860,-0.8554,-0.1579,0.5858
6.8870,-0.8554,-0.1579,0.5858
6.9080,-0.8610,-0.1276,0.5697
6.9090,-0.8610,-0.1276,0.5697
6.9100,-0.8610,-0.1276,0.5697
6.9250,-0.8610,-0.1276,0.5697
6.9260,-0.8363,-0.1359,0.5775
6.9260,-0.8363,-0.1359,0.5775
6.9270,-0.8363,-0.1359,0.5775
6.9450,-0.7913,-0.1444,0.5418
6.9460,-0.7913,-0.1444,0.5418
6.9470,-0.7913,-0.1444,0.5418
6.9480,-0.7913,-0.1444,0.5418
6.9480,-0.7913,-0.1444,0.5418
6.9650,-0.7593,-0.1439,0.5206
6.9650,-0.7593,-0.1439,0.5206
6.9660,-0.7593,-0.1439,0.5206
6.9840,-0.7806,-0.1413,0.5379
6.9850,-0.7806,-0.1413,0.5379
6.9860,-0.7806,-0.1413,0.5379
7.0050,-0.8077,-0.1488,0.5670
7.0050,-0.8077,-0.1488,0.5670
7.0060,-0.8077,-0.1488,0.5670
7.0250,-0.8116,-0.1635,0.5812
7.0260,-0.8116,-0.1635,0.5812
7.0270,-0.8116,-0.1635,0.5812
7.0280,-0.8116,-0.1635,0.5812
7.0280,-0.8116,-0.1635,0.5812
7.0440,-0.8190,-0.1645,0.5799
7.0440,-0.8190,-0.1645,0.5799
7.0450,-0.8190,-0.1645,0.5799
7.0670,-0.8280,-0.1713,0.5939
7.0670,-0.8280,-0.1713,0.5939
7.0680,-0.8280,-0.1713,0.5939
7.0860,-0.8356,-0.1591,0.5885
7.0890,-0.8356,-0.1591,0.5885
7.0890,-0.8356,-0.1591,0.5885
7.1060,-0.7879,-0.1457,0.5726
7.1060,-0.7879,-0.1457,0.5726
7.1070,-0.7879,-0.1457,0.5726
7.1080,-0.7879,-0.1457,0.5726
7.1080,-0.7879,-0.1457,0.5726
7.1240,-0.7879,-0.1457,0.5726
7.1250,-0.7251,-0.1498,0.5687
7.1260,-0.7251,-0.1498,0.5687
7.1260,-0.7251,-0.1498,0.5687
7.1460,-0.7955,-0.1542,0.5868
7.1470,-0.7955,-0.1542,0.5868
7.1470,-0.7955,-0.1542,0.5868
7.1680,-0.8519,-0.1882,0.5995
7.1690,-0.8519,-0.1882,0.5995
7.2450,-0.8519,-0.1882,0.5995
7.2470,-0.8087,-0.1855,0.5582
7.2470,-0.8087,-0.1855,0.5582
7.2470,-0.8087,-0.1855,0.5582
7.2480,-0.8087,-0.1855,0.5582
7.2480,-0.8087,-0.1855,0.5582
7.2480,-0.8080,-0.1439,0.5587
7.2480,-0.8080,-0.1439,0.5587
7.2480,-0.8080,-0.1439,0.5587
7.2480,-0.8295,-0.1325,0.5770
7.2490,-0.8295,-0.1325,0.5770
7.2490,-0.8295,-0.1325,0.5770
7.2490,-0.8527,-0.1515,0.5790
7.2490,-0.8527,-0.1515,0.5790
7.2490,-0.8527,-0.1515,0.5790
7.2670,-0.7987,-0.1813,0.5499
7.2670,-0.7987,-0.1813,0.5499
7.2670,-0.7987,-0.1813,0.5499
7.2680,-0.7987,-0.1813,0.5499
7.2710,-0.7987,-0.1813,0.5499
7.2810,-0.7405,-0.1904,0.5443
7.2810,-0.7405,-0.1904,0.5443
7.2810,-0.7405,-0.1904,0.5443
7.3010,-0.7505,-0.1593,0.5858
7.3010,-0.7505,-0.1593,0.5858
7.3010,-0.7505,-0.1593,0.5858
7.3200,-0.7505,-0.1593,0.5858
7.3200,-0.7789,-0.1312,0.6134
7.3200,-0.7789,-0.1312,0.6134
7.3210,-0.7789,-0.1312,0.6134
7.3440,-0.8055,-0.1474,0.6134
7.3440,-0.8055,-0.1474,0.6134
7.3450,-0.8055,-0.1474,0.6134
7.3450,-0.8055,-0.1474,0.6134
7.3460,-0.8055,-0.1474,0.6134
7.3610,-0.8356,-0.1659,0.5790
7.3620,-0.8356,-0.1659,0.5790
7.3630,-0.8356,-0.1659,0.5790
7.3820,-0.8058,-0.1772,0.5829
7.3830,-0.8058,-0.1772,0.5829
7.3840,-0.8058,-0.1772,0.5829
7.4020,-0.7337,-0.1532,0.5614
7.4030,-0.7337,-0.1532,0.5614
7.4040,-0.7337,-0.1532,0.5614
7.4280,-0.7564,-0.1327,0.5416
7.4290,-0.7564,-0.1327,0.5416
7.4290,-0.7564,-0.1327,0.5416
7.4300,-0.7564,-0.1327,0.5416
7.4300,-0.7564,-0.1327,0.5416
7.4440,-0.8661,-0.1532,0.5694
7.4450,-0.8661,-0.1532,0.5694
7.4450,-0.8661,-0.1532,0.5694
7.4730,-0.8270,-0.1623,0.5636
7.4740,-0.8270,-0.1623,0.5636
7.4750,-0.8270,-0.1623,0.5636
7.4890,-0.7710,-0.1461,0.5531
7.4900,-0.7710,-0.1461,0.5531
7.4910,-0.7710,-0.1461,0.5531
7.5050,-0.8077,-0.1371,0.5616
7.5060,-0.8077,-0.1371,0.5616
7.5060,-0.8077,-0.1371,0.5616
7.5060,-0.8077,-0.1371,0.5616
7.5070,-0.8077,-0.1371,0.5616
7.5240,-0.8077,-0.1371,0.5616
7.5240,-0.8280,-0.1479,0.5672
7.5280,-0.8280,-0.1479,0.5672
7.5280,-0.8280,-0.1479,0.5672
7.5430,-0.8246,-0.1435,0.5765
7.5430,-0.8246,-0.1435,0.5765
7.5450,-0.8246,-0.1435,0.5765
7.5670,-0.8397,-0.1398,0.5663
7.5680,-0.8397,-0.1398,0.5663
7.5690,-0.8397,-0.1398,0.5663
7.5700,-0.8397,-0.1398,0.5663
7.5830,-0.8128,-0.1537,0.5621
7.5850,-0.8128,-0.1537,0.5621
7.5860,-0.8128,-0.1537,0.5621
7.5860,-0.8128,-0.1537,0.5621
7.5870,-0.8128,-0.1537,0.5621
7.6060,-0.7872,-0.1740,0.5782
7.6070,-0.7872,-0.1740,0.5782
7.6080,-0.7872,-0.1740,0.5782
7.6220,-0.7686,-0.1823,0.5929
7.6230,-0.7686,-0.1823,0.5929
7.6230,-0.7686,-0.1823,0.5929
7.6460,-0.7921,-0.1576,0.5763
7.6470,-0.7921,-0.1576,0.5763
7.6480,-0.7921,-0.1576,0.5763
7.6640,-0.8793,-0.1540,0.5882
7.6650,-0.8793,-0.1540,0.5882
7.6660,-0.8793,-0.1540,0.5882
7.6660,-0.8793,-0.1540,0.5882
7.6670,-0.8793,-0.1540,0.5882
7.6840,-0.8910,-0.1752,0.5799
7.6870,-0.8910,-0.1752,0.5799
7.6880,-0.8910,-0.1752,0.5799
7.7020,-0.7632,-0.1574,0.5535
7.7030,-0.7632,-0.1574,0.5535
7.7030,-0.7632,-0.1574,0.5535
7.7250,-0.7632,-0.1574,0.5535
7.8130,-0.7962,-0.1092,0.5474
7.8130,-0.7962,-0.1092,0.5474
7.8140,-0.7962,-0.1092,0.5474
7.8140,-0.8187,-0.1070,0.5345
7.8140,-0.8187,-0.1070,0.5345
7.8140,-0.8187,-0.1070,0.5345
7.8150,-0.8187,-0.1070,0.5345
7.8150,-0.8187,-0.1070,0.5345
7.8150,-0.8138,-0.1547,0.5457
7.8150,-0.8138,-0.1547,0.5457
7.8150,-0.8138,-0.1547,0.5457
7.8160,-0.8138,-0.1547,0.5457
7.8160,-0.8026,-0.2004,0.5658
7.8160,-0.8026,-0.2004,0.5658
7.8160,-0.8026,-0.2004,0.5658
7.8160,-0.8199,-0.1708,0.5406
7.8160,-0.8199,-0.1708,0.5406
7.8170,-0.8199,-0.1708,0.5406
7.8170,-0.8683,-0.1156,0.5609
7.8170,-0.8683,-0.1156,0.5609
7.8170,-0.8683,-0.1156,0.5609
7.8200,-0.8683,-0.1156,0.5609
7.8210,-0.8683,-0.1156,0.5609
7.8380,-0.8231,-0.1327,0.5772
7.8380,-0.8231,-0.1327,0.5772
7.8390,-0.8231,-0.1327,0.5772
7.8590,-0.7530,-0.1789,0.5562
7.8600,-0.7530,-0.1789,0.5562
7.8600,-0.7530,-0.1789,0.5562
7.8820,-0.7872,-0.1725,0.5557
7.8820,-0.7872,-0.1725,0.5557
7.8820,-0.7872,-0.1725,0.5557
7.9010,-0.8539,-0.1349,0.5714
7.9020,-0.8539,-0.1349,0.5714
7.9020,-0.8539,-0.1349,0.5714
7.9030,-0.8539,-0.1349,0.5714
7.9040,-0.8539,-0.1349,0.5714
7.9140,-0.8539,-0.1349,0.5714
7.9190,-0.8524,-0.1364,0.5716
7.9190,-0.8524,-0.1364,0.5716
7.9200,-0.8524,-0.1364,0.5716
7.9420,-0.8561,-0.1559,0.5675
7.9430,-0.8561,-0.1559,0.5675
7.9440,-0.8561,-0.1559,0.5675
7.9630,-0.8290,-0.1733,0.5553
7.9640,-0.8290,-0.1733,0.5553
7.9660,-0.8290,-0.1733,0.5553
7.9810,-0.8050,-0.1657,0.5401
7.9820,-0.8050,-0.1657,0.5401
7.9830,-0.8050,-0.1657,0.5401
7.9860,-0.8050,-0.1657,0.5401
7.9880,-0.8050,-0.1657,0.5401
7.9990,-0.8231,-0.1395,0.5594
8.0000,-0.8231,-0.1395,0.5594
8.0000,-0.8231,-0.1395,0.5594
8.0200,-0.8471,-0.1474,0.5794
8.0220,-0.8471,-0.1474,0.5794
8.0230,-0.8471,-0.1474,0.5794
8.0390,-0.8326,-0.1525,0.5521
8.0400,-0.8326,-0.1525,0.5521
8.0410,-0.8326,-0.1525,0.5521
8.0620,-0.7952,-0.1386,0.5281
8.0630,-0.7952,-0.1386,0.5281
8.0640,-0.7952,-0.1386,0.5281
8.0640,-0.7952,-0.1386,0.5281
8.0650,-0.7952,-0.1386,0.5281
8.0810,-0.7784,-0.1395,0.5526
8.0820,-0.7784,-0.1395,0.5526
8.0820,-0.7784,-0.1395,0.5526
8.1000,-0.7852,-0.1229,0.5589
8.1000,-0.7852,-0.1229,0.5589
8.1010,-0.7852,-0.1229,0.5589
8.1140,-0.7852,-0.1229,0.5589
8.1190,-0.8070,-0.1237,0.5643
8.1190,-0.8070,-0.1237,0.5643
8.1200,-0.8070,-0.1237,0.5643
8.1380,-0.8243,-0.1633,0.5535
8.1390,-0.8243,-0.1633,0.5535
8.1390,-0.8243,-0.1633,0.5535
8.1410,-0.8243,-0.1633,0.5535
8.1420,-0.8243,-0.1633,0.5535
8.1570,-0.7576,-0.1923,0.5474
8.1580,-0.7576,-0.1923,0.5474
8.1580,-0.7576,-0.1923,0.5474
8.1790,-0.7613,-0.1569,0.5672
8.1790,-0.7613,-0.1569,0.5672
8.1800,-0.7613,-0.1569,0.5672
8.1980,-0.8383,-0.1220,0.5816
8.1990,-0.8383,-0.1220,0.5816
8.2000,-0.8383,-0.1220,0.5816
8.2180,-0.8089,-0.1518,0.5831
8.2180,-0.8089,-0.1518,0.5831
8.2190,-0.8089,-0.1518,0.5831
8.2200,-0.8089,-0.1518,0.5831
8.2200,-0.8089,-0.1518,0.5831
8.2390,-0.8160,-0.1889,0.5819
8.2400,-0.8160,-0.1889,0.5819
8.2410,-0.8160,-0.1889,0.5819
8.2570,-0.8566,-0.1679,0.5838
8.2620,-0.8566,-0.1679,0.5838
8.3390,-0.8566,-0.1679,0.5838
8.3400,-0.8412,-0.1510,0.5780
8.3420,-0.8412,-0.1510,0.5780
8.3420,-0.8412,-0.1510,0.5780
8.3420,-0.8075,-0.1398,0.5543
8.3420,-0.8075,-0.1398,0.5543
8.3430,-0.8075,-0.1398,0.5543
8.3430,-0.8075,-0.1398,0.5543
8.3430,-0.8075,-0.1398,0.5543
8.3430,-0.8075,-0.1398,0.5543
8.3430,-0.8006,-0.1342,0.5333
8.3430,-0.8006,-0.1342,0.5333
8.3440,-0.8006,-0.1342,0.5333
8.3440,-0.8033,-0.1452,0.5416
8.3440,-0.8033,-0.1452,0.5416
8.3440,-0.8033,-0.1452,0.5416
8.3610,-0.8143,-0.1413,0.5658
8.3620,-0.8143,-0.1413,0.5658
8.3620,-0.8143,-0.1413,0.5658
8.3770,-0.8546,-0.1251,0.5604
8.3770,-0.8546,-0.1251,0.5604
8.3770,-0.8546,-0.1251,0.5604
8.3770,-0.8546,-0.1251,0.5604
8.3770,-0.8546,-0.1251,0.5604
8.4000,-0.8629,-0.1320,0.5421
8.4010,-0.8629,-0.1320,0.5421
8.4010,-0.8629,-0.1320,0.5421
8.4140,-0.8287,-0.1459,0.5577
8.4150,-0.8287,-0.1459,0.5577
8.4160,-0.8287,-0.1459,0.5577
8.4340,-0.8329,-0.1581,0.5494
8.4350,-0.8329,-0.1581,0.5494
8.4350,-0.8329,-0.1581,0.5494
8.4540,-0.7935,-0.1518,0.5223
8.4540,-0.7935,-0.1518,0.5223
8.4550,-0.7935,-0.1518,0.5223
8.4550,-0.7935,-0.1518,0.5223
8.4730,-0.7974,-0.1337,0.5345
8.4730,-0.7974,-0.1337,0.5345
8.4730,-0.7974,-0.1337,0.5345
8.4960,-0.8119,-0.1383,0.5570
8.4960,-0.8119,-0.1383,0.5570
8.4960,-0.8119,-0.1383,0.5570
8.5100,-0.8119,-0.1383,0.5570
8.5170,-0.8304,-0.1361,0.5491
8.5210,-0.8304,-0.1361,0.5491
8.5210,-0.8304,-0.1361,0.5491
8.5380,-0.8752,-0.1474,0.5455
8.5380,-0.8752,-0.1474,0.5455
8.5390,-0.8752,-0.1474,0.5455
8.5390,-0.8752,-0.1474,0.5455
8.5390,-0.8752,-0.1474,0.5455
8.5550,-0.8419,-0.1730,0.5293
8.5560,-0.8419,-0.1730,0.5293
8.5560,-0.8419,-0.1730,0.5293
8.5620,-0.8419,-0.1730,0.5293
8.5750,-0.7950,-0.1532,0.5318
8.5760,-0.7950,-0.1532,0.5318
8.5760,-0.7950,-0.1532,0.5318
8.5950,-0.8219,-0.1202,0.5589
8.5960,-0.8219,-0.1202,0.5589
8.5960,-0.8219,-0.1202,0.5589
8.6150,-0.8094,-0.1413,0.5692
8.6160,-0.8094,-0.1413,0.5692
8.6240,-0.8094,-0.1413,0.5692
8.6250,-0.8094,-0.1413,0.5692
8.6260,-0.8094,-0.1413,0.5692
8.6360,-0.7808,-0.1718,0.5565
8.6360,-0.7808,-0.1718,0.5565
8.6370,-0.7808,-0.1718,0.5565
8.6550,-0.8036,-0.1633,0.5460
8.6560,-0.8036,-0.1633,0.5460
8.6560,-0.8036,-0.1633,0.5460
8.6730,-0.8361,-0.1547,0.5623
8.6740,-0.8361,-0.1547,0.5623
8.6740,-0.8361,-0.1547,0.5623
8.6950,-0.8170,-0.1630,0.5846
8.6960,-0.8170,-0.1630,0.5846
8.6970,-0.8170,-0.1630,0.5846
8.7040,-0.8170,-0.1630,0.5846
8.7050,-0.8170,-0.1630,0.5846
8.7080,-0.8170,-0.1630,0.5846
8.7120,-0.8295,-0.1491,0.5758
8.7130,-0.8295,-0.1491,0.5758
8.7130,-0.8295,-0.1491,0.5758
8.7360,-0.8236,-0.1576,0.5543
8.7360,-0.8236,-0.1576,0.5543
8.7370,-0.8236,-0.1576,0.5543
8.7550,-0.7952,-0.1874,0.5831
8.7560,-0.7952,-0.1874,0.5831
8.7560,-0.7952,-0.1874,0.5831
8.7760,-0.8246,-0.1567,0.5579
8.7760,-0.8246,-0.1567,0.5579
8.7770,-0.8246,-0.1567,0.5579
8.7820,-0.8246,-0.1567,0.5579
8.7820,-0.8246,-0.1567,0.5579
8.7940,-0.8109,-0.1542,0.5491
8.7950,-0.8109,-0.1542,0.5491
8.7960,-0.8109,-0.1542,0.5491
8.8150,-0.8378,-0.1530,0.5719
8.8880,-0.8378,-0.1530,0.5719
8.8890,-0.8378,-0.1530,0.5719
8.8890,-0.8358,-0.1498,0.5709
8.8890,-0.8358,-0.1498,0.5709
8.8890,-0.8358,-0.1498,0.5709
8.8900,-0.8299,-0.1471,0.5337
8.8900,-0.8299,-0.1471,0.5337
8.8900,-0.8299,-0.1471,0.5337
8.8900,-0.8299,-0.1471,0.5337
8.8900,-0.8299,-0.1471,0.5337
8.8910,-0.8133,-0.1581,0.5469
8.8910,-0.8133,-0.1581,0.5469
8.8910,-0.8133,-0.1581,0.5469
8.8910,-0.7982,-0.1589,0.5465
8.8910,-0.7982,-0.1589,0.5465
8.8910,-0.7982,-0.1589,0.5465
8.9070,-0.7982,-0.1589,0.5465
8.9100,-0.8062,-0.1540,0.5391
8.9100,-0.8062,-0.1540,0.5391
8.9100,-0.8062,-0.1540,0.5391
8.9350,-0.8199,-0.1569,0.5560
8.9350,-0.8199,-0.1569,0.5560
8.9350,-0.8199,-0.1569,0.5560
8.9360,-0.8199,-0.1569,0.5560
8.9360,-0.8199,-0.1569,0.5560
8.9530,-0.8417,-0.1369,0.5697
8.9530,-0.8417,-0.1369,0.5697
8.9540,-0.8417,-0.1369,0.5697
8.9710,-0.8375,-0.1447,0.5753
8.9710,-0.8375,-0.1447,0.5753
8.9720,-0.8375,-0.1447,0.5753
8.9910,-0.8097,-0.1601,0.5521
8.9910,-0.8097,-0.1601,0.5521
8.9920,-0.8097,-0.1601,0.5521
9.0110,-0.8180,-0.1515,0.5406
9.0120,-0.8180,-0.1515,0.5406
9.0120,-0.8180,-0.1515,0.5406
9.0160,-0.8180,-0.1515,0.5406
9.0160,-0.8180,-0.1515,0.5406
9.0330,-0.8072,-0.1532,0.5269
9.0330,-0.8072,-0.1532,0.5269
9.0340,-0.8072,-0.1532,0.5269
9.0520,-0.8009,-0.1549,0.5320
9.0530,-0.8009,-0.1549,0.5320
9.0530,-0.8009,-0.1549,0.5320
9.0710,-0.8268,-0.1586,0.5333
9.0710,-0.8268,-0.1586,0.5333
9.0720,-0.8268,-0.1586,0.5333
9.0910,-0.8094,-0.1518,0.5406
9.0920,-0.8094,-0.1518,0.5406
9.0920,-0.8094,-0.1518,0.5406
9.0970,-0.8094,-0.1518,0.5406
9.1020,-0.8094,-0.1518,0.5406
9.1050,-0.8094,-0.1518,0.5406
9.1110,-0.7943,-0.1417,0.5628
9.1120,-0.7943,-0.1417,0.5628
9.1120,-0.7943,-0.1417,0.5628
9.1300,-0.8221,-0.1515,0.5794
9.1310,-0.8221,-0.1515,0.5794
9.1310,-0.8221,-0.1515,0.5794
9.1510,-0.7930,-0.1659,0.5675
9.1520,-0.7930,-0.1659,0.5675
9.1520,-0.7930,-0.1659,0.5675
9.1630,-0.7930,-0.1659,0.5675
9.1710,-0.7913,-0.1779,0.5509
9.1720,-0.7913,-0.1779,0.5509
9.1730,-0.7913,-0.1779,0.5509
9.1730,-0.7913,-0.1779,0.5509
9.1740,-0.7913,-0.1779,0.5509
9.1910,-0.8102,-0.1857,0.5653
9.1920,-0.8102,-0.1857,0.5653
9.1920,-0.8102,-0.1857,0.5653
9.2090,-0.8229,-0.1728,0.5641
9.2100,-0.8229,-0.1728,0.5641
9.2110,-0.8229,-0.1728,0.5641
9.2290,-0.8275,-0.1537,0.5851
9.2300,-0.8275,-0.1537,0.5851
9.2310,-0.8275,-0.1537,0.5851
9.2510,-0.8422,-0.1562,0.5748
9.2520,-0.8422,-0.1562,0.5748
9.2520,-0.8422,-0.1562,0.5748
9.2530,-0.8422,-0.1562,0.5748
9.2530,-0.8422,-0.1562,0.5748
9.2700,-0.8087,-0.1931,0.5521
9.2710,-0.8087,-0.1931,0.5521
9.2710,-0.8087,-0.1931,0.5521
9.2900,-0.7913,-0.1830,0.5474
9.2910,-0.7913,-0.1830,0.5474
9.2910,-0.7913,-0.1830,0.5474
9.3050,-0.7913,-0.1830,0.5474
9.3090,-0.7957,-0.1694,0.5611
9.3100,-0.7957,-0.1694,0.5611
9.3110,-0.7957,-0.1694,0.5611
9.3300,-0.7745,-0.1569,0.5438
9.3310,-0.7745,-0.1569,0.5438
9.3320,-0.7745,-0.1569,0.5438
9.3320,-0.7745,-0.1569,0.5438
9.3330,-0.7745,-0.1569,0.5438
9.3490,-0.8053,-0.1523,0.5555
9.3500,-0.8053,-0.1523,0.5555
9.4280,-0.8053,-0.1523,0.5555
9.4290,-0.8353,-0.1772,0.5714
9.4290,-0.8353,-0.1772,0.5714
9.4290,-0.8353,-0.1772,0.5714
9.4290,-0.8070,-0.1962,0.5653
9.4290,-0.8070,-0.1962,0.5653
9.4290,-0.8070,-0.1962,0.5653
9.4290,-0.7877,-0.1870,0.5428
9.4300,-0.7877,-0.1870,0.5428
9.4300,-0.7877,-0.1870,0.5428
9.4300,-0.7877,-0.1870,0.5428
9.4300,-0.7877,-0.1870,0.5428
9.4300,-0.8084,-0.1752,0.5589
9.4300,-0.8084,-0.1752,0.5589
9.4310,-0.8084,-0.1752,0.5589
9.4490,-0.8153,-0.1906,0.6027
9.4490,-0.8153,-0.1906,0.6027
9.4490,-0.8153,-0.1906,0.6027
9.4680,-0.8031,-0.1943,0.5821
9.4680,-0.8031,-0.1943,0.5821
9.4680,-0.8031,-0.1943,0.5821
9.4880,-0.8138,-0.1794,0.5724
9.4880,-0.8138,-0.1794,0.5724
9.4890,-0.8138,-0.1794,0.5724
9.4900,-0.8138,-0.1794,0.5724
9.4900,-0.8138,-0.1794,0.5724
9.5020,-0.8138,-0.1794,0.5724
9.5060,-0.8255,-0.1689,0.5733
9.5060,-0.8255,-0.1689,0.5733
9.5070,-0.8255,-0.1689,0.5733
9.5280,-0.8361,-0.1752,0.5768
9.5280,-0.8361,-0.1752,0.5768
9.5280,-0.8361,-0.1752,0.5768
9.5470,-0.8559,-0.1718,0.5606
9.5480,-0.8559,-0.1718,0.5606
9.5480,-0.8559,-0.1718,0.5606
9.5570,-0.8559,-0.1718,0.5606
9.5690,-0.8185,-0.1706,0.5601
9.5700,-0.8185,-0.1706,0.5601
9.5710,-0.8185,-0.1706,0.5601
9.5710,-0.8185,-0.1706,0.5601
9.5720,-0.8185,-0.1706,0.5601
9.5880,-0.7818,-0.1625,0.5377
9.5890,-0.7818,-0.1625,0.5377
9.5900,-0.7818,-0.1625,0.5377
9.6070,-0.7803,-0.1725,0.5391
9.6080,-0.7803,-0.1725,0.5391
9.6080,-0.7803,-0.1725,0.5391
9.6270,-0.7803,-0.1777,0.5655
9.6280,-0.7803,-0.1777,0.5655
9.6290,-0.7803,-0.1777,0.5655
9.6480,-0.8434,-0.1835,0.5746
9.6480,-0.8434,-0.1835,0.5746
9.6490,-0.8434,-0.1835,0.5746
9.6490,-0.8434,-0.1835,0.5746
9.6500,-0.8434,-0.1835,0.5746
9.6660,-0.8642,-0.1833,0.5724
9.6670,-0.8642,-0.1833,0.5724
9.6680,-0.8642,-0.1833,0.5724
9.6880,-0.8207,-0.1791,0.5770
9.6880,-0.8207,-0.1791,0.5770
9.6890,-0.8207,-0.1791,0.5770
9.7030,-0.8207,-0.1791,0.5770
9.7070,-0.8084,-0.1735,0.5599
9.7080,-0.8084,-0.1735,0.5599
9.7080,-0.8084,-0.1735,0.5599
9.7290,-0.8172,-0.1723,0.5494
9.7290,-0.8172,-0.1723,0.5494
9.7310,-0.8172,-0.1723,0.5494
9.7310,-0.8172,-0.1723,0.5494
9.7310,-0.8172,-0.1723,0.5494
9.7470,-0.7957,-0.1723,0.5487
9.7480,-0.7957,-0.1723,0.5487
9.7480,-0.7957,-0.1723,0.5487
9.7690,-0.8084,-0.1677,0.5509
9.7700,-0.8084,-0.1677,0.5509
9.7700,-0.8084,-0.1677,0.5509
9.7870,-0.8211,-0.1667,0.5274
9.7880,-0.8211,-0.1667,0.5274
9.7880,-0.8211,-0.1667,0.5274
9.8070,-0.7855,-0.1874,0.5369
9.8080,-0.7855,-0.1874,0.5369
9.8080,-0.7855,-0.1874,0.5369
9.8090,-0.7855,-0.1874,0.5369
9.8100,-0.7855,-0.1874,0.5369
9.8270,-0.7483,-0.1918,0.5609
9.8270,-0.7483,-0.1918,0.5609
9.8280,-0.7483,-0.1918,0.5609
9.8460,-0.7801,-0.1684,0.5726
9.8470,-0.7801,-0.1684,0.5726
9.8470,-0.7801,-0.1684,0.5726
9.8670,-0.8331,-0.1547,0.5992
9.8680,-0.8331,-0.1547,0.5992
9.8690,-0.8331,-0.1547,0.5992
9.8870,-0.8634,-0.1650,0.5980
9.8880,-0.8634,-0.1650,0.5980
9.8880,-0.8634,-0.1650,0.5980
9.8890,-0.8634,-0.1650,0.5980
9.8900,-0.8634,-0.1650,0.5980
9.9020,-0.8634,-0.1650,0.5980
9.9640,-0.8348,-0.1870,0.5680
9.9660,-0.8348,-0.1870,0.5680
9.9660,-0.8348,-0.1870,0.5680
9.9660,-0.7950,-0.1901,0.5311
9.9660,-0.7950,-0.1901,0.5311
9.9660,-0.7950,-0.1901,0.5311
9.9670,-0.7950,-0.1637,0.5162
9.9670,-0.7950,-0.1637,0.5162
9.9670,-0.7950,-0.1637,0.5162
9.9670,-0.8233,-0.1457,0.5245
9.9670,-0.8233,-0.1457,0.5245
9.9680,-0.8233,-0.1457,0.5245
9.9680,-0.8233,-0.1457,0.5245
9.9680,-0.8233,-0.1457,0.5245
9.9880,-0.7706,-0.1571,0.5223
9.9880,-0.7706,-0.1571,0.5223
9.9880,-0.7706,-0.1571,0.5223
10.0030,-0.7696,-0.1645,0.5196
10.0030,-0.7696,-0.1645,0.5196
10.0030,-0.7696,-0.1645,0.5196
10.0230,-0.8241,-0.1745,0.5775
10.0230,-0.8241,-0.1745,0.5775
10.0230,-0.8241,-0.1745,0.5775
10.0450,-0.8451,-0.1635,0.5919
10.0460,-0.8451,-0.1635,0.5919
10.0460,-0.8451,-0.1635,0.5919
10.0480,-0.8451,-0.1635,0.5919
10.0490,-0.8451,-0.1635,0.5919
10.0660,-0.8527,-0.1718,0.5922
10.0670,-0.8527,-0.1718,0.5922
10.0670,-0.8527,-0.1718,0.5922
10.0860,-0.8326,-0.2077,0.5775
10.0860,-0.8326,-0.2077,0.5775
10.0870,-0.8326,-0.2077,0.5775
10.1020,-0.8326,-0.2077,0.5775
10.1030,-0.7847,-0.2175,0.5702
10.1030,-0.7847,-0.2175,0.5702
10.1040,-0.7847,-0.2175,0.5702
10.1260,-0.8202,-0.2058,0.5628
10.1270,-0.8202,-0.2058,0.5628
10.1280,-0.8202,-0.2058,0.5628
10.1280,-0.8202,-0.2058,0.5628
10.1290,-0.8202,-0.2058,0.5628
10.1450,-0.8207,-0.1838,0.5814
10.1450,-0.8207,-0.1838,0.5814
10.1460,-0.8207,-0.1838,0.5814
10.1690,-0.8202,-0.1540,0.5709
10.1700,-0.8202,-0.1540,0.5709
10.1710,-0.8202,-0.1540,0.5709
10.1870,-0.8319,-0.1791,0.5455
10.1880,-0.8319,-0.1791,0.5455
10.1890,-0.8319,-0.1791,0.5455
10.2060,-0.8172,-0.1896,0.5443
10.2070,-0.8172,-0.1896,0.5443
10.2080,-0.8172,-0.1896,0.5443
10.2080,-0.8172,-0.1896,0.5443
10.2090,-0.8172,-0.1896,0.5443
10.2240,-0.8263,-0.1601,0.5553
10.2250,-0.8263,-0.1601,0.5553
10.2250,-0.8263,-0.1601,0.5553
10.2440,-0.8143,-0.1532,0.5396
10.2450,-0.8143,-0.1532,0.5396
10.2460,-0.8143,-0.1532,0.5396
10.2650,-0.8126,-0.1672,0.5320
10.2660,-0.8126,-0.1672,0.5320
10.2660,-0.8126,-0.1672,0.5320
10.2860,-0.8270,-0.1828,0.5509
10.2870,-0.8270,-0.1828,0.5509
10.2880,-0.8270,-0.1828,0.5509
10.2890,-0.8270,-0.1828,0.5509
10.2890,-0.8270,-0.1828,0.5509
10.2980,-0.8270,-0.1828,0.5509
10.3040,-0.8124,-0.1657,0.5499
10.3050,-0.8124,-0.1657,0.5499
10.3050,-0.8124,-0.1657,0.5499
10.3240,-0.8221,-0.1501,0.5350
10.3250,-0.8221,-0.1501,0.5350
10.3260,-0.8221,-0.1501,0.5350
10.3440,-0.8150,-0.1733,0.5357
10.3450,-0.8150,-0.1733,0.5357
10.3460,-0.8150,-0.1733,0.5357
10.3650,-0.7967,-0.1938,0.5411
10.3670,-0.7967,-0.1938,0.5411
10.3680,-0.7967,-0.1938,0.5411
10.3680,-0.7967,-0.1938,0.5411
10.3690,-0.7967,-0.1938,0.5411
10.3870,-0.7801,-0.1769,0.5262
10.3900,-0.7801,-0.1769,0.5262
10.3910,-0.7801,-0.1769,0.5262
10.4040,-0.7918,-0.1513,0.5452
10.4050,-0.7918,-0.1513,0.5452
10.4060,-0.7918,-0.1513,0.5452
10.4240,-0.8471,-0.1630,0.5765
10.4240,-0.8471,-0.1630,0.5765
10.4250,-0.8471,-0.1630,0.5765
10.4430,-0.8231,-0.1696,0.5562
10.4480,-0.8231,-0.1696,0.5562
10.4480,-0.8231,-0.1696,0.5562
10.4490,-0.8231,-0.1696,0.5562
10.4500,-0.8231,-0.1696,0.5562
10.5190,-0.8080,-0.1645,0.5428
10.5200,-0.8080,-0.1645,0.5428
10.5200,-0.8080,-0.1645,0.5428
10.5200,-0.8287,-0.1799,0.5509
10.5200,-0.8287,-0.1799,0.5509
10.5200,-0.8287,-0.1799,0.5509
10.5210,-0.8287,-0.1799,0.5509
10.5210,-0.8014,-0.1686,0.5479
10.5210,-0.8014,-0.1686,0.5479
10.5210,-0.8014,-0.1686,0.5479
10.5210,-0.7882,-0.1603,0.5450
10.5220,-0.7882,-0.1603,0.5450
10.5220,-0.7882,-0.1603,0.5450
10.5240,-0.7882,-0.1603,0.5450
10.5240,-0.7882,-0.1603,0.5450
10.5420,-0.8255,-0.1579,0.5501
10.5420,-0.8255,-0.1579,0.5501
10.5430,-0.8255,-0.1579,0.5501
10.5450,-0.8255,-0.1579,0.5501
10.5620,-0.8644,-0.1530,0.5704
10.5620,-0.8644,-0.1530,0.5704
10.5630,-0.8644,-0.1530,0.5704
10.5800,-0.8500,-0.1657,0.5501
10.5800,-0.8500,-0.1657,0.5501
10.5810,-0.8500,-0.1657,0.5501
10.6020,-0.7989,-0.1911,0.5267
10.6030,-0.7989,-0.1911,0.5267
10.6030,-0.7989,-0.1911,0.5267
10.6040,-0.7989,-0.1911,0.5267
10.6040,-0.7989,-0.1911,0.5267
10.6250,-0.7784,-0.1772,0.5232
10.6260,-0.7784,-0.1772,0.5232
10.6260,-0.7784,-0.1772,0.5232
10.6430,-0.8043,-0.1611,0.5526
10.6460,-0.8043,-0.1611,0.5526
10.6460,-0.8043,-0.1611,0.5526
10.6620,-0.7862,-0.1764,0.5469
10.6630,-0.7862,-0.1764,0.5469
10.6640,-0.7862,-0.1764,0.5469
10.6840,-0.7855,-0.2136,0.5447
10.6850,-0.7855,-0.2136,0.5447
10.6870,-0.7855,-0.2136,0.5447
10.6880,-0.7855,-0.2136,0.5447
10.6880,-0.7855,-0.2136,0.5447
10.6920,-0.7855,-0.2136,0.5447
10.7040,-0.8309,-0.1799,0.5499
10.7040,-0.8309,-0.1799,0.5499
10.7050,-0.8309,-0.1799,0.5499
10.7240,-0.8473,-0.1650,0.5853
10.7240,-0.8473,-0.1650,0.5853
10.7250,-0.8473,-0.1650,0.5853
10.7430,-0.8583,-0.1760,0.5689
10.7460,-0.8583,-0.1760,0.5689
10.7470,-0.8583,-0.1760,0.5689
10.7490,-0.8583,-0.1760,0.5689
10.7660,-0.7896,-0.1843,0.5648
10.7670,-0.7896,-0.1843,0.5648
10.7680,-0.7896,-0.1843,0.5648
10.7680,-0.7896,-0.1843,0.5648
10.7690,-0.7896,-0.1843,0.5648
10.7880,-0.7950,-0.1894,0.5692
10.7880,-0.7950,-0.1894,0.5692
10.7890,-0.7950,-0.1894,0.5692
10.8030,-0.8229,-0.1830,0.5721
10.8050,-0.8229,-0.1830,0.5721
10.8060,-0.8229,-0.1830,0.5721
10.8230,-0.8077,-0.1845,0.5623
10.8240,-0.8077,-0.1845,0.5623
10.8250,-0.8077,-0.1845,0.5623
10.8480,-0.8026,-0.1989,0.5829
10.8490,-0.8026,-0.1989,0.5829
10.8500,-0.8026,-0.1989,0.5829
10.8500,-0.8026,-0.1989,0.5829
10.8510,-0.8026,-0.1989,0.5829
10.8650,-0.7962,-0.1755,0.5623
10.8650,-0.7962,-0.1755,0.5623
10.8660,-0.7962,-0.1755,0.5623
10.8860,-0.8018,-0.1686,0.5748
10.8860,-0.8018,-0.1686,0.5748
10.8870,-0.8018,-0.1686,0.5748
10.8930,-0.8018,-0.1686,0.5748
10.9010,-0.8084,-0.1989,0.5873
10.9020,-0.8084,-0.1989,0.5873
10.9030,-0.8084,-0.1989,0.5873
10.9220,-0.8356,-0.1943,0.5665
10.9220,-0.8356,-0.1943,0.5665
10.9220,-0.8356,-0.1943,0.5665
10.9230,-0.8356,-0.1943,0.5665
10.9230,-0.8356,-0.1943,0.5665
10.9400,-0.7894,-0.2270,0.5553
10.9410,-0.7894,-0.2270,0.5553
10.9420,-0.7894,-0.2270,0.5553
10.9450,-0.7894,-0.2270,0.5553
10.9620,-0.6657,-0.2185,0.5230
10.9630,-0.6657,-0.2185,0.5230
10.9630,-0.6657,-0.2185,0.5230
10.9830,-0.9292,-0.1110,0.6039
10.9830,-0.9292,-0.1110,0.6039
10.9840,-0.9292,-0.1110,0.6039
11.0060,-0.9099,-0.1596,0.6437
11.0760,-0.9099,-0.1596,0.6437
11.0760,-0.9099,-0.1596,0.6437
11.0760,-0.9099,-0.1596,0.6437
11.0760,-0.9099,-0.1596,0.6437
11.0770,-0.8060,-0.2065,0.6442
11.0770,-0.8060,-0.2065,0.6442
11.0780,-0.8060,-0.2065,0.6442
11.0780,-0.8018,-0.1953,0.6093
11.0780,-0.8018,-0.1953,0.6093
11.0780,-0.8018,-0.1953,0.6093
11.0790,-0.7041,-0.2146,0.5733
11.0790,-0.7041,-0.2146,0.5733
11.0790,-0.7041,-0.2146,0.5733
11.0790,-0.7434,-0.2004,0.5601
11.0800,-0.7434,-0.2004,0.5601
11.0800,-0.7434,-0.2004,0.5601
11.0820,-0.7434,-0.2004,0.5601
11.0820,-0.7434,-0.2004,0.5601
11.0900,-0.7434,-0.2004,0.5601
11.0980,-0.7967,-0.1652,0.5680
11.0980,-0.7967,-0.1652,0.5680
11.0980,-0.7967,-0.1652,0.5680
11.1180,-0.7557,-0.1760,0.5804
11.1180,-0.7557,-0.1760,0.5804
11.1190,-0.7557,-0.1760,0.5804
11.1380,-0.7327,-0.1791,0.5978
11.1380,-0.7327,-0.1791,0.5978
11.1380,-0.7327,-0.1791,0.5978
11.1420,-0.7327,-0.1791,0.5978
11.1620,-0.7359,-0.1718,0.5897
11.1620,-0.7359,-0.1718,0.5897
11.1620,-0.7359,-0.1718,0.5897
11.1630,-0.7359,-0.1718,0.5897
11.1630,-0.7359,-0.1718,0.5897
11.1810,-0.7398,-0.1808,0.5882
11.1820,-0.7398,-0.1808,0.5882
11.1820,-0.7398,-0.1808,0.5882
11.2020,-0.7882,-0.1762,0.5907
11.2020,-0.7882,-0.1762,0.5907
11.2020,-0.7882,-0.1762,0.5907
11.2230,-0.7698,-0.1735,0.5777
11.2230,-0.7698,-0.1735,0.5777
11.2230,-0.7698,-0.1735,0.5777
11.2400,-0.7552,-0.1806,0.6022
11.2400,-0.7552,-0.1806,0.6022
11.2400,-0.7552,-0.1806,0.6022
11.2440,-0.7552,-0.1806,0.6022
11.2450,-0.7552,-0.1806,0.6022
11.2610,-0.7979,-0.1752,0.6305
11.2610,-0.7979,-0.1752,0.6305
11.2610,-0.7979,-0.1752,0.6305
11.2830,-0.8018,-0.1679,0.6462
11.2840,-0.8018,-0.1679,0.6462
11.2840,-0.8018,-0.1679,0.6462
11.2900,-0.8018,-0.1679,0.6462
11.3000,-0.7789,-0.1760,0.6313
11.3000,-0.7789,-0.1760,0.6313
11.3000,-0.7789,-0.1760,0.6313
11.3210,-0.7351,-0.1818,0.6024
11.3210,-0.7351,-0.1818,0.6024
11.3220,-0.7351,-0.1818,0.6024
11.3220,-0.7351,-0.1818,0.6024
11.3220,-0.7351,-0.1818,0.6024
11.3430,-0.7732,-0.1796,0.5746
11.3440,-0.7732,-0.1796,0.5746
11.3440,-0.7732,-0.1796,0.5746
11.3620,-0.8055,-0.1801,0.5736
11.3620,-0.8055,-0.1801,0.5736
11.3630,-0.8055,-0.1801,0.5736
11.3800,-0.7605,-0.1799,0.5772
11.3800,-0.7605,-0.1799,0.5772
11.3810,-0.7605,-0.1799,0.5772
11.4040,-0.7701,-0.1686,0.5758
11.4040,-0.7701,-0.1686,0.5758
11.4050,-0.7701,-0.1686,0.5758
11.4050,-0.7701,-0.1686,0.5758
11.4050,-0.7701,-0.1686,0.5758
11.4210,-0.7745,-0.1730,0.5892
11.4210,-0.7745,-0.1730,0.5892
11.4210,-0.7745,-0.1730,0.5892
11.4390,-0.7701,-0.1762,0.5917
11.4390,-0.7701,-0.1762,0.5917
11.4390,-0.7701,-0.1762,0.5917
11.4640,-0.7828,-0.1723,0.6019
11.4640,-0.7828,-0.1723,0.6019
11.4640,-0.7828,-0.1723,0.6019
11.4790,-0.7803,-0.1603,0.5719
11.4790,-0.7803,-0.1603,0.5719
11.4800,-0.7803,-0.1603,0.5719
11.4830,-0.7803,-0.1603,0.5719
11.4840,-0.7803,-0.1603,0.5719
11.4880,-0.7803,-0.1603,0.5719
11.4980,-0.7877,-0.1628,0.5812
11.4980,-0.7877,-0.1628,0.5812
11.4980,-0.7877,-0.1628,0.5812
11.5190,-0.8009,-0.1689,0.5956
11.5200,-0.8009,-0.1689,0.5956
11.5200,-0.8009,-0.1689,0.5956
11.5420,-0.7999,-0.1694,0.5780
11.5420,-0.7999,-0.1694,0.5780
11.5790,-0.7999,-0.1694,0.5780
11.5790,-0.7825,-0.1845,0.5526
11.5790,-0.7825,-0.1845,0.5526
11.5790,-0.7825,-0.1845,0.5526
11.5800,-0.7825,-0.1845,0.5526
11.5800,-0.7825,-0.1845,0.5526
11.5800,-0.7943,-0.1813,0.5599
11.5800,-0.7943,-0.1813,0.5599
11.5800,-0.7943,-0.1813,0.5599
11.5950,-0.8114,-0.1899,0.5565
11.5950,-0.8114,-0.1899,0.5565
11.5950,-0.8114,-0.1899,0.5565
11.6200,-0.8573,-0.1755,0.5719
11.6210,-0.8573,-0.1755,0.5719
11.6210,-0.8573,-0.1755,0.5719
11.6340,-0.8705,-0.1740,0.5797
11.6340,-0.8705,-0.1740,0.5797
11.6340,-0.8705,-0.1740,0.5797
11.6380,-0.8705,-0.1740,0.5797
11.6380,-0.8705,-0.1740,0.5797
11.6550,-0.8004,-0.1808,0.5543
11.6550,-0.8004,-0.1808,0.5543
11.6560,-0.8004,-0.1808,0.5543
11.6740,-0.8182,-0.1742,0.5743
11.6740,-0.8182,-0.1742,0.5743
11.6740,-0.8182,-0.1742,0.5743
11.6850,-0.8182,-0.1742,0.5743
11.6940,-0.7955,-0.1547,0.5658
11.6950,-0.7955,-0.1547,0.5658
11.6950,-0.7955,-0.1547,0.5658
11.7150,-0.7725,-0.1633,0.5885
11.7150,-0.7725,-0.1633,0.5885
11.7150,-0.7725,-0.1633,0.5885
11.7190,-0.7725,-0.1633,0.5885
11.7200,-0.7725,-0.1633,0.5885
11.7340,-0.8126,-0.1808,0.6271
11.7350,-0.8126,-0.1808,0.6271
11.7350,-0.8126,-0.1808,0.6271
11.7390,-0.8126,-0.1808,0.6271
11.7530,-0.7720,-0.1870,0.6330
11.7530,-0.7720,-0.1870,0.6330
11.7530,-0.7720,-0.1870,0.6330
11.7740,-0.7483,-0.1889,0.6523
11.7740,-0.7483,-0.1889,0.6523
11.7740,-0.7483,-0.1889,0.6523
11.7950,-0.8043,-0.1948,0.6303
11.7950,-0.8043,-0.1948,0.6303
11.7950,-0.8043,-0.1948,0.6303
11.7980,-0.8043,-0.1948,0.6303
11.7980,-0.8043,-0.1948,0.6303
11.8140,-0.8033,-0.2016,0.5929
11.8140,-0.8033,-0.2016,0.5929
11.8140,-0.8033,-0.2016,0.5929
