
time,AccelerometerX,AccelerometerY,AccelerometerZ
0.0100,-0.9802,-0.0313,0.3092
0.0110,-0.9802,-0.0313,0.3092
0.0140,-0.9470,-0.0694,0.2840
0.0140,-0.9470,-0.0694,0.2840
0.0140,-0.9470,-0.0694,0.2840
0.0420,-0.9355,-0.0367,0.2723
0.0420,-0.9355,-0.0367,0.2723
0.0420,-0.9355,-0.0367,0.2723
0.0510,-0.9441,-0.0408,0.2999
0.0510,-0.9441,-0.0408,0.2999
0.0510,-0.9441,-0.0408,0.2999
0.0710,-0.9908,-0.0208,0.3138
0.0710,-0.9908,-0.0208,0.3138
0.0710,-0.9908,-0.0208,0.3138
0.0740,-0.9908,-0.0208,0.3138
0.0740,-0.9908,-0.0208,0.3138
0.0920,-0.9627,-0.0176,0.3265
0.0920,-0.9627,-0.0176,0.3265
0.0920,-0.9627,-0.0176,0.3265
0.1120,-0.9944,0.0034,0.3531
0.1120,-0.9944,0.0034,0.3531
0.1120,-0.9944,0.0034,0.3531
0.1310,-1.0047,-0.0371,0.3214
0.1310,-1.0047,-0.0371,0.3214
0.1310,-1.0047,-0.0371,0.3214
0.1330,-1.0047,-0.0371,0.3214
0.1520,-0.9575,-0.0428,0.3052
0.1520,-0.9575,-0.0428,0.3052
0.1520,-0.9575,-0.0428,0.3052
0.1550,-0.9575,-0.0428,0.3052
0.1550,-0.9575,-0.0428,0.3052
0.1710,-0.9507,-0.0218,0.2991
0.1710,-0.9507,-0.0218,0.2991
0.1710,-0.9507,-0.0218,0.2991
0.1910,-0.9671,-0.0188,0.2945
0.1910,-0.9671,-0.0188,0.2945
0.1910,-0.9671,-0.0188,0.2945
0.2120,-0.9673,-0.0276,0.2788
0.2120,-0.9673,-0.0276,0.2788
0.2120,-0.9673,-0.0276,0.2788
0.2320,-0.9460,-0.0352,0.2752
0.2320,-0.9460,-0.0352,0.2752
0.2320,-0.9460,-0.0352,0.2752
0.2340,-0.9460,-0.0352,0.2752
0.2350,-0.9460,-0.0352,0.2752
0.2520,-0.9475,-0.0269,0.2925
0.2520,-0.9475,-0.0269,0.2925
0.2680,-0.9475,-0.0269,0.2925
0.2710,-0.9631,-0.0130,0.3170
0.2710,-0.9631,-0.0130,0.3170
0.2710,-0.9631,-0.0130,0.3170
0.2910,-0.9536,-0.0200,0.3133
0.2910,-0.9536,-0.0200,0.3133
0.2910,-0.9536,-0.0200,0.3133
0.3110,-0.9524,-0.0411,0.3187
0.3110,-0.9524,-0.0411,0.3187
0.3110,-0.9524,-0.0411,0.3187
0.3140,-0.9524,-0.0411,0.3187
0.3140,-0.9524,-0.0411,0.3187
0.3310,-0.9612,-0.0420,0.2982
0.3320,-0.9612,-0.0420,0.2982
0.3320,-0.9612,-0.0420,0.2982
0.3320,-0.9612,-0.0420,0.2982
0.3510,-0.9629,-0.0352,0.2906
0.3510,-0.9629,-0.0352,0.2906
0.3510,-0.9629,-0.0352,0.2906
0.3690,-0.9805,-0.0374,0.3092
0.3700,-0.9805,-0.0374,0.3092
0.3700,-0.9805,-0.0374,0.3092
0.3890,-0.9732,-0.0435,0.3248
0.3900,-0.9732,-0.0435,0.3248
0.3900,-0.9732,-0.0435,0.3248
0.3940,-0.9732,-0.0435,0.3248
0.3940,-0.9732,-0.0435,0.3248
0.4110,-0.9306,-0.0342,0.2967
0.4110,-0.9306,-0.0342,0.2967
0.4110,-0.9306,-0.0342,0.2967
0.4290,-0.9221,-0.0222,0.2835
0.4290,-0.9221,-0.0222,0.2835
0.4290,-0.9221,-0.0222,0.2835
0.4490,-0.9558,-0.0305,0.3013
0.4500,-0.9558,-0.0305,0.3013
0.4500,-0.9558,-0.0305,0.3013
0.4690,-0.9722,-0.0332,0.3197
0.4690,-0.9722,-0.0332,0.3197
0.4700,-0.9722,-0.0332,0.3197
0.4710,-0.9722,-0.0332,0.3197
0.4710,-0.9722,-0.0332,0.3197
0.4900,-0.9866,-0.0176,0.3043
0.4900,-0.9866,-0.0176,0.3043
0.4900,-0.9866,-0.0176,0.3043
0.5090,-0.9644,-0.0225,0.2879
0.5090,-0.9644,-0.0225,0.2879
0.5090,-0.9644,-0.0225,0.2879
0.5290,-0.9397,-0.0335,0.2967
0.5290,-0.9397,-0.0335,0.2967
0.5290,-0.9397,-0.0335,0.2967
0.5310,-0.9397,-0.0335,0.2967
0.5490,-0.9776,-0.0152,0.2962
0.5490,-0.9776,-0.0152,0.2962
0.5490,-0.9776,-0.0152,0.2962
0.5510,-0.9776,-0.0152,0.2962
0.5520,-0.9776,-0.0152,0.2962
0.5690,-0.9868,-0.0083,0.2989
0.5690,-0.9868,-0.0083,0.2989
0.5690,-0.9868,-0.0083,0.2989
0.5880,-0.9521,-0.0337,0.2957
0.5880,-0.9521,-0.0337,0.2957
0.5880,-0.9521,-0.0337,0.2957
0.6080,-0.9341,-0.0540,0.3055
0.6080,-0.9341,-0.0540,0.3055
0.6090,-0.9341,-0.0540,0.3055
0.6280,-0.9514,-0.0423,0.3048
0.6290,-0.9514,-0.0423,0.3048
0.6290,-0.9514,-0.0423,0.3048
0.6310,-0.9514,-0.0423,0.3048
0.6310,-0.9514,-0.0423,0.3048
0.6490,-0.9622,-0.0264,0.3082
0.6490,-0.9622,-0.0264,0.3082
0.6490,-0.9622,-0.0264,0.3082
0.6690,-0.9656,-0.0352,0.3133
0.6690,-0.9656,-0.0352,0.3133
0.6690,-0.9656,-0.0352,0.3133
0.6880,-0.9783,-0.0506,0.3001
0.6880,-0.9783,-0.0506,0.3001
0.6890,-0.9783,-0.0506,0.3001
0.7080,-0.9524,-0.0555,0.3043
0.7080,-0.9524,-0.0555,0.3043
0.7080,-0.9524,-0.0555,0.3043
0.7100,-0.9524,-0.0555,0.3043
0.7110,-0.9524,-0.0555,0.3043
0.7280,-0.9658,-0.0335,0.3043
0.7280,-0.9658,-0.0335,0.3043
0.7280,-0.9658,-0.0335,0.3043
0.7290,-0.9658,-0.0335,0.3043
0.7480,-0.9822,-0.0220,0.2996
0.7480,-0.9822,-0.0220,0.2996
0.7480,-0.9822,-0.0220,0.2996
0.7680,-0.9595,-0.0386,0.3096
0.7680,-0.9595,-0.0386,0.3096
0.7690,-0.9595,-0.0386,0.3096
0.7880,-0.9470,-0.0447,0.3062
0.7880,-0.9470,-0.0447,0.3062
0.7890,-0.9470,-0.0447,0.3062
0.7910,-0.9470,-0.0447,0.3062
0.7910,-0.9470,-0.0447,0.3062
0.8070,-0.9468,-0.0352,0.2908
0.8560,-0.9468,-0.0352,0.2908
0.8570,-0.9468,-0.0352,0.2908
0.8570,-0.9663,-0.0240,0.2994
0.8570,-0.9663,-0.0240,0.2994
0.8570,-0.9663,-0.0240,0.2994
0.8570,-0.9666,-0.0315,0.3116
0.8580,-0.9666,-0.0315,0.3116
0.8580,-0.9666,-0.0315,0.3116
0.8680,-0.9570,-0.0367,0.2964
0.8680,-0.9570,-0.0367,0.2964
0.8680,-0.9570,-0.0367,0.2964
0.8700,-0.9570,-0.0367,0.2964
0.8700,-0.9570,-0.0367,0.2964
0.8880,-0.9758,-0.0266,0.2776
0.8890,-0.9758,-0.0266,0.2776
0.8890,-0.9758,-0.0266,0.2776
0.9080,-0.9690,-0.0364,0.3033
0.9080,-0.9690,-0.0364,0.3033
0.9080,-0.9690,-0.0364,0.3033
0.9310,-0.9553,-0.0462,0.3079
0.9310,-0.9553,-0.0462,0.3079
0.9310,-0.9553,-0.0462,0.3079
0.9320,-0.9553,-0.0462,0.3079
0.9500,-0.9541,-0.0325,0.2942
0.9500,-0.9541,-0.0325,0.2942
0.9500,-0.9541,-0.0325,0.2942
0.9510,-0.9541,-0.0325,0.2942
0.9510,-0.9541,-0.0325,0.2942
0.9690,-0.9578,-0.0283,0.2935
0.9690,-0.9578,-0.0283,0.2935
0.9690,-0.9578,-0.0283,0.2935
0.9910,-0.9573,-0.0349,0.2945
0.9910,-0.9573,-0.0349,0.2945
0.9910,-0.9573,-0.0349,0.2945
1.0070,-0.9429,-0.0442,0.2979
1.0070,-0.9429,-0.0442,0.2979
1.0070,-0.9429,-0.0442,0.2979
1.0270,-0.9653,-0.0345,0.3011
1.0280,-0.9653,-0.0345,0.3011
1.0280,-0.9653,-0.0345,0.3011
1.0280,-0.9653,-0.0345,0.3011
1.0280,-0.9653,-0.0345,0.3011
1.0490,-0.9895,-0.0227,0.3011
1.0490,-0.9895,-0.0227,0.3011
1.0490,-0.9895,-0.0227,0.3011
1.0690,-0.9868,-0.0310,0.3026
1.0690,-0.9868,-0.0310,0.3026
1.0690,-0.9868,-0.0310,0.3026
1.0890,-0.9573,-0.0396,0.2862
1.0890,-0.9573,-0.0396,0.2862
1.0890,-0.9573,-0.0396,0.2862
1.1080,-0.9607,-0.0362,0.2622
1.1080,-0.9607,-0.0362,0.2622
1.1090,-0.9607,-0.0362,0.2622
1.1090,-0.9607,-0.0362,0.2622
1.1090,-0.9607,-0.0362,0.2622
1.1270,-0.9661,-0.0269,0.2534
1.1280,-0.9661,-0.0269,0.2534
1.1290,-0.9661,-0.0269,0.2534
1.1290,-0.9661,-0.0269,0.2534
1.1490,-0.9639,-0.0235,0.2798
1.1490,-0.9639,-0.0235,0.2798
1.1490,-0.9639,-0.0235,0.2798
1.1680,-0.9436,-0.0215,0.2872
1.1680,-0.9436,-0.0215,0.2872
1.1680,-0.9436,-0.0215,0.2872
1.1890,-0.9551,-0.0117,0.2850
1.1900,-0.9551,-0.0117,0.2850
1.1910,-0.9551,-0.0117,0.2850
1.1910,-0.9551,-0.0117,0.2850
1.1910,-0.9551,-0.0117,0.2850
1.2100,-0.9700,-0.0120,0.2705
1.2100,-0.9700,-0.0120,0.2705
1.2100,-0.9700,-0.0120,0.2705
1.2290,-0.9646,-0.0337,0.2989
1.2290,-0.9646,-0.0337,0.2989
1.2290,-0.9646,-0.0337,0.2989
1.2470,-0.9653,-0.0364,0.3202
1.2470,-0.9653,-0.0364,0.3202
1.2470,-0.9653,-0.0364,0.3202
1.2680,-0.9680,-0.0203,0.3140
1.2680,-0.9680,-0.0203,0.3140
1.2690,-0.9680,-0.0203,0.3140
1.2690,-0.9680,-0.0203,0.3140
1.2690,-0.9680,-0.0203,0.3140
1.2890,-0.9653,-0.0261,0.2999
1.2900,-0.9653,-0.0261,0.2999
1.2900,-0.9653,-0.0261,0.2999
1.3080,-0.9563,-0.0503,0.2977
1.3090,-0.9563,-0.0503,0.2977
1.3090,-0.9563,-0.0503,0.2977
1.3290,-0.9656,-0.0523,0.2784
1.3290,-0.9656,-0.0523,0.2784
1.3300,-0.9656,-0.0523,0.2784
1.3310,-0.9656,-0.0523,0.2784
1.3500,-0.9822,-0.0445,0.2854
1.3510,-0.9822,-0.0445,0.2854
1.3510,-0.9822,-0.0445,0.2854
1.3520,-0.9822,-0.0445,0.2854
1.3520,-0.9822,-0.0445,0.2854
1.4050,-0.9710,-0.0357,0.3109
1.4050,-0.9710,-0.0357,0.3109
1.4050,-0.9710,-0.0357,0.3109
1.4050,-0.9649,-0.0193,0.2950
1.4060,-0.9649,-0.0193,0.2950
1.4060,-0.9649,-0.0193,0.2950
1.4060,-0.9710,-0.0215,0.2867
1.4060,-0.9710,-0.0215,0.2867
1.4060,-0.9710,-0.0215,0.2867
1.4250,-0.9707,-0.0393,0.3004
1.4250,-0.9707,-0.0393,0.3004
1.4250,-0.9707,-0.0393,0.3004
1.4270,-0.9707,-0.0393,0.3004
1.4270,-0.9707,-0.0393,0.3004
1.4450,-0.9597,-0.0521,0.3072
1.4450,-0.9597,-0.0521,0.3072
1.4450,-0.9597,-0.0521,0.3072
1.4710,-0.9685,-0.0384,0.2847
1.4710,-0.9685,-0.0384,0.2847
1.4710,-0.9685,-0.0384,0.2847
1.4860,-0.9761,-0.0225,0.2906
1.4860,-0.9761,-0.0225,0.2906
1.4860,-0.9761,-0.0225,0.2906
1.5050,-0.9700,-0.0371,0.3145
1.5050,-0.9700,-0.0371,0.3145
1.5050,-0.9700,-0.0371,0.3145
1.5080,-0.9700,-0.0371,0.3145
1.5080,-0.9700,-0.0371,0.3145
1.5310,-0.9612,-0.0379,0.2999
1.5310,-0.9612,-0.0379,0.2999
1.5310,-0.9612,-0.0379,0.2999
1.5320,-0.9612,-0.0379,0.2999
1.5500,-0.9619,-0.0232,0.2942
1.5510,-0.9619,-0.0232,0.2942
1.5510,-0.9619,-0.0232,0.2942
1.5660,-0.9624,-0.0303,0.3067
1.5660,-0.9624,-0.0303,0.3067
1.5660,-0.9624,-0.0303,0.3067
1.5860,-0.9539,-0.0462,0.2977
1.5860,-0.9539,-0.0462,0.2977
1.5860,-0.9539,-0.0462,0.2977
1.5880,-0.9539,-0.0462,0.2977
1.5880,-0.9539,-0.0462,0.2977
1.6090,-0.9499,-0.0347,0.2938
1.6090,-0.9499,-0.0347,0.2938
1.6090,-0.9499,-0.0347,0.2938
1.6300,-0.9548,-0.0183,0.2986
1.6300,-0.9548,-0.0183,0.2986
1.6300,-0.9548,-0.0183,0.2986
1.6480,-0.9612,-0.0174,0.2974
1.6490,-0.9612,-0.0174,0.2974
1.6490,-0.9612,-0.0174,0.2974
1.6700,-0.9499,-0.0188,0.2979
1.6710,-0.9499,-0.0188,0.2979
1.6740,-0.9499,-0.0188,0.2979
1.6750,-0.9499,-0.0188,0.2979
1.6750,-0.9499,-0.0188,0.2979
1.6860,-0.9495,-0.0208,0.2938
1.6870,-0.9495,-0.0208,0.2938
1.6870,-0.9495,-0.0208,0.2938
1.7070,-0.9556,-0.0286,0.2847
1.7080,-0.9556,-0.0286,0.2847
1.7080,-0.9556,-0.0286,0.2847
1.7250,-0.9741,-0.0406,0.2823
1.7270,-0.9741,-0.0406,0.2823
1.7290,-0.9741,-0.0406,0.2823
1.7290,-0.9741,-0.0406,0.2823
1.7470,-0.9749,-0.0440,0.2876
1.7470,-0.9749,-0.0440,0.2876
1.7480,-0.9749,-0.0440,0.2876
1.7500,-0.9749,-0.0440,0.2876
1.7510,-0.9749,-0.0440,0.2876
1.7660,-0.9565,-0.0352,0.3028
1.7670,-0.9565,-0.0352,0.3028
1.7670,-0.9565,-0.0352,0.3028
1.7860,-0.9514,-0.0274,0.3052
1.7870,-0.9514,-0.0274,0.3052
1.7870,-0.9514,-0.0274,0.3052
1.8070,-0.9502,-0.0232,0.2972
1.8080,-0.9502,-0.0232,0.2972
1.8090,-0.9502,-0.0232,0.2972
1.8270,-0.9499,-0.0310,0.2974
1.8290,-0.9499,-0.0310,0.2974
1.8300,-0.9499,-0.0310,0.2974
1.8310,-0.9499,-0.0310,0.2974
1.8320,-0.9499,-0.0310,0.2974
1.8430,-0.9644,-0.0354,0.3052
1.8440,-0.9644,-0.0354,0.3052
1.8440,-0.9644,-0.0354,0.3052
1.8650,-0.9734,-0.0249,0.2930
1.8650,-0.9734,-0.0249,0.2930
1.8670,-0.9734,-0.0249,0.2930
1.8820,-0.9617,-0.0193,0.2644
1.8820,-0.9617,-0.0193,0.2644
1.8820,-0.9617,-0.0193,0.2644
1.9010,-0.9609,-0.0227,0.2622
1.9010,-0.9609,-0.0227,0.2622
1.9020,-0.9609,-0.0227,0.2622
1.9040,-0.9609,-0.0227,0.2622
1.9040,-0.9609,-0.0227,0.2622
1.9610,-0.9636,-0.0296,0.2840
1.9610,-0.9636,-0.0296,0.2840
1.9610,-0.9636,-0.0296,0.2840
1.9610,-0.9636,-0.0296,0.2840
1.9620,-0.9641,-0.0254,0.3001
1.9620,-0.9641,-0.0254,0.3001
1.9620,-0.9641,-0.0254,0.3001
1.9620,-0.9551,-0.0154,0.2757
1.9620,-0.9551,-0.0154,0.2757
1.9620,-0.9551,-0.0154,0.2757
1.9800,-0.9617,-0.0235,0.2818
1.9800,-0.9617,-0.0235,0.2818
1.9810,-0.9617,-0.0235,0.2818
1.9840,-0.9617,-0.0235,0.2818
1.9840,-0.9617,-0.0235,0.2818
2.0010,-0.9700,-0.0384,0.2984
2.0010,-0.9700,-0.0384,0.2984
2.0010,-0.9700,-0.0384,0.2984
2.0210,-0.9688,-0.0389,0.2940
2.0210,-0.9688,-0.0389,0.2940
2.0210,-0.9688,-0.0389,0.2940
2.0400,-0.9661,-0.0274,0.2923
2.0400,-0.9661,-0.0274,0.2923
2.0400,-0.9661,-0.0274,0.2923
2.0610,-0.9646,-0.0279,0.2957
2.0610,-0.9646,-0.0279,0.2957
2.0610,-0.9646,-0.0279,0.2957
2.0630,-0.9646,-0.0279,0.2957
2.0630,-0.9646,-0.0279,0.2957
2.0800,-0.9539,-0.0332,0.2784
2.0800,-0.9539,-0.0332,0.2784
2.0800,-0.9539,-0.0332,0.2784
2.1010,-0.9526,-0.0313,0.2764
2.1010,-0.9526,-0.0313,0.2764
2.1020,-0.9526,-0.0313,0.2764
2.1200,-0.9671,-0.0281,0.2854
2.1200,-0.9671,-0.0281,0.2854
2.1210,-0.9671,-0.0281,0.2854
2.1210,-0.9671,-0.0281,0.2854
2.1400,-0.9878,-0.0293,0.2813
2.1400,-0.9878,-0.0293,0.2813
2.1400,-0.9878,-0.0293,0.2813
2.1430,-0.9878,-0.0293,0.2813
2.1430,-0.9878,-0.0293,0.2813
2.1600,-0.9849,-0.0335,0.2771
2.1610,-0.9849,-0.0335,0.2771
2.1610,-0.9849,-0.0335,0.2771
2.1820,-0.9634,-0.0391,0.2925
2.1830,-0.9634,-0.0391,0.2925
2.1830,-0.9634,-0.0391,0.2925
2.2010,-0.9651,-0.0384,0.2962
2.2020,-0.9651,-0.0384,0.2962
2.2020,-0.9651,-0.0384,0.2962
2.2220,-0.9754,-0.0330,0.2994
2.2230,-0.9754,-0.0330,0.2994
2.2230,-0.9754,-0.0330,0.2994
2.2240,-0.9754,-0.0330,0.2994
2.2250,-0.9754,-0.0330,0.2994
2.2420,-0.9744,-0.0279,0.2972
2.2430,-0.9744,-0.0279,0.2972
2.2440,-0.9744,-0.0279,0.2972
2.2620,-0.9692,-0.0384,0.2867
2.2630,-0.9692,-0.0384,0.2867
2.2630,-0.9692,-0.0384,0.2867
2.2810,-0.9758,-0.0389,0.2806
2.2820,-0.9758,-0.0389,0.2806
2.2820,-0.9758,-0.0389,0.2806
2.3010,-0.9741,-0.0325,0.2815
2.3020,-0.9741,-0.0325,0.2815
2.3020,-0.9741,-0.0325,0.2815
2.3050,-0.9741,-0.0325,0.2815
2.3050,-0.9741,-0.0325,0.2815
2.3220,-0.9556,-0.0340,0.2928
2.3230,-0.9556,-0.0340,0.2928
2.3230,-0.9556,-0.0340,0.2928
2.3230,-0.9556,-0.0340,0.2928
2.3430,-0.9499,-0.0335,0.2810
2.3430,-0.9499,-0.0335,0.2810
2.3440,-0.9499,-0.0335,0.2810
2.3630,-0.9477,-0.0301,0.2810
2.3640,-0.9477,-0.0301,0.2810
2.3640,-0.9477,-0.0301,0.2810
2.3840,-0.9407,-0.0384,0.3045
2.3850,-0.9407,-0.0384,0.3045
2.3890,-0.9407,-0.0384,0.3045
2.3900,-0.9407,-0.0384,0.3045
2.3910,-0.9407,-0.0384,0.3045
2.4020,-0.9385,-0.0352,0.2901
2.4030,-0.9385,-0.0352,0.2901
2.4040,-0.9385,-0.0352,0.2901
2.4200,-0.9636,-0.0337,0.2862
2.4210,-0.9636,-0.0337,0.2862
2.4220,-0.9636,-0.0337,0.2862
2.4420,-0.9776,-0.0430,0.3211
2.4420,-0.9776,-0.0430,0.3211
2.4430,-0.9776,-0.0430,0.3211
2.4620,-0.9671,-0.0342,0.3055
2.4620,-0.9671,-0.0342,0.3055
2.4630,-0.9671,-0.0342,0.3055
2.4640,-0.9671,-0.0342,0.3055
2.5530,-0.9671,-0.0342,0.3055
2.5530,-0.9534,-0.0293,0.2671
2.5530,-0.9534,-0.0293,0.2671
2.5530,-0.9534,-0.0293,0.2671
2.5530,-0.9583,-0.0401,0.2832
2.5530,-0.9583,-0.0401,0.2832
2.5530,-0.9583,-0.0401,0.2832
2.5540,-0.9741,-0.0376,0.2913
2.5540,-0.9741,-0.0376,0.2913
2.5540,-0.9741,-0.0376,0.2913
2.5540,-0.9741,-0.0376,0.2913
2.5550,-0.9846,-0.0261,0.2786
2.5550,-0.9846,-0.0261,0.2786
2.5550,-0.9846,-0.0261,0.2786
2.5550,-0.9846,-0.0261,0.2786
2.5550,-0.9846,-0.0261,0.2786
2.5570,-0.9800,-0.0396,0.2867
2.5570,-0.9800,-0.0396,0.2867
2.5570,-0.9800,-0.0396,0.2867
2.5780,-0.9673,-0.0489,0.2884
2.5780,-0.9673,-0.0489,0.2884
2.5780,-0.9673,-0.0489,0.2884
2.6000,-0.9710,-0.0389,0.2803
2.6000,-0.9710,-0.0389,0.2803
2.6000,-0.9710,-0.0389,0.2803
2.6170,-0.9785,-0.0288,0.2837
2.6170,-0.9785,-0.0288,0.2837
2.6170,-0.9785,-0.0288,0.2837
2.6190,-0.9785,-0.0288,0.2837
2.6190,-0.9785,-0.0288,0.2837
2.6370,-0.9746,-0.0386,0.3070
2.6370,-0.9746,-0.0386,0.3070
2.6370,-0.9746,-0.0386,0.3070
2.6650,-0.9561,-0.0445,0.2994
2.6650,-0.9561,-0.0445,0.2994
2.6660,-0.9561,-0.0445,0.2994
2.6800,-0.9680,-0.0374,0.2942
2.6810,-0.9680,-0.0374,0.2942
2.6810,-0.9680,-0.0374,0.2942
2.6970,-0.9719,-0.0318,0.2862
2.6980,-0.9719,-0.0318,0.2862
2.6980,-0.9719,-0.0318,0.2862
2.6990,-0.9719,-0.0318,0.2862
2.6990,-0.9719,-0.0318,0.2862
2.7170,-0.9719,-0.0318,0.2862
2.7190,-0.9561,-0.0386,0.3001
2.7200,-0.9561,-0.0386,0.3001
2.7200,-0.9561,-0.0386,0.3001
2.7410,-0.9507,-0.0330,0.2825
2.7410,-0.9507,-0.0330,0.2825
2.7420,-0.9507,-0.0330,0.2825
2.7560,-0.9600,-0.0147,0.2564
2.7570,-0.9600,-0.0147,0.2564
2.7580,-0.9600,-0.0147,0.2564
2.7770,-0.9580,-0.0332,0.2622
2.7790,-0.9580,-0.0332,0.2622
2.7790,-0.9580,-0.0332,0.2622
2.7800,-0.9580,-0.0332,0.2622
2.7800,-0.9580,-0.0332,0.2622
2.7970,-0.9583,-0.0420,0.2527
2.7970,-0.9583,-0.0420,0.2527
2.7980,-0.9583,-0.0420,0.2527
2.8160,-0.9673,-0.0374,0.2547
2.8170,-0.9673,-0.0374,0.2547
2.8170,-0.9673,-0.0374,0.2547
2.8370,-0.9336,-0.0403,0.2803
2.8380,-0.9336,-0.0403,0.2803
2.8380,-0.9336,-0.0403,0.2803
2.8570,-0.9079,-0.0362,0.2960
2.8580,-0.9079,-0.0362,0.2960
2.8590,-0.9079,-0.0362,0.2960
2.8590,-0.9079,-0.0362,0.2960
2.8600,-0.9079,-0.0362,0.2960
2.8760,-0.9561,-0.0154,0.3033
2.8770,-0.9561,-0.0154,0.3033
2.8770,-0.9561,-0.0154,0.3033
2.9000,-1.0448,-0.0125,0.3228
2.9000,-1.0448,-0.0125,0.3228
2.9010,-1.0448,-0.0125,0.3228
2.9170,-1.0448,-0.0125,0.3228
2.9180,-1.0521,-0.0286,0.3309
2.9180,-1.0521,-0.0286,0.3309
2.9190,-1.0521,-0.0286,0.3309
2.9350,-1.0145,-0.0393,0.2791
2.9360,-1.0145,-0.0393,0.2791
2.9360,-1.0145,-0.0393,0.2791
2.9380,-1.0145,-0.0393,0.2791
2.9380,-1.0145,-0.0393,0.2791
2.9550,-0.9842,-0.0435,0.2554
2.9560,-0.9842,-0.0435,0.2554
2.9560,-0.9842,-0.0435,0.2554
2.9760,-0.9756,-0.0418,0.2588
2.9770,-0.9756,-0.0418,0.2588
2.9770,-0.9756,-0.0418,0.2588
2.9780,-0.9756,-0.0418,0.2588
2.9950,-0.9622,-0.0423,0.2710
2.9960,-0.9622,-0.0423,0.2710
2.9970,-0.9622,-0.0423,0.2710
3.0160,-0.9341,-0.0462,0.2884
3.0170,-0.9341,-0.0462,0.2884
3.0830,-0.9341,-0.0462,0.2884
3.0830,-0.9341,-0.0462,0.2884
3.0830,-0.9341,-0.0462,0.2884
3.0830,-0.9458,-0.0303,0.2945
3.0830,-0.9458,-0.0303,0.2945
3.0840,-0.9458,-0.0303,0.2945
3.0840,-0.9776,-0.0308,0.2928
3.0840,-0.9776,-0.0308,0.2928
3.0840,-0.9776,-0.0308,0.2928
3.0840,-0.9954,-0.0486,0.3118
3.0840,-0.9954,-0.0486,0.3118
3.0850,-0.9954,-0.0486,0.3118
3.0960,-0.9800,-0.0415,0.3101
3.0960,-0.9800,-0.0415,0.3101
3.0970,-0.9800,-0.0415,0.3101
3.0980,-0.9800,-0.0415,0.3101
3.0980,-0.9800,-0.0415,0.3101
3.1130,-0.9800,-0.0415,0.3101
3.1130,-0.9451,-0.0291,0.2862
3.1130,-0.9451,-0.0291,0.2862
3.1140,-0.9451,-0.0291,0.2862
3.1340,-0.9326,-0.0264,0.2713
3.1340,-0.9326,-0.0264,0.2713
3.1350,-0.9326,-0.0264,0.2713
3.1550,-0.9309,-0.0337,0.2681
3.1560,-0.9309,-0.0337,0.2681
3.1570,-0.9309,-0.0337,0.2681
3.1740,-0.9355,-0.0386,0.2713
3.1760,-0.9355,-0.0386,0.2713
3.1760,-0.9355,-0.0386,0.2713
3.1770,-0.9355,-0.0386,0.2713
3.1770,-0.9355,-0.0386,0.2713
3.1780,-0.9355,-0.0386,0.2713
3.1960,-0.9397,-0.0332,0.2605
3.1970,-0.9397,-0.0332,0.2605
3.1970,-0.9397,-0.0332,0.2605
3.2150,-0.9385,-0.0340,0.2786
3.2160,-0.9385,-0.0340,0.2786
3.2160,-0.9385,-0.0340,0.2786
3.2360,-0.9631,-0.0442,0.2913
3.2360,-0.9631,-0.0442,0.2913
3.2370,-0.9631,-0.0442,0.2913
3.2540,-0.9497,-0.0543,0.2864
3.2550,-0.9497,-0.0543,0.2864
3.2560,-0.9497,-0.0543,0.2864
3.2560,-0.9497,-0.0543,0.2864
3.2570,-0.9497,-0.0543,0.2864
3.2760,-0.9424,-0.0528,0.2864
3.2770,-0.9424,-0.0528,0.2864
3.2780,-0.9424,-0.0528,0.2864
3.2960,-0.9565,-0.0447,0.3001
3.2970,-0.9565,-0.0447,0.3001
3.2970,-0.9565,-0.0447,0.3001
3.3140,-0.9565,-0.0447,0.3001
3.3150,-0.9587,-0.0340,0.2837
3.3160,-0.9587,-0.0340,0.2837
3.3160,-0.9587,-0.0340,0.2837
3.3350,-0.9749,-0.0349,0.2617
3.3360,-0.9749,-0.0349,0.2617
3.3360,-0.9749,-0.0349,0.2617
3.3370,-0.9749,-0.0349,0.2617
3.3370,-0.9749,-0.0349,0.2617
3.3540,-0.9964,-0.0403,0.2615
3.3550,-0.9964,-0.0403,0.2615
3.3550,-0.9964,-0.0403,0.2615
3.3760,-1.0081,-0.0442,0.2696
3.3770,-1.0081,-0.0442,0.2696
3.3770,-1.0081,-0.0442,0.2696
3.3950,-1.0027,-0.0401,0.2754
3.3950,-1.0027,-0.0401,0.2754
3.3960,-1.0027,-0.0401,0.2754
3.4150,-0.9900,-0.0318,0.2784
3.4160,-0.9900,-0.0318,0.2784
3.4170,-0.9900,-0.0318,0.2784
3.4170,-0.9900,-0.0318,0.2784
3.4180,-0.9900,-0.0318,0.2784
3.4340,-0.9778,-0.0308,0.2723
3.4360,-0.9778,-0.0308,0.2723
3.4370,-0.9778,-0.0308,0.2723
3.4540,-0.9807,-0.0345,0.2881
3.4560,-0.9807,-0.0345,0.2881
3.4560,-0.9807,-0.0345,0.2881
3.4740,-0.9807,-0.0349,0.2840
3.4750,-0.9807,-0.0349,0.2840
3.4750,-0.9807,-0.0349,0.2840
3.4950,-0.9744,-0.0379,0.2744
3.4950,-0.9744,-0.0379,0.2744
3.4960,-0.9744,-0.0379,0.2744
3.4960,-0.9744,-0.0379,0.2744
3.4970,-0.9744,-0.0379,0.2744
3.5150,-0.9744,-0.0379,0.2744
3.5160,-0.9646,-0.0420,0.2703
3.5160,-0.9646,-0.0420,0.2703
3.5170,-0.9646,-0.0420,0.2703
3.5360,-0.9514,-0.0420,0.2732
3.5370,-0.9514,-0.0420,0.2732
3.5370,-0.9514,-0.0420,0.2732
3.5530,-0.9529,-0.0345,0.2818
3.5530,-0.9529,-0.0345,0.2818
3.5530,-0.9529,-0.0345,0.2818
3.5910,-0.9680,-0.0186,0.2820
3.5920,-0.9680,-0.0186,0.2820
3.5920,-0.9680,-0.0186,0.2820
3.5920,-0.9680,-0.0186,0.2820
3.5920,-0.9680,-0.0186,0.2820
3.5920,-0.9758,-0.0371,0.2647
3.5920,-0.9758,-0.0371,0.2647
3.5920,-0.9758,-0.0371,0.2647
3.6120,-0.9653,-0.0721,0.2781
3.6120,-0.9653,-0.0721,0.2781
3.6120,-0.9653,-0.0721,0.2781
3.6310,-0.9641,-0.0767,0.2788
3.6320,-0.9641,-0.0767,0.2788
3.6320,-0.9641,-0.0767,0.2788
3.6510,-0.9663,-0.0430,0.2666
3.6520,-0.9663,-0.0430,0.2666
3.6520,-0.9663,-0.0430,0.2666
3.6530,-0.9663,-0.0430,0.2666
3.6530,-0.9663,-0.0430,0.2666
3.6710,-0.9724,-0.0252,0.2923
3.6710,-0.9724,-0.0252,0.2923
3.6710,-0.9724,-0.0252,0.2923
3.6920,-0.9966,-0.0310,0.2982
3.6930,-0.9966,-0.0310,0.2982
3.6930,-0.9966,-0.0310,0.2982
3.7110,-0.9966,-0.0310,0.2982
3.7110,-0.9583,-0.0626,0.2920
3.7110,-0.9583,-0.0626,0.2920
3.7120,-0.9583,-0.0626,0.2920
3.7320,-0.9231,-0.0325,0.2960
3.7320,-0.9231,-0.0325,0.2960
3.7330,-0.9231,-0.0325,0.2960
3.7330,-0.9231,-0.0325,0.2960
3.7330,-0.9231,-0.0325,0.2960
3.7510,-0.9927,0.0332,0.3038
3.7510,-0.9927,0.0332,0.3038
3.7520,-0.9927,0.0332,0.3038
3.7720,-0.9952,0.0112,0.2732
3.7720,-0.9952,0.0112,0.2732
3.7730,-0.9952,0.0112,0.2732
3.7910,-0.9504,-0.0565,0.2554
3.7910,-0.9504,-0.0565,0.2554
3.7920,-0.9504,-0.0565,0.2554
3.8140,-0.9426,-0.0916,0.2857
3.8140,-0.9426,-0.0916,0.2857
3.8140,-0.9426,-0.0916,0.2857
3.8150,-0.9426,-0.0916,0.2857
3.8150,-0.9426,-0.0916,0.2857
3.8320,-0.9507,-0.0506,0.3089
3.8320,-0.9507,-0.0506,0.3089
3.8320,-0.9507,-0.0506,0.3089
3.8510,-0.9707,-0.0032,0.3128
3.8510,-0.9707,-0.0032,0.3128
3.8520,-0.9707,-0.0032,0.3128
3.8700,-0.9700,-0.0269,0.3241
3.8710,-0.9700,-0.0269,0.3241
3.8710,-0.9700,-0.0269,0.3241
3.8900,-0.9497,-0.0833,0.3172
3.8910,-0.9497,-0.0833,0.3172
3.8910,-0.9497,-0.0833,0.3172
3.8920,-0.9497,-0.0833,0.3172
3.8920,-0.9497,-0.0833,0.3172
3.9100,-0.9497,-0.0833,0.3172
3.9100,-0.9497,-0.0875,0.3309
3.9100,-0.9497,-0.0875,0.3309
3.9100,-0.9497,-0.0875,0.3309
3.9310,-0.9812,-0.0420,0.3343
3.9310,-0.9812,-0.0420,0.3343
3.9320,-0.9812,-0.0420,0.3343
3.9530,-0.9932,-0.0320,0.3165
3.9530,-0.9932,-0.0320,0.3165
3.9530,-0.9932,-0.0320,0.3165
3.9710,-0.9492,-0.0596,0.2962
3.9710,-0.9492,-0.0596,0.2962
3.9710,-0.9492,-0.0596,0.2962
3.9710,-0.9492,-0.0596,0.2962
3.9720,-0.9492,-0.0596,0.2962
3.9910,-0.8896,-0.0855,0.2725
3.9910,-0.8896,-0.0855,0.2725
3.9910,-0.8896,-0.0855,0.2725
4.0110,-0.9231,-0.0589,0.2620
4.0110,-0.9231,-0.0589,0.2620
4.0110,-0.9231,-0.0589,0.2620
4.0300,-0.9736,-0.0152,0.2696
4.0310,-0.9736,-0.0152,0.2696
4.0310,-0.9736,-0.0152,0.2696
4.0500,-0.9785,-0.0100,0.3043
4.0500,-0.9785,-0.0100,0.3043
4.0510,-0.9785,-0.0100,0.3043
4.0510,-0.9785,-0.0100,0.3043
4.0510,-0.9785,-0.0100,0.3043
4.0700,-0.9712,-0.0232,0.3070
4.0710,-0.9712,-0.0232,0.3070
4.0710,-0.9712,-0.0232,0.3070
4.0890,-0.9590,-0.0391,0.3162
4.0890,-0.9590,-0.0391,0.3162
4.0890,-0.9590,-0.0391,0.3162
4.1080,-0.9590,-0.0391,0.3162
4.1090,-0.9563,-0.0359,0.3282
4.1090,-0.9563,-0.0359,0.3282
4.1430,-0.9563,-0.0359,0.3282
4.1430,-0.9605,-0.0320,0.3250
4.1430,-0.9605,-0.0320,0.3250
4.1430,-0.9605,-0.0320,0.3250
4.1430,-0.9605,-0.0320,0.3250
4.1440,-0.9605,-0.0320,0.3250
4.1550,-0.9590,-0.0391,0.3062
4.1550,-0.9590,-0.0391,0.3062
4.1550,-0.9590,-0.0391,0.3062
4.1700,-0.9590,-0.0391,0.3062
4.1700,-0.9514,-0.0533,0.3121
4.1700,-0.9514,-0.0533,0.3121
4.1700,-0.9514,-0.0533,0.3121
4.1910,-0.9289,-0.0420,0.3013
4.1910,-0.9289,-0.0420,0.3013
4.1910,-0.9289,-0.0420,0.3013
4.2130,-0.9455,-0.0237,0.2859
4.2130,-0.9455,-0.0237,0.2859
4.2130,-0.9455,-0.0237,0.2859
4.2130,-0.9455,-0.0237,0.2859
4.2130,-0.9455,-0.0237,0.2859
4.2290,-0.9573,-0.0408,0.2806
4.2290,-0.9573,-0.0408,0.2806
4.2290,-0.9573,-0.0408,0.2806
4.2500,-0.9416,-0.0694,0.3162
4.2500,-0.9416,-0.0694,0.3162
4.2500,-0.9416,-0.0694,0.3162
4.2690,-0.9297,-0.0631,0.3087
4.2690,-0.9297,-0.0631,0.3087
4.2690,-0.9297,-0.0631,0.3087
4.2890,-0.9651,-0.0327,0.2991
4.2890,-0.9651,-0.0327,0.2991
4.2890,-0.9651,-0.0327,0.2991
4.2900,-0.9651,-0.0327,0.2991
4.2900,-0.9651,-0.0327,0.2991
4.3080,-0.9651,-0.0327,0.2991
4.3080,-0.9798,-0.0379,0.3138
4.3080,-0.9798,-0.0379,0.3138
4.3080,-0.9798,-0.0379,0.3138
4.3280,-0.9685,-0.0645,0.3280
4.3280,-0.9685,-0.0645,0.3280
4.3280,-0.9685,-0.0645,0.3280
4.3490,-0.9746,-0.0611,0.3241
4.3490,-0.9746,-0.0611,0.3241
4.3500,-0.9746,-0.0611,0.3241
4.3700,-0.9746,-0.0611,0.3241
4.3700,-0.9822,-0.0459,0.3038
4.3700,-0.9822,-0.0459,0.3038
4.3700,-0.9822,-0.0459,0.3038
4.3700,-0.9822,-0.0459,0.3038
4.3700,-0.9822,-0.0459,0.3038
4.3920,-0.9546,-0.0486,0.2862
4.3920,-0.9546,-0.0486,0.2862
4.3920,-0.9546,-0.0486,0.2862
4.4090,-0.9563,-0.0457,0.2889
4.4090,-0.9563,-0.0457,0.2889
4.4090,-0.9563,-0.0457,0.2889
4.4290,-0.9639,-0.0374,0.3099
4.4290,-0.9639,-0.0374,0.3099
4.4290,-0.9639,-0.0374,0.3099
4.4490,-0.9512,-0.0437,0.3006
4.4490,-0.9512,-0.0437,0.3006
4.4490,-0.9512,-0.0437,0.3006
4.4500,-0.9512,-0.0437,0.3006
4.4500,-0.9512,-0.0437,0.3006
4.4690,-0.9570,-0.0479,0.2901
4.4690,-0.9570,-0.0479,0.2901
4.4690,-0.9570,-0.0479,0.2901
4.4890,-0.9634,-0.0381,0.2967
4.4890,-0.9634,-0.0381,0.2967
4.4890,-0.9634,-0.0381,0.2967
4.5100,-0.9634,-0.0381,0.2967
4.5100,-0.9592,-0.0415,0.3106
4.5100,-0.9592,-0.0415,0.3106
4.5110,-0.9592,-0.0415,0.3106
4.5280,-0.9509,-0.0423,0.2928
4.5280,-0.9509,-0.0423,0.2928
4.5280,-0.9509,-0.0423,0.2928
4.5280,-0.9509,-0.0423,0.2928
4.5280,-0.9509,-0.0423,0.2928
4.5480,-0.9534,-0.0445,0.3006
4.5490,-0.9534,-0.0445,0.3006
4.5490,-0.9534,-0.0445,0.3006
4.5670,-0.9651,-0.0415,0.3082
4.5680,-0.9651,-0.0415,0.3082
4.5680,-0.9651,-0.0415,0.3082
4.5880,-0.9856,-0.0528,0.2852
4.5880,-0.9856,-0.0528,0.2852
4.5880,-0.9856,-0.0528,0.2852
4.6100,-0.9705,-0.0743,0.2573
4.6100,-0.9705,-0.0743,0.2573
4.6100,-0.9705,-0.0743,0.2573
4.6100,-0.9705,-0.0743,0.2573
4.6100,-0.9705,-0.0743,0.2573
4.6270,-0.9490,-0.0841,0.2754
4.6270,-0.9490,-0.0841,0.2754
4.6270,-0.9490,-0.0841,0.2754
4.6500,-0.9539,-0.0567,0.2776
4.6500,-0.9539,-0.0567,0.2776
4.6500,-0.9539,-0.0567,0.2776
4.6960,-1.0037,-0.0369,0.2708
4.6960,-1.0037,-0.0369,0.2708
4.6960,-1.0037,-0.0369,0.2708
4.6960,-0.9815,-0.0582,0.2872
4.6960,-0.9815,-0.0582,0.2872
4.6960,-0.9815,-0.0582,0.2872
4.6960,-0.9815,-0.0582,0.2872
4.6970,-0.9815,-0.0582,0.2872
4.7080,-0.9815,-0.0582,0.2872
4.7080,-0.9521,-0.0616,0.3023
4.7080,-0.9521,-0.0616,0.3023
4.7080,-0.9521,-0.0616,0.3023
4.7260,-0.9502,-0.0359,0.3070
4.7260,-0.9502,-0.0359,0.3070
4.7260,-0.9502,-0.0359,0.3070
4.7490,-0.9573,-0.0293,0.3145
4.7500,-0.9573,-0.0293,0.3145
4.7500,-0.9573,-0.0293,0.3145
4.7660,-0.9575,-0.0521,0.3221
4.7660,-0.9575,-0.0521,0.3221
4.7660,-0.9575,-0.0521,0.3221
4.7660,-0.9575,-0.0521,0.3221
4.7660,-0.9575,-0.0521,0.3221
4.7850,-0.9619,-0.0665,0.3165
4.7850,-0.9619,-0.0665,0.3165
4.7860,-0.9619,-0.0665,0.3165
4.8050,-0.9893,-0.0589,0.2874
4.8050,-0.9893,-0.0589,0.2874
4.8050,-0.9893,-0.0589,0.2874
4.8290,-0.9878,-0.0787,0.2879
4.8290,-0.9878,-0.0787,0.2879
4.8300,-0.9878,-0.0787,0.2879
4.8490,-0.9673,-0.0828,0.2850
4.8490,-0.9673,-0.0828,0.2850
4.8500,-0.9673,-0.0828,0.2850
4.8500,-0.9673,-0.0828,0.2850
4.8500,-0.9673,-0.0828,0.2850
4.8680,-0.9705,-0.0535,0.2916
4.8690,-0.9705,-0.0535,0.2916
4.8690,-0.9705,-0.0535,0.2916
4.8870,-0.9558,-0.0442,0.2952
4.8880,-0.9558,-0.0442,0.2952
4.8880,-0.9558,-0.0442,0.2952
4.9060,-0.9558,-0.0442,0.2952
4.9060,-0.9367,-0.0628,0.3082
4.9060,-0.9367,-0.0628,0.3082
4.9060,-0.9367,-0.0628,0.3082
4.9280,-0.9443,-0.0650,0.3021
4.9280,-0.9443,-0.0650,0.3021
4.9280,-0.9443,-0.0650,0.3021
4.9280,-0.9443,-0.0650,0.3021
4.9290,-0.9443,-0.0650,0.3021
4.9480,-0.9695,-0.0587,0.2986
4.9480,-0.9695,-0.0587,0.2986
4.9480,-0.9695,-0.0587,0.2986
4.9700,-0.9736,-0.0643,0.3150
4.9700,-0.9736,-0.0643,0.3150
4.9700,-0.9736,-0.0643,0.3150
4.9880,-0.9719,-0.0486,0.3043
4.9880,-0.9719,-0.0486,0.3043
4.9890,-0.9719,-0.0486,0.3043
5.0070,-0.9724,-0.0376,0.2969
5.0080,-0.9724,-0.0376,0.2969
5.0080,-0.9724,-0.0376,0.2969
5.0080,-0.9724,-0.0376,0.2969
5.0080,-0.9724,-0.0376,0.2969
5.0230,-0.9377,-0.0506,0.3057
5.0240,-0.9377,-0.0506,0.3057
5.0240,-0.9377,-0.0506,0.3057
5.0490,-0.9213,-0.0555,0.2967
5.0490,-0.9213,-0.0555,0.2967
5.0490,-0.9213,-0.0555,0.2967
5.0660,-0.9399,-0.0535,0.2898
5.0660,-0.9399,-0.0535,0.2898
5.0660,-0.9399,-0.0535,0.2898
5.0850,-0.9580,-0.0513,0.2957
5.0850,-0.9580,-0.0513,0.2957
5.0860,-0.9580,-0.0513,0.2957
5.0860,-0.9580,-0.0513,0.2957
5.0860,-0.9580,-0.0513,0.2957
5.1050,-0.9580,-0.0513,0.2957
5.1050,-0.9653,-0.0631,0.3079
5.1050,-0.9653,-0.0631,0.3079
5.1050,-0.9653,-0.0631,0.3079
5.1280,-0.9658,-0.0716,0.3035
5.1280,-0.9658,-0.0716,0.3035
5.1280,-0.9658,-0.0716,0.3035
5.1470,-0.9607,-0.0672,0.2920
5.1470,-0.9607,-0.0672,0.2920
5.1470,-0.9607,-0.0672,0.2920
5.1660,-0.9673,-0.0540,0.2967
5.1660,-0.9673,-0.0540,0.2967
5.1660,-0.9673,-0.0540,0.2967
5.1670,-0.9673,-0.0540,0.2967
5.1670,-0.9673,-0.0540,0.2967
5.1860,-0.9641,-0.0601,0.2986
5.1860,-0.9641,-0.0601,0.2986
5.1860,-0.9641,-0.0601,0.2986
5.2040,-0.9514,-0.0665,0.2947
5.2050,-0.9514,-0.0665,0.2947
5.2520,-0.9514,-0.0665,0.2947
5.2520,-0.9649,-0.0491,0.2913
5.2530,-0.9649,-0.0491,0.2913
5.2530,-0.9649,-0.0491,0.2913
5.2530,-0.9798,-0.0313,0.2991
5.2530,-0.9798,-0.0313,0.2991
5.2530,-0.9798,-0.0313,0.2991
5.2540,-0.9798,-0.0313,0.2991
5.2540,-0.9798,-0.0313,0.2991
5.2620,-0.9619,-0.0428,0.2982
5.2630,-0.9619,-0.0428,0.2982
5.2630,-0.9619,-0.0428,0.2982
5.2810,-0.9468,-0.0655,0.2847
5.2820,-0.9468,-0.0655,0.2847
5.2820,-0.9468,-0.0655,0.2847
5.3030,-0.9468,-0.0655,0.2847
5.3040,-0.9512,-0.0552,0.2776
5.3040,-0.9512,-0.0552,0.2776
5.3040,-0.9512,-0.0552,0.2776
5.3230,-0.9744,-0.0367,0.2754
5.3230,-0.9744,-0.0367,0.2754
5.3230,-0.9744,-0.0367,0.2754
5.3240,-0.9744,-0.0367,0.2754
5.3240,-0.9744,-0.0367,0.2754
5.3430,-0.9964,-0.0303,0.2784
5.3430,-0.9964,-0.0303,0.2784
5.3430,-0.9964,-0.0303,0.2784
5.3660,-0.9903,-0.0252,0.2642
5.3660,-0.9903,-0.0252,0.2642
5.3660,-0.9903,-0.0252,0.2642
5.3870,-0.9592,-0.0240,0.2527
5.3870,-0.9592,-0.0240,0.2527
5.3870,-0.9592,-0.0240,0.2527
5.4060,-0.9453,-0.0342,0.2747
5.4060,-0.9453,-0.0342,0.2747
5.4060,-0.9453,-0.0342,0.2747
5.4060,-0.9453,-0.0342,0.2747
5.4070,-0.9453,-0.0342,0.2747
5.4250,-0.9301,-0.0462,0.3013
5.4250,-0.9301,-0.0462,0.3013
5.4250,-0.9301,-0.0462,0.3013
5.4450,-0.9397,-0.0464,0.3167
5.4450,-0.9397,-0.0464,0.3167
5.4450,-0.9397,-0.0464,0.3167
5.4660,-0.9656,-0.0396,0.2862
5.4670,-0.9656,-0.0396,0.2862
5.4670,-0.9656,-0.0396,0.2862
5.4830,-0.9436,-0.0679,0.2923
5.4840,-0.9436,-0.0679,0.2923
5.4840,-0.9436,-0.0679,0.2923
5.4840,-0.9436,-0.0679,0.2923
5.4850,-0.9436,-0.0679,0.2923
5.5040,-0.9436,-0.0679,0.2923
5.5040,-0.9771,-0.0797,0.2991
5.5050,-0.9771,-0.0797,0.2991
5.5050,-0.9771,-0.0797,0.2991
5.5220,-0.9903,-0.0521,0.2979
5.5230,-0.9903,-0.0521,0.2979
5.5230,-0.9903,-0.0521,0.2979
5.5440,-0.9668,-0.0435,0.2994
5.5440,-0.9668,-0.0435,0.2994
5.5440,-0.9668,-0.0435,0.2994
5.5640,-0.9553,-0.0535,0.2859
5.5640,-0.9553,-0.0535,0.2859
5.5650,-0.9553,-0.0535,0.2859
5.5650,-0.9553,-0.0535,0.2859
5.5650,-0.9553,-0.0535,0.2859
5.5830,-0.9446,-0.0584,0.2852
5.5840,-0.9446,-0.0584,0.2852
5.5840,-0.9446,-0.0584,0.2852
5.6010,-0.9563,-0.0511,0.2818
5.6010,-0.9563,-0.0511,0.2818
5.6010,-0.9563,-0.0511,0.2818
5.6240,-0.9736,-0.0472,0.2925
5.6240,-0.9736,-0.0472,0.2925
5.6240,-0.9736,-0.0472,0.2925
5.6410,-0.9773,-0.0481,0.3067
5.6410,-0.9773,-0.0481,0.3067
5.6410,-0.9773,-0.0481,0.3067
5.6410,-0.9773,-0.0481,0.3067
5.6420,-0.9773,-0.0481,0.3067
5.6620,-0.9688,-0.0496,0.3148
5.6620,-0.9688,-0.0496,0.3148
5.6620,-0.9688,-0.0496,0.3148
5.6840,-0.9639,-0.0481,0.2950
5.6840,-0.9639,-0.0481,0.2950
5.6840,-0.9639,-0.0481,0.2950
5.6970,-0.9639,-0.0481,0.2950
5.7020,-0.9600,-0.0503,0.2832
5.7020,-0.9600,-0.0503,0.2832
5.7020,-0.9600,-0.0503,0.2832
5.7210,-0.9671,-0.0591,0.2930
5.7210,-0.9671,-0.0591,0.2930
5.7220,-0.9671,-0.0591,0.2930
5.7220,-0.9671,-0.0591,0.2930
5.7220,-0.9671,-0.0591,0.2930
5.7410,-0.9771,-0.0552,0.2847
5.7420,-0.9771,-0.0552,0.2847
5.7420,-0.9771,-0.0552,0.2847
5.7610,-0.9565,-0.0591,0.2774
5.8100,-0.9565,-0.0591,0.2774
5.8100,-0.9565,-0.0591,0.2774
5.8100,-0.9414,-0.0660,0.2884
5.8100,-0.9414,-0.0660,0.2884
5.8100,-0.9414,-0.0660,0.2884
5.8100,-0.9353,-0.0633,0.2955
5.8110,-0.9353,-0.0633,0.2955
5.8110,-0.9353,-0.0633,0.2955
5.8110,-0.9353,-0.0633,0.2955
5.8110,-0.9353,-0.0633,0.2955
5.8230,-0.9656,-0.0428,0.3055
5.8230,-0.9656,-0.0428,0.3055
5.8230,-0.9656,-0.0428,0.3055
5.8390,-0.9795,-0.0403,0.2762
5.8390,-0.9795,-0.0403,0.2762
5.8390,-0.9795,-0.0403,0.2762
5.8620,-0.9932,-0.0535,0.2823
5.8620,-0.9932,-0.0535,0.2823
5.8620,-0.9932,-0.0535,0.2823
5.8830,-0.9619,-0.0523,0.2696
5.8830,-0.9619,-0.0523,0.2696
5.8830,-0.9619,-0.0523,0.2696
5.8840,-0.9619,-0.0523,0.2696
5.8840,-0.9619,-0.0523,0.2696
5.8960,-0.9619,-0.0523,0.2696
5.8990,-0.9455,-0.0489,0.2696
5.9000,-0.9455,-0.0489,0.2696
5.9000,-0.9455,-0.0489,0.2696
5.9180,-0.9504,-0.0420,0.2608
5.9180,-0.9504,-0.0420,0.2608
5.9180,-0.9504,-0.0420,0.2608
5.9400,-0.9578,-0.0430,0.2627
5.9400,-0.9578,-0.0430,0.2627
5.9410,-0.9578,-0.0430,0.2627
5.9600,-0.9600,-0.0533,0.2859
5.9600,-0.9600,-0.0533,0.2859
5.9600,-0.9600,-0.0533,0.2859
5.9600,-0.9600,-0.0533,0.2859
5.9610,-0.9600,-0.0533,0.2859
5.9790,-0.9732,-0.0511,0.2925
5.9790,-0.9732,-0.0511,0.2925
5.9790,-0.9732,-0.0511,0.2925
5.9990,-0.9710,-0.0574,0.2972
6.0000,-0.9710,-0.0574,0.2972
6.0000,-0.9710,-0.0574,0.2972
6.0190,-0.9541,-0.0635,0.3126
6.0200,-0.9541,-0.0635,0.3126
6.0200,-0.9541,-0.0635,0.3126
6.0400,-0.9671,-0.0574,0.3101
6.0410,-0.9671,-0.0574,0.3101
6.0410,-0.9671,-0.0574,0.3101
6.0410,-0.9671,-0.0574,0.3101
6.0410,-0.9671,-0.0574,0.3101
6.0590,-0.9722,-0.0540,0.2886
6.0590,-0.9722,-0.0540,0.2886
6.0590,-0.9722,-0.0540,0.2886
6.0780,-0.9942,-0.0638,0.2940
6.0780,-0.9942,-0.0638,0.2940
6.0780,-0.9942,-0.0638,0.2940
6.0960,-0.9942,-0.0638,0.2940
6.0990,-0.9771,-0.0611,0.2906
6.0990,-0.9771,-0.0611,0.2906
6.0990,-0.9771,-0.0611,0.2906
6.1220,-0.9609,-0.0464,0.2908
6.1220,-0.9609,-0.0464,0.2908
6.1230,-0.9609,-0.0464,0.2908
6.1230,-0.9609,-0.0464,0.2908
6.1230,-0.9609,-0.0464,0.2908
6.1400,-0.9558,-0.0494,0.2884
6.1400,-0.9558,-0.0494,0.2884
6.1400,-0.9558,-0.0494,0.2884
6.1580,-0.9492,-0.0565,0.2854
6.1580,-0.9492,-0.0565,0.2854
6.1580,-0.9492,-0.0565,0.2854
6.1790,-0.9548,-0.0538,0.2950
6.1790,-0.9548,-0.0538,0.2950
6.1800,-0.9548,-0.0538,0.2950
6.1980,-0.9756,-0.0442,0.3092
6.1990,-0.9756,-0.0442,0.3092
6.1990,-0.9756,-0.0442,0.3092
6.1990,-0.9756,-0.0442,0.3092
6.1990,-0.9756,-0.0442,0.3092
6.2180,-0.9788,-0.0472,0.3018
6.2190,-0.9788,-0.0472,0.3018
6.2190,-0.9788,-0.0472,0.3018
6.2370,-0.9717,-0.0599,0.3045
6.2380,-0.9717,-0.0599,0.3045
6.2380,-0.9717,-0.0599,0.3045
6.2570,-0.9651,-0.0609,0.2974
6.2580,-0.9651,-0.0609,0.2974
6.2580,-0.9651,-0.0609,0.2974
6.2760,-0.9509,-0.0496,0.2810
6.2760,-0.9509,-0.0496,0.2810
6.2770,-0.9509,-0.0496,0.2810
6.2790,-0.9509,-0.0496,0.2810
6.2790,-0.9509,-0.0496,0.2810
6.2940,-0.9509,-0.0496,0.2810
6.2970,-0.9512,-0.0484,0.2710
6.2970,-0.9512,-0.0484,0.2710
6.2970,-0.9512,-0.0484,0.2710
6.3440,-0.9668,-0.0481,0.2864
6.3440,-0.9668,-0.0481,0.2864
6.3440,-0.9668,-0.0481,0.2864
6.3440,-0.9595,-0.0499,0.2850
6.3440,-0.9595,-0.0499,0.2850
6.3440,-0.9595,-0.0499,0.2850
6.3550,-0.9460,-0.0557,0.2908
6.3550,-0.9460,-0.0557,0.2908
6.3550,-0.9460,-0.0557,0.2908
6.3620,-0.9460,-0.0557,0.2908
6.3620,-0.9460,-0.0557,0.2908
6.3750,-0.9473,-0.0486,0.2930
6.3750,-0.9473,-0.0486,0.2930
6.3750,-0.9473,-0.0486,0.2930
6.3960,-0.9612,-0.0450,0.2793
6.3960,-0.9612,-0.0450,0.2793
6.3960,-0.9612,-0.0450,0.2793
6.4160,-0.9790,-0.0645,0.2762
6.4160,-0.9790,-0.0645,0.2762
6.4170,-0.9790,-0.0645,0.2762
6.4350,-0.9617,-0.0657,0.2754
6.4350,-0.9617,-0.0657,0.2754
6.4350,-0.9617,-0.0657,0.2754
6.4380,-0.9617,-0.0657,0.2754
6.4380,-0.9617,-0.0657,0.2754
6.4550,-0.9326,-0.0523,0.2759
6.4560,-0.9326,-0.0523,0.2759
6.4560,-0.9326,-0.0523,0.2759
6.4750,-0.9507,-0.0335,0.2605
6.4760,-0.9507,-0.0335,0.2605
6.4760,-0.9507,-0.0335,0.2605
6.4920,-0.9507,-0.0335,0.2605
6.4960,-0.9722,-0.0362,0.2676
6.4970,-0.9722,-0.0362,0.2676
6.4970,-0.9722,-0.0362,0.2676
6.5160,-0.9805,-0.0604,0.2979
6.5160,-0.9805,-0.0604,0.2979
6.5160,-0.9805,-0.0604,0.2979
6.5170,-0.9805,-0.0604,0.2979
6.5170,-0.9805,-0.0604,0.2979
6.5360,-0.9783,-0.0533,0.2906
6.5370,-0.9783,-0.0533,0.2906
6.5370,-0.9783,-0.0533,0.2906
6.5560,-0.9675,-0.0342,0.2862
6.5560,-0.9675,-0.0342,0.2862
6.5560,-0.9675,-0.0342,0.2862
6.5750,-0.9512,-0.0464,0.2874
6.5760,-0.9512,-0.0464,0.2874
6.5760,-0.9512,-0.0464,0.2874
6.5950,-0.9460,-0.0687,0.2840
6.5950,-0.9460,-0.0687,0.2840
6.5950,-0.9460,-0.0687,0.2840
6.5980,-0.9460,-0.0687,0.2840
6.5980,-0.9460,-0.0687,0.2840
6.6140,-0.9609,-0.0604,0.2974
6.6150,-0.9609,-0.0604,0.2974
6.6150,-0.9609,-0.0604,0.2974
6.6340,-0.9790,-0.0386,0.2923
6.6350,-0.9790,-0.0386,0.2923
6.6350,-0.9790,-0.0386,0.2923
6.6590,-0.9773,-0.0362,0.2737
6.6590,-0.9773,-0.0362,0.2737
6.6590,-0.9773,-0.0362,0.2737
6.6760,-0.9724,-0.0694,0.2740
6.6760,-0.9724,-0.0694,0.2740
6.6760,-0.9724,-0.0694,0.2740
6.6770,-0.9724,-0.0694,0.2740
6.6770,-0.9724,-0.0694,0.2740
6.6960,-0.9724,-0.0694,0.2740
6.6960,-0.9702,-0.0736,0.2769
6.6970,-0.9702,-0.0736,0.2769
6.6970,-0.9702,-0.0736,0.2769
6.7140,-0.9675,-0.0506,0.2784
6.7150,-0.9675,-0.0506,0.2784
6.7150,-0.9675,-0.0506,0.2784
6.7360,-0.9629,-0.0479,0.2859
6.7360,-0.9629,-0.0479,0.2859
6.7360,-0.9629,-0.0479,0.2859
6.7550,-0.9536,-0.0506,0.2876
6.7550,-0.9536,-0.0506,0.2876
6.7550,-0.9536,-0.0506,0.2876
6.7560,-0.9536,-0.0506,0.2876
6.7560,-0.9536,-0.0506,0.2876
6.7750,-0.9675,-0.0440,0.2771
6.7750,-0.9675,-0.0440,0.2771
6.7760,-0.9675,-0.0440,0.2771
6.7950,-0.9776,-0.0428,0.2766
6.7950,-0.9776,-0.0428,0.2766
6.7960,-0.9776,-0.0428,0.2766
6.8150,-0.9822,-0.0506,0.2691
6.8150,-0.9822,-0.0506,0.2691
6.8160,-0.9822,-0.0506,0.2691
6.8340,-0.9673,-0.0562,0.2732
6.8350,-0.9673,-0.0562,0.2732
6.8350,-0.9673,-0.0562,0.2732
6.8350,-0.9673,-0.0562,0.2732
6.8350,-0.9673,-0.0562,0.2732
6.8540,-0.9458,-0.0489,0.2793
6.8540,-0.9458,-0.0489,0.2793
6.8540,-0.9458,-0.0489,0.2793
6.8980,-0.9468,-0.0420,0.2847
6.8980,-0.9468,-0.0420,0.2847
6.8980,-0.9468,-0.0420,0.2847
6.8980,-0.9468,-0.0420,0.2847
6.8980,-0.9558,-0.0555,0.2837
6.8980,-0.9558,-0.0555,0.2837
6.8980,-0.9558,-0.0555,0.2837
6.9110,-0.9592,-0.0655,0.2830
6.9120,-0.9592,-0.0655,0.2830
6.9120,-0.9592,-0.0655,0.2830
6.9150,-0.9592,-0.0655,0.2830
6.9150,-0.9592,-0.0655,0.2830
6.9320,-0.9702,-0.0640,0.2759
6.9320,-0.9702,-0.0640,0.2759
6.9320,-0.9702,-0.0640,0.2759
6.9520,-0.9947,-0.0582,0.2818
6.9520,-0.9947,-0.0582,0.2818
6.9520,-0.9947,-0.0582,0.2818
6.9730,-0.9666,-0.0484,0.2840
6.9730,-0.9666,-0.0484,0.2840
6.9730,-0.9666,-0.0484,0.2840
6.9930,-0.9600,-0.0435,0.2696
6.9930,-0.9600,-0.0435,0.2696
6.9930,-0.9600,-0.0435,0.2696
6.9930,-0.9600,-0.0435,0.2696
6.9940,-0.9600,-0.0435,0.2696
7.0120,-0.9663,-0.0474,0.2625
7.0130,-0.9663,-0.0474,0.2625
7.0130,-0.9663,-0.0474,0.2625
7.0310,-0.9597,-0.0572,0.2622
7.0320,-0.9597,-0.0572,0.2622
7.0320,-0.9597,-0.0572,0.2622
7.0510,-0.9768,-0.0513,0.2593
7.0520,-0.9768,-0.0513,0.2593
7.0520,-0.9768,-0.0513,0.2593
7.0720,-0.9829,-0.0386,0.2559
7.0730,-0.9829,-0.0386,0.2559
7.0730,-0.9829,-0.0386,0.2559
7.0780,-0.9829,-0.0386,0.2559
7.0780,-0.9829,-0.0386,0.2559
7.0900,-0.9829,-0.0386,0.2559
7.0920,-0.9727,-0.0457,0.2723
7.0930,-0.9727,-0.0457,0.2723
7.0930,-0.9727,-0.0457,0.2723
7.1120,-0.9570,-0.0596,0.2869
7.1120,-0.9570,-0.0596,0.2869
7.1130,-0.9570,-0.0596,0.2869
7.1320,-0.9556,-0.0535,0.2867
7.1320,-0.9556,-0.0535,0.2867
7.1320,-0.9556,-0.0535,0.2867
7.1520,-0.9619,-0.0420,0.2845
7.1520,-0.9619,-0.0420,0.2845
7.1520,-0.9619,-0.0420,0.2845
7.1520,-0.9619,-0.0420,0.2845
7.1520,-0.9619,-0.0420,0.2845
7.1710,-0.9822,-0.0513,0.2933
7.1720,-0.9822,-0.0513,0.2933
7.1720,-0.9822,-0.0513,0.2933
7.1910,-0.9732,-0.0672,0.2850
7.1920,-0.9732,-0.0672,0.2850
7.1920,-0.9732,-0.0672,0.2850
7.2120,-0.9629,-0.0599,0.2718
7.2130,-0.9629,-0.0599,0.2718
7.2130,-0.9629,-0.0599,0.2718
7.2330,-0.9761,-0.0364,0.2622
7.2340,-0.9761,-0.0364,0.2622
7.2340,-0.9761,-0.0364,0.2622
7.2340,-0.9761,-0.0364,0.2622
7.2340,-0.9761,-0.0364,0.2622
7.2550,-0.9788,-0.0455,0.2744
7.2550,-0.9788,-0.0455,0.2744
7.2550,-0.9788,-0.0455,0.2744
7.2720,-0.9832,-0.0665,0.2823
7.2720,-0.9832,-0.0665,0.2823
7.2730,-0.9832,-0.0665,0.2823
7.2910,-0.9832,-0.0665,0.2823
7.2980,-0.9685,-0.0601,0.2598
7.2980,-0.9685,-0.0601,0.2598
7.2980,-0.9685,-0.0601,0.2598
7.3130,-0.9458,-0.0557,0.2705
7.3140,-0.9458,-0.0557,0.2705
7.3140,-0.9458,-0.0557,0.2705
7.3140,-0.9458,-0.0557,0.2705
7.3140,-0.9458,-0.0557,0.2705
7.3310,-0.9477,-0.0489,0.2781
7.3310,-0.9477,-0.0489,0.2781
7.3310,-0.9477,-0.0489,0.2781
7.3500,-0.9683,-0.0359,0.2908
7.3510,-0.9683,-0.0359,0.2908
7.3510,-0.9683,-0.0359,0.2908
7.3730,-0.9780,-0.0418,0.2986
7.3740,-0.9780,-0.0418,0.2986
7.3740,-0.9780,-0.0418,0.2986
7.3920,-0.9629,-0.0594,0.2925
7.3920,-0.9629,-0.0594,0.2925
7.3920,-0.9629,-0.0594,0.2925
7.3920,-0.9629,-0.0594,0.2925
7.3930,-0.9629,-0.0594,0.2925
7.4120,-0.9570,-0.0611,0.2759
7.4130,-0.9570,-0.0611,0.2759
7.4550,-0.9570,-0.0611,0.2759
7.4550,-0.9683,-0.0496,0.2701
7.4550,-0.9683,-0.0496,0.2701
7.4550,-0.9683,-0.0496,0.2701
7.4550,-0.9717,-0.0472,0.2776
7.4550,-0.9717,-0.0472,0.2776
7.4550,-0.9717,-0.0472,0.2776
7.4700,-0.9507,-0.0533,0.2674
7.4700,-0.9507,-0.0533,0.2674
7.4700,-0.9507,-0.0533,0.2674
7.4720,-0.9507,-0.0533,0.2674
7.4720,-0.9507,-0.0533,0.2674
7.4850,-0.9507,-0.0533,0.2674
7.4910,-0.9536,-0.0587,0.2583
7.4910,-0.9536,-0.0587,0.2583
7.4910,-0.9536,-0.0587,0.2583
7.5100,-0.9556,-0.0545,0.2754
7.5110,-0.9556,-0.0545,0.2754
7.5110,-0.9556,-0.0545,0.2754
7.5310,-0.9627,-0.0393,0.2762
7.5310,-0.9627,-0.0393,0.2762
7.5310,-0.9627,-0.0393,0.2762
7.5520,-0.9653,-0.0457,0.2679
7.5520,-0.9653,-0.0457,0.2679
7.5520,-0.9653,-0.0457,0.2679
7.5530,-0.9653,-0.0457,0.2679
7.5530,-0.9653,-0.0457,0.2679
7.5700,-0.9548,-0.0506,0.2713
7.5700,-0.9548,-0.0506,0.2713
7.5700,-0.9548,-0.0506,0.2713
7.5910,-0.9736,-0.0423,0.2781
7.5910,-0.9736,-0.0423,0.2781
7.5910,-0.9736,-0.0423,0.2781
7.6110,-0.9807,-0.0469,0.2837
7.6110,-0.9807,-0.0469,0.2837
7.6110,-0.9807,-0.0469,0.2837
7.6310,-0.9407,-0.0552,0.2603
7.6310,-0.9407,-0.0552,0.2603
7.6320,-0.9407,-0.0552,0.2603
7.6320,-0.9407,-0.0552,0.2603
7.6500,-0.9377,-0.0604,0.2764
7.6510,-0.9377,-0.0604,0.2764
7.6510,-0.9377,-0.0604,0.2764
7.6700,-0.9756,-0.0521,0.2803
7.6700,-0.9756,-0.0521,0.2803
7.6700,-0.9756,-0.0521,0.2803
7.6860,-0.9756,-0.0521,0.2803
7.6890,-0.9854,-0.0538,0.2796
7.6890,-0.9854,-0.0538,0.2796
7.6890,-0.9854,-0.0538,0.2796
7.7110,-0.9800,-0.0601,0.2784
7.7110,-0.9800,-0.0601,0.2784
7.7120,-0.9800,-0.0601,0.2784
7.7120,-0.9800,-0.0601,0.2784
7.7120,-0.9800,-0.0601,0.2784
7.7320,-0.9978,-0.0609,0.2715
7.7320,-0.9978,-0.0609,0.2715
7.7320,-0.9978,-0.0609,0.2715
7.7520,-0.9856,-0.0587,0.2764
7.7520,-0.9856,-0.0587,0.2764
7.7520,-0.9856,-0.0587,0.2764
7.7700,-0.9705,-0.0579,0.2784
7.7700,-0.9705,-0.0579,0.2784
7.7700,-0.9705,-0.0579,0.2784
7.7900,-0.9766,-0.0611,0.2723
7.7900,-0.9766,-0.0611,0.2723
7.7910,-0.9766,-0.0611,0.2723
7.7930,-0.9766,-0.0611,0.2723
7.7930,-0.9766,-0.0611,0.2723
7.8110,-0.9685,-0.0569,0.2657
7.8110,-0.9685,-0.0569,0.2657
7.8110,-0.9685,-0.0569,0.2657
7.8290,-0.9646,-0.0543,0.2713
7.8300,-0.9646,-0.0543,0.2713
7.8300,-0.9646,-0.0543,0.2713
7.8500,-0.9697,-0.0584,0.2796
7.8510,-0.9697,-0.0584,0.2796
7.8510,-0.9697,-0.0584,0.2796
7.8700,-0.9692,-0.0611,0.2862
7.8710,-0.9692,-0.0611,0.2862
7.8710,-0.9692,-0.0611,0.2862
7.8710,-0.9692,-0.0611,0.2862
7.8720,-0.9692,-0.0611,0.2862
7.8840,-0.9692,-0.0611,0.2862
7.8910,-0.9719,-0.0415,0.2806
7.8910,-0.9719,-0.0415,0.2806
7.8920,-0.9719,-0.0415,0.2806
7.9090,-0.9793,-0.0418,0.2732
7.9100,-0.9793,-0.0418,0.2732
7.9100,-0.9793,-0.0418,0.2732
7.9300,-0.9761,-0.0609,0.2657
7.9300,-0.9761,-0.0609,0.2657
7.9300,-0.9761,-0.0609,0.2657
7.9450,-0.9761,-0.0609,0.2657
7.9490,-0.9663,-0.0599,0.2529
7.9490,-0.9663,-0.0599,0.2529
7.9490,-0.9663,-0.0599,0.2529
7.9490,-0.9663,-0.0599,0.2529
7.9500,-0.9663,-0.0599,0.2529
7.9720,-0.9323,-0.0587,0.2573
8.0220,-0.9323,-0.0587,0.2573
8.0220,-0.9323,-0.0587,0.2573
8.0220,-0.9267,-0.0587,0.2798
8.0220,-0.9267,-0.0587,0.2798
8.0220,-0.9267,-0.0587,0.2798
8.0230,-0.9573,-0.0494,0.2996
8.0230,-0.9573,-0.0494,0.2996
8.0230,-0.9573,-0.0494,0.2996
8.0260,-0.9761,-0.0423,0.2771
8.0260,-0.9761,-0.0423,0.2771
8.0260,-0.9761,-0.0423,0.2771
8.0290,-0.9761,-0.0423,0.2771
8.0290,-0.9761,-0.0423,0.2771
8.0450,-0.9827,-0.0631,0.2671
8.0460,-0.9827,-0.0631,0.2671
8.0460,-0.9827,-0.0631,0.2671
8.0730,-0.9925,-0.0711,0.2730
8.0730,-0.9925,-0.0711,0.2730
8.0740,-0.9925,-0.0711,0.2730
8.0820,-0.9925,-0.0711,0.2730
8.0850,-0.9719,-0.0459,0.2471
8.0860,-0.9719,-0.0459,0.2471
8.0860,-0.9719,-0.0459,0.2471
8.1090,-0.9507,-0.0337,0.2368
8.1100,-0.9507,-0.0337,0.2368
8.1100,-0.9507,-0.0337,0.2368
8.1100,-0.9507,-0.0337,0.2368
8.1100,-0.9507,-0.0337,0.2368
8.1270,-0.9605,-0.0408,0.2468
8.1280,-0.9605,-0.0408,0.2468
8.1280,-0.9605,-0.0408,0.2468
8.1430,-0.9605,-0.0408,0.2468
8.1480,-0.9719,-0.0447,0.2476
8.1480,-0.9719,-0.0447,0.2476
8.1480,-0.9719,-0.0447,0.2476
8.1680,-0.9697,-0.0486,0.2613
8.1680,-0.9697,-0.0486,0.2613
8.1680,-0.9697,-0.0486,0.2613
8.1920,-0.9658,-0.0572,0.2720
8.1920,-0.9658,-0.0572,0.2720
8.1920,-0.9658,-0.0572,0.2720
8.1920,-0.9658,-0.0572,0.2720
8.1920,-0.9658,-0.0572,0.2720
8.2060,-0.9702,-0.0555,0.2730
8.2060,-0.9702,-0.0555,0.2730
8.2060,-0.9702,-0.0555,0.2730
8.2330,-0.9773,-0.0494,0.2874
8.2330,-0.9773,-0.0494,0.2874
8.2340,-0.9773,-0.0494,0.2874
8.2480,-0.9788,-0.0496,0.2803
8.2490,-0.9788,-0.0496,0.2803
8.2490,-0.9788,-0.0496,0.2803
8.2710,-0.9453,-0.0560,0.2688
8.2710,-0.9453,-0.0560,0.2688
8.2720,-0.9453,-0.0560,0.2688
8.2720,-0.9453,-0.0560,0.2688
8.2720,-0.9453,-0.0560,0.2688
8.2810,-0.9453,-0.0560,0.2688
8.2870,-0.9851,-0.0525,0.2691
8.2870,-0.9851,-0.0525,0.2691
8.2870,-0.9851,-0.0525,0.2691
8.3110,-0.9974,-0.0472,0.2740
8.3110,-0.9974,-0.0472,0.2740
8.3110,-0.9974,-0.0472,0.2740
8.3260,-0.9688,-0.0494,0.2542
8.3260,-0.9688,-0.0494,0.2542
8.3270,-0.9688,-0.0494,0.2542
8.3400,-0.9688,-0.0494,0.2542
8.3440,-0.9749,-0.0601,0.2549
8.3440,-0.9749,-0.0601,0.2549
8.3440,-0.9749,-0.0601,0.2549
8.3480,-0.9749,-0.0601,0.2549
8.3490,-0.9749,-0.0601,0.2549
8.3660,-0.9585,-0.0635,0.2625
8.3660,-0.9585,-0.0635,0.2625
8.3660,-0.9585,-0.0635,0.2625
8.3870,-0.9600,-0.0503,0.2696
8.3880,-0.9600,-0.0503,0.2696
8.3880,-0.9600,-0.0503,0.2696
8.4070,-0.9810,-0.0345,0.2674
8.4080,-0.9810,-0.0345,0.2674
8.4080,-0.9810,-0.0345,0.2674
8.4260,-0.9736,-0.0481,0.2784
8.4270,-0.9736,-0.0481,0.2784
8.4270,-0.9736,-0.0481,0.2784
8.4290,-0.9736,-0.0481,0.2784
8.4290,-0.9736,-0.0481,0.2784
8.4450,-0.9622,-0.0560,0.2845
8.4460,-0.9622,-0.0560,0.2845
8.4460,-0.9622,-0.0560,0.2845
8.4650,-0.9649,-0.0484,0.2676
8.4650,-0.9649,-0.0484,0.2676
8.4650,-0.9649,-0.0484,0.2676
8.4780,-0.9649,-0.0484,0.2676
8.4850,-0.9854,-0.0513,0.2691
8.4850,-0.9854,-0.0513,0.2691
8.4860,-0.9854,-0.0513,0.2691
8.5060,-0.9649,-0.0538,0.2718
8.5060,-0.9649,-0.0538,0.2718
8.5060,-0.9649,-0.0538,0.2718
8.5530,-0.9649,-0.0538,0.2718
8.5530,-0.9649,-0.0538,0.2718
8.5530,-0.9460,-0.0511,0.2632
8.5530,-0.9460,-0.0511,0.2632
8.5530,-0.9460,-0.0511,0.2632
8.5530,-0.9636,-0.0457,0.2466
8.5530,-0.9636,-0.0457,0.2466
8.5540,-0.9636,-0.0457,0.2466
8.5640,-0.9822,-0.0491,0.2620
8.5640,-0.9822,-0.0491,0.2620
8.5640,-0.9822,-0.0491,0.2620
8.5900,-0.9578,-0.0535,0.2779
8.5900,-0.9578,-0.0535,0.2779
8.5900,-0.9578,-0.0535,0.2779
8.5900,-0.9578,-0.0535,0.2779
8.5900,-0.9578,-0.0535,0.2779
8.6030,-0.9514,-0.0411,0.2691
8.6030,-0.9514,-0.0411,0.2691
8.6030,-0.9514,-0.0411,0.2691
8.6250,-0.9758,-0.0261,0.2591
8.6250,-0.9758,-0.0261,0.2591
8.6250,-0.9758,-0.0261,0.2591
8.6430,-0.9883,-0.0345,0.2669
8.6430,-0.9883,-0.0345,0.2669
8.6430,-0.9883,-0.0345,0.2669
8.6650,-0.9580,-0.0484,0.2705
8.6650,-0.9580,-0.0484,0.2705
8.6650,-0.9580,-0.0484,0.2705
8.6680,-0.9580,-0.0484,0.2705
8.6680,-0.9580,-0.0484,0.2705
8.6750,-0.9580,-0.0484,0.2705
8.6860,-0.9429,-0.0445,0.2649
8.6860,-0.9429,-0.0445,0.2649
8.6860,-0.9429,-0.0445,0.2649
8.7060,-0.9668,-0.0420,0.2742
8.7070,-0.9668,-0.0420,0.2742
8.7070,-0.9668,-0.0420,0.2742
8.7250,-0.9644,-0.0565,0.2713
8.7250,-0.9644,-0.0565,0.2713
8.7250,-0.9644,-0.0565,0.2713
8.7450,-0.9639,-0.0640,0.2642
8.7450,-0.9639,-0.0640,0.2642
8.7450,-0.9639,-0.0640,0.2642
8.7490,-0.9639,-0.0640,0.2642
8.7500,-0.9639,-0.0640,0.2642
8.7630,-0.9705,-0.0596,0.2649
8.7640,-0.9705,-0.0596,0.2649
8.7640,-0.9705,-0.0596,0.2649
8.7830,-0.9568,-0.0645,0.2764
8.7840,-0.9568,-0.0645,0.2764
8.7840,-0.9568,-0.0645,0.2764
8.8020,-0.9712,-0.0621,0.2913
8.8020,-0.9712,-0.0621,0.2913
8.8030,-0.9712,-0.0621,0.2913
8.8240,-0.9876,-0.0543,0.2991
8.8240,-0.9876,-0.0543,0.2991
8.8250,-0.9876,-0.0543,0.2991
8.8270,-0.9876,-0.0543,0.2991
8.8280,-0.9876,-0.0543,0.2991
8.8450,-0.9749,-0.0521,0.2813
8.8450,-0.9749,-0.0521,0.2813
8.8450,-0.9749,-0.0521,0.2813
8.8630,-0.9722,-0.0489,0.2639
8.8630,-0.9722,-0.0489,0.2639
8.8640,-0.9722,-0.0489,0.2639
8.8760,-0.9722,-0.0489,0.2639
8.8820,-1.0010,-0.0462,0.2762
8.8820,-1.0010,-0.0462,0.2762
8.8820,-1.0010,-0.0462,0.2762
8.9010,-0.9952,-0.0425,0.2727
8.9020,-0.9952,-0.0425,0.2727
8.9020,-0.9952,-0.0425,0.2727
8.9040,-0.9952,-0.0425,0.2727
8.9040,-0.9952,-0.0425,0.2727
8.9210,-0.9607,-0.0428,0.2659
8.9210,-0.9607,-0.0428,0.2659
8.9210,-0.9607,-0.0428,0.2659
8.9410,-0.9517,-0.0376,0.2588
8.9410,-0.9517,-0.0376,0.2588
8.9420,-0.9517,-0.0376,0.2588
8.9620,-0.9536,-0.0381,0.2610
8.9620,-0.9536,-0.0381,0.2610
8.9620,-0.9536,-0.0381,0.2610
8.9820,-0.9614,-0.0425,0.2520
8.9820,-0.9614,-0.0425,0.2520
8.9820,-0.9614,-0.0425,0.2520
8.9850,-0.9614,-0.0425,0.2520
8.9850,-0.9614,-0.0425,0.2520
9.0030,-0.9710,-0.0484,0.2583
9.0030,-0.9710,-0.0484,0.2583
9.0030,-0.9710,-0.0484,0.2583
9.0210,-0.9732,-0.0496,0.2725
9.0220,-0.9732,-0.0496,0.2725
9.0220,-0.9732,-0.0496,0.2725
9.0410,-0.9661,-0.0411,0.2754
9.0420,-0.9661,-0.0411,0.2754
9.0420,-0.9661,-0.0411,0.2754
9.0620,-0.9634,-0.0413,0.2647
9.0630,-0.9634,-0.0413,0.2647
9.0630,-0.9634,-0.0413,0.2647
9.1080,-0.9634,-0.0413,0.2647
9.1080,-0.9634,-0.0413,0.2647
9.1080,-0.9634,-0.0413,0.2647
9.1080,-0.9807,-0.0501,0.2566
9.1080,-0.9807,-0.0501,0.2566
9.1080,-0.9807,-0.0501,0.2566
9.1080,-0.9724,-0.0562,0.2483
9.1080,-0.9724,-0.0562,0.2483
9.1080,-0.9724,-0.0562,0.2483
9.1220,-0.9563,-0.0501,0.2500
9.1220,-0.9563,-0.0501,0.2500
9.1220,-0.9563,-0.0501,0.2500
9.1410,-0.9597,-0.0371,0.2517
9.1420,-0.9597,-0.0371,0.2517
9.1420,-0.9597,-0.0371,0.2517
9.1440,-0.9597,-0.0371,0.2517
9.1450,-0.9597,-0.0371,0.2517
9.1650,-0.9722,-0.0435,0.2788
9.1660,-0.9722,-0.0435,0.2788
9.1660,-0.9722,-0.0435,0.2788
9.1810,-0.9573,-0.0477,0.2703
9.1810,-0.9573,-0.0477,0.2703
9.1820,-0.9573,-0.0477,0.2703
9.1990,-0.9744,-0.0386,0.2483
9.1990,-0.9744,-0.0386,0.2483
9.1990,-0.9744,-0.0386,0.2483
9.2200,-0.9944,-0.0386,0.2608
9.2200,-0.9944,-0.0386,0.2608
9.2210,-0.9944,-0.0386,0.2608
9.2210,-0.9944,-0.0386,0.2608
9.2210,-0.9944,-0.0386,0.2608
9.2400,-0.9751,-0.0516,0.2718
9.2400,-0.9751,-0.0516,0.2718
9.2400,-0.9751,-0.0516,0.2718
9.2590,-0.9448,-0.0518,0.2569
9.2600,-0.9448,-0.0518,0.2569
9.2600,-0.9448,-0.0518,0.2569
9.2760,-0.9448,-0.0518,0.2569
9.2790,-0.9556,-0.0425,0.2622
9.2790,-0.9556,-0.0425,0.2622
9.2790,-0.9556,-0.0425,0.2622
9.3020,-0.9668,-0.0494,0.2801
9.3020,-0.9668,-0.0494,0.2801
9.3020,-0.9668,-0.0494,0.2801
9.3050,-0.9668,-0.0494,0.2801
9.3050,-0.9668,-0.0494,0.2801
9.3210,-0.9739,-0.0579,0.2784
9.3210,-0.9739,-0.0579,0.2784
9.3210,-0.9739,-0.0579,0.2784
9.3380,-0.9886,-0.0533,0.2581
9.3380,-0.9886,-0.0533,0.2581
9.3380,-0.9886,-0.0533,0.2581
9.3580,-0.9917,-0.0545,0.2671
9.3580,-0.9917,-0.0545,0.2671
9.3580,-0.9917,-0.0545,0.2671
9.3800,-0.9710,-0.0648,0.2835
9.3810,-0.9710,-0.0648,0.2835
9.3810,-0.9710,-0.0648,0.2835
9.3830,-0.9710,-0.0648,0.2835
9.3840,-0.9710,-0.0648,0.2835
9.3980,-0.9595,-0.0591,0.2781
9.3980,-0.9595,-0.0591,0.2781
9.3990,-0.9595,-0.0591,0.2781
9.4180,-0.9700,-0.0433,0.2720
9.4180,-0.9700,-0.0433,0.2720
9.4180,-0.9700,-0.0433,0.2720
9.4370,-0.9736,-0.0418,0.2744
9.4370,-0.9736,-0.0418,0.2744
9.4380,-0.9736,-0.0418,0.2744
9.4570,-0.9714,-0.0447,0.2586
9.4580,-0.9714,-0.0447,0.2586
9.4580,-0.9714,-0.0447,0.2586
9.4620,-0.9714,-0.0447,0.2586
9.4620,-0.9714,-0.0447,0.2586
9.4730,-0.9714,-0.0447,0.2586
9.4780,-0.9966,-0.0428,0.2586
9.4780,-0.9966,-0.0428,0.2586
9.4780,-0.9966,-0.0428,0.2586
9.4980,-1.0005,-0.0425,0.2576
9.4980,-1.0005,-0.0425,0.2576
9.4980,-1.0005,-0.0425,0.2576
9.5170,-0.9602,-0.0462,0.2622
9.5170,-0.9602,-0.0462,0.2622
9.5170,-0.9602,-0.0462,0.2622
9.5380,-0.9497,-0.0452,0.2703
9.5380,-0.9497,-0.0452,0.2703
9.5380,-0.9497,-0.0452,0.2703
9.5400,-0.9497,-0.0452,0.2703
9.5410,-0.9497,-0.0452,0.2703
9.5570,-0.9509,-0.0437,0.2644
9.5580,-0.9509,-0.0437,0.2644
9.5580,-0.9509,-0.0437,0.2644
9.5760,-0.9514,-0.0472,0.2666
9.5770,-0.9514,-0.0472,0.2666
9.5770,-0.9514,-0.0472,0.2666
9.5960,-0.9587,-0.0535,0.2762
9.5970,-0.9587,-0.0535,0.2762
9.5970,-0.9587,-0.0535,0.2762
9.6170,-0.9722,-0.0533,0.2813
9.6170,-0.9722,-0.0533,0.2813
9.6610,-0.9722,-0.0533,0.2813
9.6620,-0.9722,-0.0533,0.2813
9.6620,-0.9722,-0.0533,0.2813
9.6620,-0.9563,-0.0452,0.2808
9.6620,-0.9563,-0.0452,0.2808
9.6620,-0.9563,-0.0452,0.2808
9.6620,-0.9780,-0.0525,0.2835
9.6620,-0.9780,-0.0525,0.2835
9.6620,-0.9780,-0.0525,0.2835
9.6680,-0.9780,-0.0525,0.2835
9.6770,-0.9673,-0.0709,0.2776
9.6770,-0.9673,-0.0709,0.2776
9.6770,-0.9673,-0.0709,0.2776
9.6950,-0.9592,-0.0719,0.2586
9.6960,-0.9592,-0.0719,0.2586
9.6960,-0.9592,-0.0719,0.2586
9.6980,-0.9592,-0.0719,0.2586
9.6980,-0.9592,-0.0719,0.2586
9.7150,-0.9595,-0.0562,0.2595
9.7150,-0.9595,-0.0562,0.2595
9.7150,-0.9595,-0.0562,0.2595
9.7350,-0.9541,-0.0393,0.2749
9.7350,-0.9541,-0.0393,0.2749
9.7350,-0.9541,-0.0393,0.2749
9.7550,-0.9627,-0.0379,0.2676
9.7550,-0.9627,-0.0379,0.2676
9.7550,-0.9627,-0.0379,0.2676
9.7760,-0.9671,-0.0518,0.2632
9.7770,-0.9671,-0.0518,0.2632
9.7770,-0.9671,-0.0518,0.2632
9.7800,-0.9671,-0.0518,0.2632
9.7800,-0.9671,-0.0518,0.2632
9.7950,-0.9712,-0.0572,0.2632
9.7950,-0.9712,-0.0572,0.2632
9.7960,-0.9712,-0.0572,0.2632
9.8150,-0.9629,-0.0472,0.2776
9.8150,-0.9629,-0.0472,0.2776
9.8160,-0.9629,-0.0472,0.2776
9.8360,-0.9622,-0.0393,0.2759
9.8360,-0.9622,-0.0393,0.2759
9.8360,-0.9622,-0.0393,0.2759
9.8560,-0.9653,-0.0411,0.2752
9.8570,-0.9653,-0.0411,0.2752
9.8570,-0.9653,-0.0411,0.2752
9.8580,-0.9653,-0.0411,0.2752
9.8590,-0.9653,-0.0411,0.2752
9.8710,-0.9653,-0.0411,0.2752
9.8740,-0.9732,-0.0442,0.2691
9.8750,-0.9732,-0.0442,0.2691
9.8750,-0.9732,-0.0442,0.2691
9.8940,-0.9942,-0.0545,0.2723
9.8950,-0.9942,-0.0545,0.2723
9.8950,-0.9942,-0.0545,0.2723
9.9140,-0.9981,-0.0589,0.2671
9.9150,-0.9981,-0.0589,0.2671
9.9150,-0.9981,-0.0589,0.2671
9.9350,-0.9763,-0.0540,0.2698
9.9350,-0.9763,-0.0540,0.2698
9.9350,-0.9763,-0.0540,0.2698
9.9370,-0.9763,-0.0540,0.2698
9.9380,-0.9763,-0.0540,0.2698
9.9540,-0.9873,-0.0462,0.2542
9.9540,-0.9873,-0.0462,0.2542
9.9550,-0.9873,-0.0462,0.2542
9.9740,-0.9768,-0.0567,0.2639
9.9740,-0.9768,-0.0567,0.2639
9.9740,-0.9768,-0.0567,0.2639
9.9940,-0.9788,-0.0574,0.2686
9.9940,-0.9788,-0.0574,0.2686
9.9940,-0.9788,-0.0574,0.2686
10.0140,-0.9658,-0.0428,0.2669
10.0140,-0.9658,-0.0428,0.2669
10.0150,-0.9658,-0.0428,0.2669
10.0180,-0.9658,-0.0428,0.2669
10.0180,-0.9658,-0.0428,0.2669
10.0390,-0.9644,-0.0418,0.2708
10.0390,-0.9644,-0.0418,0.2708
10.0400,-0.9644,-0.0418,0.2708
10.0540,-0.9724,-0.0423,0.2581
10.0540,-0.9724,-0.0423,0.2581
10.0550,-0.9724,-0.0423,0.2581
10.0710,-0.9724,-0.0423,0.2581
10.0740,-0.9734,-0.0447,0.2564
10.0750,-0.9734,-0.0447,0.2564
10.0750,-0.9734,-0.0447,0.2564
10.0930,-0.9832,-0.0516,0.2691
10.0940,-0.9832,-0.0516,0.2691
10.0940,-0.9832,-0.0516,0.2691
10.0960,-0.9832,-0.0516,0.2691
10.0960,-0.9832,-0.0516,0.2691
10.1140,-0.9758,-0.0445,0.2564
10.1140,-0.9758,-0.0445,0.2564
10.1140,-0.9758,-0.0445,0.2564
10.1330,-0.9509,-0.0437,0.2415
10.1330,-0.9509,-0.0437,0.2415
10.1330,-0.9509,-0.0437,0.2415
10.1540,-0.9526,-0.0550,0.2630
10.1550,-0.9526,-0.0550,0.2630
10.1550,-0.9526,-0.0550,0.2630
10.1720,-0.9580,-0.0569,0.2791
10.2190,-0.9580,-0.0569,0.2791
10.2190,-0.9580,-0.0569,0.2791
10.2190,-0.9580,-0.0569,0.2791
10.2190,-0.9580,-0.0569,0.2791
10.2190,-0.9605,-0.0462,0.2603
10.2190,-0.9605,-0.0462,0.2603
10.2200,-0.9605,-0.0462,0.2603
10.2200,-0.9815,-0.0398,0.2657
10.2200,-0.9815,-0.0398,0.2657
10.2200,-0.9815,-0.0398,0.2657
10.2320,-0.9942,-0.0533,0.2891
10.2320,-0.9942,-0.0533,0.2891
10.2320,-0.9942,-0.0533,0.2891
10.2510,-0.9751,-0.0567,0.2850
10.2520,-0.9751,-0.0567,0.2850
10.2520,-0.9751,-0.0567,0.2850
10.2560,-0.9751,-0.0567,0.2850
10.2560,-0.9751,-0.0567,0.2850
10.2640,-0.9751,-0.0567,0.2850
10.2740,-0.9629,-0.0442,0.2551
10.2750,-0.9629,-0.0442,0.2551
10.2750,-0.9629,-0.0442,0.2551
10.2910,-0.9597,-0.0403,0.2537
10.2920,-0.9597,-0.0403,0.2537
10.2920,-0.9597,-0.0403,0.2537
10.3120,-0.9536,-0.0506,0.2779
10.3120,-0.9536,-0.0506,0.2779
10.3120,-0.9536,-0.0506,0.2779
10.3320,-0.9553,-0.0481,0.2681
10.3330,-0.9553,-0.0481,0.2681
10.3330,-0.9553,-0.0481,0.2681
10.3360,-0.9553,-0.0481,0.2681
10.3360,-0.9553,-0.0481,0.2681
10.3520,-0.9751,-0.0342,0.2419
10.3530,-0.9751,-0.0342,0.2419
10.3530,-0.9751,-0.0342,0.2419
10.3720,-0.9778,-0.0406,0.2510
10.3730,-0.9778,-0.0406,0.2510
10.3730,-0.9778,-0.0406,0.2510
10.3920,-0.9627,-0.0508,0.2666
10.3920,-0.9627,-0.0508,0.2666
10.3930,-0.9627,-0.0508,0.2666
10.4120,-0.9697,-0.0391,0.2688
10.4120,-0.9697,-0.0391,0.2688
10.4120,-0.9697,-0.0391,0.2688
10.4150,-0.9697,-0.0391,0.2688
10.4150,-0.9697,-0.0391,0.2688
10.4340,-0.9678,-0.0332,0.2576
10.4340,-0.9678,-0.0332,0.2576
10.4340,-0.9678,-0.0332,0.2576
10.4510,-0.9531,-0.0484,0.2635
10.4520,-0.9531,-0.0484,0.2635
10.4520,-0.9531,-0.0484,0.2635
10.4640,-0.9531,-0.0484,0.2635
10.4710,-0.9763,-0.0572,0.2766
10.4710,-0.9763,-0.0572,0.2766
10.4720,-0.9763,-0.0572,0.2766
10.4920,-0.9947,-0.0398,0.2649
10.4920,-0.9947,-0.0398,0.2649
10.4920,-0.9947,-0.0398,0.2649
10.4950,-0.9947,-0.0398,0.2649
10.4950,-0.9947,-0.0398,0.2649
10.5120,-0.9561,-0.0340,0.2551
10.5120,-0.9561,-0.0340,0.2551
10.5130,-0.9561,-0.0340,0.2551
10.5320,-0.9553,-0.0518,0.2754
10.5320,-0.9553,-0.0518,0.2754
10.5320,-0.9553,-0.0518,0.2754
10.5490,-0.9900,-0.0579,0.2825
10.5490,-0.9900,-0.0579,0.2825
10.5500,-0.9900,-0.0579,0.2825
10.5690,-0.9702,-0.0401,0.2659
10.5690,-0.9702,-0.0401,0.2659
10.5700,-0.9702,-0.0401,0.2659
10.5720,-0.9702,-0.0401,0.2659
10.5720,-0.9702,-0.0401,0.2659
10.5890,-0.9666,-0.0283,0.2471
10.5890,-0.9666,-0.0283,0.2471
10.5890,-0.9666,-0.0283,0.2471
10.6110,-0.9812,-0.0445,0.2576
10.6110,-0.9812,-0.0445,0.2576
10.6110,-0.9812,-0.0445,0.2576
10.6290,-0.9873,-0.0437,0.2588
10.6290,-0.9873,-0.0437,0.2588
10.6290,-0.9873,-0.0437,0.2588
10.6510,-0.9800,-0.0340,0.2510
10.6510,-0.9800,-0.0340,0.2510
10.6510,-0.9800,-0.0340,0.2510
10.6530,-0.9800,-0.0340,0.2510
10.6530,-0.9800,-0.0340,0.2510
10.6590,-0.9800,-0.0340,0.2510
10.6700,-0.9763,-0.0403,0.2525
10.6700,-0.9763,-0.0403,0.2525
10.6700,-0.9763,-0.0403,0.2525
10.6900,-0.9529,-0.0486,0.2527
10.6900,-0.9529,-0.0486,0.2527
10.6910,-0.9529,-0.0486,0.2527
10.7100,-0.9507,-0.0496,0.2512
10.7100,-0.9507,-0.0496,0.2512
10.7110,-0.9507,-0.0496,0.2512
10.7570,-0.9729,-0.0379,0.2561
10.7570,-0.9729,-0.0379,0.2561
10.7570,-0.9729,-0.0379,0.2561
10.7570,-0.9729,-0.0379,0.2561
10.7570,-0.9729,-0.0379,0.2561
10.7570,-0.9776,-0.0396,0.2730
10.7570,-0.9776,-0.0396,0.2730
10.7570,-0.9776,-0.0396,0.2730
10.7690,-0.9722,-0.0530,0.2784
10.7690,-0.9722,-0.0530,0.2784
10.7690,-0.9722,-0.0530,0.2784
10.7890,-0.9705,-0.0547,0.2715
10.7890,-0.9705,-0.0547,0.2715
10.7890,-0.9705,-0.0547,0.2715
10.8090,-0.9592,-0.0437,0.2529
10.8090,-0.9592,-0.0437,0.2529
10.8090,-0.9592,-0.0437,0.2529
10.8100,-0.9592,-0.0437,0.2529
10.8100,-0.9592,-0.0437,0.2529
10.8310,-0.9595,-0.0462,0.2571
10.8310,-0.9595,-0.0462,0.2571
10.8310,-0.9595,-0.0462,0.2571
10.8510,-0.9653,-0.0474,0.2796
10.8510,-0.9653,-0.0474,0.2796
10.8510,-0.9653,-0.0474,0.2796
10.8580,-0.9653,-0.0474,0.2796
10.8700,-0.9722,-0.0408,0.2930
10.8700,-0.9722,-0.0408,0.2930
10.8700,-0.9722,-0.0408,0.2930
10.8900,-0.9705,-0.0396,0.2759
10.8910,-0.9705,-0.0396,0.2759
10.8910,-0.9705,-0.0396,0.2759
10.8910,-0.9705,-0.0396,0.2759
10.8910,-0.9705,-0.0396,0.2759
10.9100,-0.9583,-0.0491,0.2681
10.9100,-0.9583,-0.0491,0.2681
10.9100,-0.9583,-0.0491,0.2681
10.9310,-0.9678,-0.0582,0.2803
10.9310,-0.9678,-0.0582,0.2803
10.9310,-0.9678,-0.0582,0.2803
10.9520,-0.9641,-0.0567,0.2847
10.9520,-0.9641,-0.0567,0.2847
10.9520,-0.9641,-0.0567,0.2847
10.9700,-0.9512,-0.0384,0.2639
10.9700,-0.9512,-0.0384,0.2639
10.9710,-0.9512,-0.0384,0.2639
10.9710,-0.9512,-0.0384,0.2639
10.9710,-0.9512,-0.0384,0.2639
10.9900,-0.9724,-0.0369,0.2603
10.9910,-0.9724,-0.0369,0.2603
10.9910,-0.9724,-0.0369,0.2603
11.0100,-0.9805,-0.0513,0.2512
11.0100,-0.9805,-0.0513,0.2512
11.0100,-0.9805,-0.0513,0.2512
11.0290,-0.9629,-0.0538,0.2522
11.0300,-0.9629,-0.0538,0.2522
11.0300,-0.9629,-0.0538,0.2522
11.0490,-0.9480,-0.0469,0.2732
11.0490,-0.9480,-0.0469,0.2732
11.0500,-0.9480,-0.0469,0.2732
11.0500,-0.9480,-0.0469,0.2732
11.0500,-0.9480,-0.0469,0.2732
11.0570,-0.9480,-0.0469,0.2732
11.0700,-0.9627,-0.0367,0.2786
11.0700,-0.9627,-0.0367,0.2786
11.0700,-0.9627,-0.0367,0.2786
11.0900,-0.9614,-0.0445,0.2737
11.0900,-0.9614,-0.0445,0.2737
11.0910,-0.9614,-0.0445,0.2737
11.1110,-0.9812,-0.0633,0.2696
11.1110,-0.9812,-0.0633,0.2696
11.1110,-0.9812,-0.0633,0.2696
11.1300,-1.0030,-0.0657,0.2766
11.1300,-1.0030,-0.0657,0.2766
11.1300,-1.0030,-0.0657,0.2766
11.1310,-1.0030,-0.0657,0.2766
11.1310,-1.0030,-0.0657,0.2766
11.1510,-0.9634,-0.0525,0.2752
11.1510,-0.9634,-0.0525,0.2752
11.1510,-0.9634,-0.0525,0.2752
11.1690,-0.9629,-0.0335,0.2537
11.1690,-0.9629,-0.0335,0.2537
11.1690,-0.9629,-0.0335,0.2537
11.1910,-0.9798,-0.0452,0.2718
11.1910,-0.9798,-0.0452,0.2718
11.1910,-0.9798,-0.0452,0.2718
11.2090,-0.9834,-0.0687,0.2918
11.2100,-0.9834,-0.0687,0.2918
11.2100,-0.9834,-0.0687,0.2918
11.2100,-0.9834,-0.0687,0.2918
11.2100,-0.9834,-0.0687,0.2918
11.2310,-0.9671,-0.0513,0.2591
11.2320,-0.9671,-0.0513,0.2591
11.2320,-0.9671,-0.0513,0.2591
11.2520,-0.9651,-0.0430,0.2617
11.2520,-0.9651,-0.0430,0.2617
11.2530,-0.9651,-0.0430,0.2617
11.2550,-0.9651,-0.0430,0.2617
11.2700,-0.9898,-0.0525,0.2894
11.2700,-0.9898,-0.0525,0.2894
11.3220,-0.9898,-0.0525,0.2894
11.3220,-0.9771,-0.0501,0.2837
11.3220,-0.9771,-0.0501,0.2837
11.3220,-0.9771,-0.0501,0.2837
11.3230,-0.9771,-0.0501,0.2837
11.3230,-0.9771,-0.0501,0.2837
11.3230,-0.9631,-0.0354,0.2666
11.3230,-0.9631,-0.0354,0.2666
11.3230,-0.9631,-0.0354,0.2666
11.3270,-0.9719,-0.0266,0.2600
11.3270,-0.9719,-0.0266,0.2600
11.3270,-0.9719,-0.0266,0.2600
11.3470,-0.9612,-0.0413,0.2429
11.3470,-0.9612,-0.0413,0.2429
11.3470,-0.9612,-0.0413,0.2429
11.3670,-0.9556,-0.0557,0.2510
11.3670,-0.9556,-0.0557,0.2510
11.3670,-0.9556,-0.0557,0.2510
11.3670,-0.9556,-0.0557,0.2510
11.3670,-0.9556,-0.0557,0.2510
11.3850,-0.9631,-0.0494,0.2578
11.3850,-0.9631,-0.0494,0.2578
11.3850,-0.9631,-0.0494,0.2578
11.4060,-0.9539,-0.0413,0.2432
11.4060,-0.9539,-0.0413,0.2432
11.4060,-0.9539,-0.0413,0.2432
11.4290,-0.9541,-0.0401,0.2459
11.4290,-0.9541,-0.0401,0.2459
11.4300,-0.9541,-0.0401,0.2459
11.4500,-0.9736,-0.0472,0.2769
11.4500,-0.9736,-0.0472,0.2769
11.4510,-0.9736,-0.0472,0.2769
11.4510,-0.9736,-0.0472,0.2769
11.4510,-0.9736,-0.0472,0.2769
11.4530,-0.9736,-0.0472,0.2769
11.4690,-0.9829,-0.0513,0.2906
11.4700,-0.9829,-0.0513,0.2906
11.4700,-0.9829,-0.0513,0.2906
11.4870,-0.9668,-0.0511,0.2771
11.4870,-0.9668,-0.0511,0.2771
11.4870,-0.9668,-0.0511,0.2771
11.5040,-0.9656,-0.0569,0.2586
11.5050,-0.9656,-0.0569,0.2586
11.5050,-0.9656,-0.0569,0.2586
11.5140,-0.9656,-0.0569,0.2586
11.5260,-0.9802,-0.0582,0.2500
11.5260,-0.9802,-0.0582,0.2500
11.5260,-0.9802,-0.0582,0.2500
11.5310,-0.9802,-0.0582,0.2500
11.5320,-0.9802,-0.0582,0.2500
11.5470,-0.9827,-0.0579,0.2610
11.5470,-0.9827,-0.0579,0.2610
11.5480,-0.9827,-0.0579,0.2610
11.5670,-0.9832,-0.0491,0.2774
11.5680,-0.9832,-0.0491,0.2774
11.5680,-0.9832,-0.0491,0.2774
11.5880,-0.9827,-0.0376,0.2788
11.5880,-0.9827,-0.0376,0.2788
11.5890,-0.9827,-0.0376,0.2788
11.6060,-0.9600,-0.0384,0.2561
11.6060,-0.9600,-0.0384,0.2561
11.6070,-0.9600,-0.0384,0.2561
11.6100,-0.9600,-0.0384,0.2561
11.6100,-0.9600,-0.0384,0.2561
11.6290,-0.9570,-0.0523,0.2617
11.6290,-0.9570,-0.0523,0.2617
11.6290,-0.9570,-0.0523,0.2617
11.6490,-0.9710,-0.0538,0.2906
11.6490,-0.9710,-0.0538,0.2906
11.6500,-0.9710,-0.0538,0.2906
11.6510,-0.9710,-0.0538,0.2906
11.6680,-0.9763,-0.0447,0.2757
11.6680,-0.9763,-0.0447,0.2757
11.6690,-0.9763,-0.0447,0.2757
11.6870,-0.9861,-0.0623,0.2832
11.6870,-0.9861,-0.0623,0.2832
11.6880,-0.9861,-0.0623,0.2832
11.6880,-0.9861,-0.0623,0.2832
11.6880,-0.9861,-0.0623,0.2832
11.7060,-0.9736,-0.0692,0.2784
11.7060,-0.9736,-0.0692,0.2784
11.7060,-0.9736,-0.0692,0.2784
11.7270,-0.9458,-0.0604,0.2676
11.7280,-0.9458,-0.0604,0.2676
11.7280,-0.9458,-0.0604,0.2676
11.7480,-0.9798,-0.0569,0.2681
11.7480,-0.9798,-0.0569,0.2681
11.7480,-0.9798,-0.0569,0.2681
11.7690,-0.9649,-0.0704,0.2735
11.7690,-0.9649,-0.0704,0.2735
11.7690,-0.9649,-0.0704,0.2735
11.7690,-0.9649,-0.0704,0.2735
11.7690,-0.9649,-0.0704,0.2735
11.7860,-0.9441,-0.0846,0.2715
11.7870,-0.9441,-0.0846,0.2715
11.7870,-0.9441,-0.0846,0.2715
11.8040,-0.9536,-0.0587,0.2847
11.8050,-0.9536,-0.0587,0.2847
11.8050,-0.9536,-0.0587,0.2847
11.8220,-0.9934,-0.0169,0.2796
11.8710,-0.9934,-0.0169,0.2796
11.8710,-0.9934,-0.0169,0.2796
11.8710,-1.0022,-0.0345,0.2608
11.8710,-1.0022,-0.0345,0.2608
11.8710,-1.0022,-0.0345,0.2608
11.8710,-1.0022,-0.0345,0.2608
11.8710,-1.0022,-0.0345,0.2608
11.8720,-1.0022,-0.0345,0.2608
11.8720,-0.9673,-0.0748,0.2632
11.8720,-0.9673,-0.0748,0.2632
11.8720,-0.9673,-0.0748,0.2632
11.8830,-0.9194,-0.0533,0.2647
11.8830,-0.9194,-0.0533,0.2647
11.8830,-0.9194,-0.0533,0.2647
11.9040,-0.9414,-0.0166,0.2632
11.9040,-0.9414,-0.0166,0.2632
11.9040,-0.9414,-0.0166,0.2632
11.9110,-0.9414,-0.0166,0.2632
11.9260,-1.0025,-0.0237,0.2639
11.9260,-1.0025,-0.0237,0.2639
11.9260,-1.0025,-0.0237,0.2639
11.9260,-1.0025,-0.0237,0.2639
11.9270,-1.0025,-0.0237,0.2639
11.9430,-1.0059,-0.0587,0.2525
11.9430,-1.0059,-0.0587,0.2525
11.9430,-1.0059,-0.0587,0.2525
11.9630,-0.9644,-0.0733,0.2405
11.9630,-0.9644,-0.0733,0.2405
11.9630,-0.9644,-0.0733,0.2405
11.9840,-0.9458,-0.0567,0.2451
11.9850,-0.9458,-0.0567,0.2451
11.9850,-0.9458,-0.0567,0.2451
12.0030,-0.9284,-0.0447,0.2542
12.0030,-0.9284,-0.0447,0.2542
12.0040,-0.9284,-0.0447,0.2542
12.0060,-0.9284,-0.0447,0.2542
12.0060,-0.9284,-0.0447,0.2542
12.0220,-0.9179,-0.0474,0.2774
12.0220,-0.9179,-0.0474,0.2774
12.0220,-0.9179,-0.0474,0.2774
12.0440,-0.9585,-0.0340,0.2938
12.0440,-0.9585,-0.0340,0.2938
12.0440,-0.9585,-0.0340,0.2938
12.0500,-0.9585,-0.0340,0.2938
12.0640,-0.9890,-0.0340,0.3106
12.0640,-0.9890,-0.0340,0.3106
12.0650,-0.9890,-0.0340,0.3106
12.0860,-0.9849,-0.0621,0.2859
12.0860,-0.9849,-0.0621,0.2859
12.0860,-0.9849,-0.0621,0.2859
12.0870,-0.9849,-0.0621,0.2859
12.0870,-0.9849,-0.0621,0.2859
12.1050,-0.9605,-0.0868,0.2505
12.1050,-0.9605,-0.0868,0.2505
12.1050,-0.9605,-0.0868,0.2505
12.1110,-0.9605,-0.0868,0.2505
12.1240,-0.9717,-0.0572,0.2525
12.1250,-0.9717,-0.0572,0.2525
12.1250,-0.9717,-0.0572,0.2525
12.1430,-0.9802,-0.0266,0.2424
12.1430,-0.9802,-0.0266,0.2424
12.1430,-0.9802,-0.0266,0.2424
12.1640,-0.9741,-0.0474,0.2351
12.1640,-0.9741,-0.0474,0.2351
12.1640,-0.9741,-0.0474,0.2351
12.1670,-0.9741,-0.0474,0.2351
12.1670,-0.9741,-0.0474,0.2351
12.1850,-0.9561,-0.0946,0.2500
12.1850,-0.9561,-0.0946,0.2500
12.1860,-0.9561,-0.0946,0.2500
12.2050,-0.9448,-0.0826,0.2605
12.2050,-0.9448,-0.0826,0.2605
12.2050,-0.9448,-0.0826,0.2605
12.2250,-0.9602,-0.0367,0.2703
12.2260,-0.9602,-0.0367,0.2703
12.2260,-0.9602,-0.0367,0.2703
12.2440,-0.9702,-0.0462,0.2879
12.2440,-0.9702,-0.0462,0.2879
12.2450,-0.9702,-0.0462,0.2879
12.2450,-0.9702,-0.0462,0.2879
12.2450,-0.9702,-0.0462,0.2879
12.2510,-0.9702,-0.0462,0.2879
12.2630,-1.0091,-0.0897,0.2969
12.2630,-1.0091,-0.0897,0.2969
12.2630,-1.0091,-0.0897,0.2969
12.2820,-0.9734,-0.0951,0.2923
12.2820,-0.9734,-0.0951,0.2923
12.2820,-0.9734,-0.0951,0.2923
12.3030,-0.9851,-0.0445,0.2600
12.3030,-0.9851,-0.0445,0.2600
12.3040,-0.9851,-0.0445,0.2600
12.3220,-1.0154,-0.0335,0.2669
12.3230,-1.0154,-0.0335,0.2669
12.3230,-1.0154,-0.0335,0.2669
12.3240,-1.0154,-0.0335,0.2669
12.3240,-1.0154,-0.0335,0.2669
12.3430,-0.9873,-0.0753,0.2649
12.3430,-0.9873,-0.0753,0.2649
12.3430,-0.9873,-0.0753,0.2649
12.3610,-0.9504,-0.1014,0.2647
12.4080,-0.9504,-0.1014,0.2647
12.4080,-0.9504,-0.1014,0.2647
12.4080,-0.9316,-0.0716,0.2622
12.4080,-0.9316,-0.0716,0.2622
12.4080,-0.9316,-0.0716,0.2622
12.4080,-0.9636,-0.0354,0.2586
12.4080,-0.9636,-0.0354,0.2586
12.4080,-0.9636,-0.0354,0.2586
12.4090,-0.9636,-0.0354,0.2586
12.4090,-0.9636,-0.0354,0.2586
12.4200,-0.9883,-0.0670,0.2671
12.4200,-0.9883,-0.0670,0.2671
12.4200,-0.9883,-0.0670,0.2671
12.4390,-0.9692,-0.1190,0.2806
12.4390,-0.9692,-0.1190,0.2806
12.4400,-0.9692,-0.1190,0.2806
12.4500,-0.9692,-0.1190,0.2806
12.4610,-0.9397,-0.1190,0.2842
12.4610,-0.9397,-0.1190,0.2842
12.4610,-0.9397,-0.1190,0.2842
12.4800,-0.9497,-0.0890,0.2769
12.4800,-0.9497,-0.0890,0.2769
12.4800,-0.9497,-0.0890,0.2769
12.4830,-0.9497,-0.0890,0.2769
12.4830,-0.9497,-0.0890,0.2769
12.5000,-0.9695,-0.0890,0.2791
12.5010,-0.9695,-0.0890,0.2791
12.5010,-0.9695,-0.0890,0.2791
12.5220,-0.9389,-0.0819,0.2686
12.5220,-0.9389,-0.0819,0.2686
12.5220,-0.9389,-0.0819,0.2686
12.5390,-0.9568,-0.0384,0.2820
12.5400,-0.9568,-0.0384,0.2820
12.5400,-0.9568,-0.0384,0.2820
12.5610,-0.9986,-0.0269,0.2896
12.5610,-0.9986,-0.0269,0.2896
12.5610,-0.9986,-0.0269,0.2896
12.5650,-0.9986,-0.0269,0.2896
12.5650,-0.9986,-0.0269,0.2896
12.5820,-0.9903,-0.0653,0.2823
12.5820,-0.9903,-0.0653,0.2823
12.5820,-0.9903,-0.0653,0.2823
12.5990,-0.9565,-0.1063,0.2434
12.6000,-0.9565,-0.1063,0.2434
12.6000,-0.9565,-0.1063,0.2434
12.6180,-0.9150,-0.1112,0.2429
12.6180,-0.9150,-0.1112,0.2429
12.6180,-0.9150,-0.1112,0.2429
12.6400,-0.9404,-0.0626,0.2686
12.6400,-0.9404,-0.0626,0.2686
12.6400,-0.9404,-0.0626,0.2686
12.6430,-0.9404,-0.0626,0.2686
12.6440,-0.9404,-0.0626,0.2686
12.6460,-0.9404,-0.0626,0.2686
12.6580,-0.9612,-0.0357,0.2854
12.6590,-0.9612,-0.0357,0.2854
12.6590,-0.9612,-0.0357,0.2854
12.6800,-0.9685,-0.0682,0.2847
12.6800,-0.9685,-0.0682,0.2847
12.6800,-0.9685,-0.0682,0.2847
12.6980,-0.9854,-0.1048,0.2850
12.6990,-0.9854,-0.1048,0.2850
12.6990,-0.9854,-0.1048,0.2850
12.7180,-0.9961,-0.1004,0.2757
12.7190,-0.9961,-0.1004,0.2757
12.7190,-0.9961,-0.1004,0.2757
12.7210,-0.9961,-0.1004,0.2757
12.7210,-0.9961,-0.1004,0.2757
12.7390,-0.9837,-0.0738,0.2710
12.7390,-0.9837,-0.0738,0.2710
12.7390,-0.9837,-0.0738,0.2710
12.7590,-0.9653,-0.0645,0.2713
12.7590,-0.9653,-0.0645,0.2713
12.7590,-0.9653,-0.0645,0.2713
12.7770,-0.9575,-0.0699,0.2886
12.7780,-0.9575,-0.0699,0.2886
12.7780,-0.9575,-0.0699,0.2886
12.7980,-0.9636,-0.0748,0.2876
12.7980,-0.9636,-0.0748,0.2876
12.7980,-0.9636,-0.0748,0.2876
12.8000,-0.9636,-0.0748,0.2876
12.8010,-0.9636,-0.0748,0.2876
12.8190,-0.9688,-0.0836,0.2779
12.8190,-0.9688,-0.0836,0.2779
12.8200,-0.9688,-0.0836,0.2779
12.8370,-0.9563,-0.1046,0.2625
12.8380,-0.9563,-0.1046,0.2625
12.8380,-0.9563,-0.1046,0.2625
12.8470,-0.9563,-0.1046,0.2625
12.8560,-0.9727,-0.1056,0.2649
12.8570,-0.9727,-0.1056,0.2649
12.8570,-0.9727,-0.1056,0.2649
12.8770,-0.9815,-0.0836,0.2840
12.8770,-0.9815,-0.0836,0.2840
12.8770,-0.9815,-0.0836,0.2840
12.8800,-0.9815,-0.0836,0.2840
12.8800,-0.9815,-0.0836,0.2840
12.9000,-0.9832,-0.0784,0.2923
12.9000,-0.9832,-0.0784,0.2923
12.9000,-0.9832,-0.0784,0.2923
12.9470,-0.9697,-0.0890,0.2896
12.9470,-0.9697,-0.0890,0.2896
12.9470,-0.9697,-0.0890,0.2896
12.9470,-0.9561,-0.0951,0.2666
12.9470,-0.9561,-0.0951,0.2666
12.9470,-0.9561,-0.0951,0.2666
12.9570,-0.9678,-0.0929,0.2661
12.9570,-0.9678,-0.0929,0.2661
12.9570,-0.9678,-0.0929,0.2661
12.9570,-0.9678,-0.0929,0.2661
12.9570,-0.9678,-0.0929,0.2661
12.9750,-0.9629,-0.0897,0.2854
12.9750,-0.9629,-0.0897,0.2854
12.9750,-0.9629,-0.0897,0.2854
12.9970,-0.9746,-0.0794,0.2923
12.9970,-0.9746,-0.0794,0.2923
12.9970,-0.9746,-0.0794,0.2923
13.0160,-0.9495,-0.0794,0.2935
13.0160,-0.9495,-0.0794,0.2935
13.0160,-0.9495,-0.0794,0.2935
13.0360,-0.9553,-0.0682,0.2635
13.0360,-0.9553,-0.0682,0.2635
13.0360,-0.9553,-0.0682,0.2635
13.0370,-0.9553,-0.0682,0.2635
13.0370,-0.9553,-0.0682,0.2635
13.0430,-0.9553,-0.0682,0.2635
13.0560,-0.9746,-0.0709,0.2605
13.0570,-0.9746,-0.0709,0.2605
13.0570,-0.9746,-0.0709,0.2605
13.0750,-0.9675,-0.1029,0.2818
13.0750,-0.9675,-0.1029,0.2818
13.0760,-0.9675,-0.1029,0.2818
13.0950,-0.9624,-0.1017,0.2810
13.0950,-0.9624,-0.1017,0.2810
13.0950,-0.9624,-0.1017,0.2810
13.1170,-0.9666,-0.0711,0.2723
13.1170,-0.9666,-0.0711,0.2723
13.1170,-0.9666,-0.0711,0.2723
13.1180,-0.9666,-0.0711,0.2723
13.1180,-0.9666,-0.0711,0.2723
13.1360,-0.9573,-0.0596,0.2605
13.1370,-0.9573,-0.0596,0.2605
13.1370,-0.9573,-0.0596,0.2605
13.1560,-0.9387,-0.0892,0.2757
13.1560,-0.9387,-0.0892,0.2757
13.1560,-0.9387,-0.0892,0.2757
13.1750,-0.9609,-0.0982,0.2759
13.1750,-0.9609,-0.0982,0.2759
13.1750,-0.9609,-0.0982,0.2759
13.1950,-0.9673,-0.0772,0.2422
13.1950,-0.9673,-0.0772,0.2422
13.1950,-0.9673,-0.0772,0.2422
13.1960,-0.9673,-0.0772,0.2422
13.1960,-0.9673,-0.0772,0.2422
13.2160,-0.9795,-0.0775,0.2644
13.2160,-0.9795,-0.0775,0.2644
13.2170,-0.9795,-0.0775,0.2644
13.2360,-0.9898,-0.0814,0.2928
13.2360,-0.9898,-0.0814,0.2928
13.2360,-0.9898,-0.0814,0.2928
13.2420,-0.9898,-0.0814,0.2928
13.2560,-0.9756,-0.0755,0.2784
13.2560,-0.9756,-0.0755,0.2784
13.2560,-0.9756,-0.0755,0.2784
13.2740,-0.9541,-0.0745,0.2520
13.2740,-0.9541,-0.0745,0.2520
13.2750,-0.9541,-0.0745,0.2520
13.2750,-0.9541,-0.0745,0.2520
13.2760,-0.9541,-0.0745,0.2520
13.2950,-0.9585,-0.0792,0.2747
13.2950,-0.9585,-0.0792,0.2747
13.2950,-0.9585,-0.0792,0.2747
13.3150,-0.9712,-0.1022,0.2906
13.3150,-0.9712,-0.1022,0.2906
13.3150,-0.9712,-0.1022,0.2906
13.3350,-0.9666,-0.0909,0.2488
13.3350,-0.9666,-0.0909,0.2488
13.3350,-0.9666,-0.0909,0.2488
13.3560,-0.9216,-0.0723,0.2647
13.3560,-0.9216,-0.0723,0.2647
13.3570,-0.9216,-0.0723,0.2647
13.3570,-0.9216,-0.0723,0.2647
13.3570,-0.9216,-0.0723,0.2647
13.3760,-0.9751,-0.0772,0.3043
13.3760,-0.9751,-0.0772,0.3043
13.3760,-0.9751,-0.0772,0.3043
13.3950,-1.0018,-0.0684,0.2977
13.3950,-1.0018,-0.0684,0.2977
13.3960,-1.0018,-0.0684,0.2977
13.4130,-0.9834,-0.0616,0.2517
13.4130,-0.9834,-0.0616,0.2517
13.4140,-0.9834,-0.0616,0.2517
13.4330,-0.9546,-0.0794,0.2600
13.4330,-0.9546,-0.0794,0.2600
13.4340,-0.9546,-0.0794,0.2600
13.4380,-0.9546,-0.0794,0.2600
13.4380,-0.9546,-0.0794,0.2600
13.4410,-0.9546,-0.0794,0.2600
13.4530,-0.9678,-0.0811,0.2769
13.4540,-0.9678,-0.0811,0.2769
13.4970,-0.9678,-0.0811,0.2769
13.4970,-0.9485,-0.0667,0.2705
13.4970,-0.9485,-0.0667,0.2705
13.4980,-0.9485,-0.0667,0.2705
13.4980,-0.9512,-0.0525,0.2591
13.4980,-0.9512,-0.0525,0.2591
13.4980,-0.9512,-0.0525,0.2591
13.5120,-0.9534,-0.0714,0.2779
13.5120,-0.9534,-0.0714,0.2779
13.5120,-0.9534,-0.0714,0.2779
13.5150,-0.9534,-0.0714,0.2779
13.5150,-0.9534,-0.0714,0.2779
13.5320,-0.9477,-0.0858,0.2771
13.5320,-0.9477,-0.0858,0.2771
13.5320,-0.9477,-0.0858,0.2771
13.5510,-0.9519,-0.0736,0.2588
13.5520,-0.9519,-0.0736,0.2588
13.5520,-0.9519,-0.0736,0.2588
13.5720,-0.9595,-0.0706,0.2627
13.5730,-0.9595,-0.0706,0.2627
13.5730,-0.9595,-0.0706,0.2627
13.5930,-0.9497,-0.0775,0.2784
13.5930,-0.9497,-0.0775,0.2784
13.5930,-0.9497,-0.0775,0.2784
13.5940,-0.9497,-0.0775,0.2784
13.5940,-0.9497,-0.0775,0.2784
13.6130,-0.9570,-0.0770,0.2977
13.6130,-0.9570,-0.0770,0.2977
13.6130,-0.9570,-0.0770,0.2977
13.6330,-0.9722,-0.0726,0.2884
13.6330,-0.9722,-0.0726,0.2884
13.6330,-0.9722,-0.0726,0.2884
13.6380,-0.9722,-0.0726,0.2884
13.6540,-0.9600,-0.0904,0.2693
13.6540,-0.9600,-0.0904,0.2693
13.6540,-0.9600,-0.0904,0.2693
13.6720,-0.9600,-0.0978,0.2723
13.6720,-0.9600,-0.0978,0.2723
13.6720,-0.9600,-0.0978,0.2723
13.6730,-0.9600,-0.0978,0.2723
13.6730,-0.9600,-0.0978,0.2723
13.6930,-0.9688,-0.0767,0.2842
13.6930,-0.9688,-0.0767,0.2842
13.6930,-0.9688,-0.0767,0.2842
13.7120,-0.9832,-0.0645,0.2727
13.7130,-0.9832,-0.0645,0.2727
13.7130,-0.9832,-0.0645,0.2727
13.7320,-0.9736,-0.0772,0.2793
13.7320,-0.9736,-0.0772,0.2793
13.7320,-0.9736,-0.0772,0.2793
13.7520,-0.9602,-0.0902,0.2974
13.7520,-0.9602,-0.0902,0.2974
13.7520,-0.9602,-0.0902,0.2974
13.7530,-0.9602,-0.0902,0.2974
13.7530,-0.9602,-0.0902,0.2974
13.7720,-0.9619,-0.0794,0.2928
13.7720,-0.9619,-0.0794,0.2928
13.7720,-0.9619,-0.0794,0.2928
13.7910,-0.9575,-0.0648,0.2847
13.7920,-0.9575,-0.0648,0.2847
13.7920,-0.9575,-0.0648,0.2847
13.8130,-0.9741,-0.0679,0.2803
13.8140,-0.9741,-0.0679,0.2803
13.8140,-0.9741,-0.0679,0.2803
13.8320,-0.9475,-0.1044,0.2854
13.8330,-0.9475,-0.1044,0.2854
13.8330,-0.9475,-0.1044,0.2854
13.8330,-0.9475,-0.1044,0.2854
13.8330,-0.9475,-0.1044,0.2854
13.8340,-0.9475,-0.1044,0.2854
13.8530,-0.9719,-0.1009,0.2784
13.8530,-0.9719,-0.1009,0.2784
13.8540,-0.9719,-0.1009,0.2784
13.8710,-0.9766,-0.0689,0.2784
13.8710,-0.9766,-0.0689,0.2784
13.8710,-0.9766,-0.0689,0.2784
13.8910,-0.9800,-0.0635,0.2864
13.8910,-0.9800,-0.0635,0.2864
13.8910,-0.9800,-0.0635,0.2864
13.9120,-0.9629,-0.0709,0.2796
13.9120,-0.9629,-0.0709,0.2796
13.9120,-0.9629,-0.0709,0.2796
13.9120,-0.9629,-0.0709,0.2796
13.9120,-0.9629,-0.0709,0.2796
13.9310,-0.9524,-0.0804,0.2742
13.9310,-0.9524,-0.0804,0.2742
13.9310,-0.9524,-0.0804,0.2742
13.9520,-0.9372,-0.0787,0.2781
13.9520,-0.9372,-0.0787,0.2781
13.9520,-0.9372,-0.0787,0.2781
13.9710,-0.9658,-0.0567,0.2769
13.9710,-0.9658,-0.0567,0.2769
13.9710,-0.9658,-0.0567,0.2769
13.9910,-0.9837,-0.0687,0.2864
13.9910,-0.9837,-0.0687,0.2864
13.9910,-0.9837,-0.0687,0.2864
13.9920,-0.9837,-0.0687,0.2864
13.9920,-0.9837,-0.0687,0.2864
14.0120,-0.9570,-0.0836,0.2666
14.0120,-0.9570,-0.0836,0.2666
14.0540,-0.9570,-0.0836,0.2666
14.0550,-0.9512,-0.0816,0.2542
14.0550,-0.9512,-0.0816,0.2542
14.0550,-0.9512,-0.0816,0.2542
14.0550,-0.9512,-0.0816,0.2542
14.0550,-0.9671,-0.0850,0.2786
14.0550,-0.9671,-0.0850,0.2786
14.0560,-0.9671,-0.0850,0.2786
14.0690,-0.9629,-0.0902,0.2906
14.0690,-0.9629,-0.0902,0.2906
14.0690,-0.9629,-0.0902,0.2906
14.0710,-0.9629,-0.0902,0.2906
14.0710,-0.9629,-0.0902,0.2906
14.0920,-0.9543,-0.0738,0.2889
14.0920,-0.9543,-0.0738,0.2889
14.0920,-0.9543,-0.0738,0.2889
14.1100,-0.9651,-0.0631,0.2693
14.1100,-0.9651,-0.0631,0.2693
14.1100,-0.9651,-0.0631,0.2693
14.1300,-0.9788,-0.0660,0.2713
14.1300,-0.9788,-0.0660,0.2713
14.1300,-0.9788,-0.0660,0.2713
14.1500,-0.9563,-0.0745,0.2691
14.1510,-0.9563,-0.0745,0.2691
14.1510,-0.9563,-0.0745,0.2691
14.1510,-0.9563,-0.0745,0.2691
14.1510,-0.9563,-0.0745,0.2691
14.1700,-0.9627,-0.0689,0.2674
14.1700,-0.9627,-0.0689,0.2674
14.1700,-0.9627,-0.0689,0.2674
14.1900,-0.9851,-0.0589,0.2718
14.1900,-0.9851,-0.0589,0.2718
14.1910,-0.9851,-0.0589,0.2718
14.2090,-0.9619,-0.0616,0.2818
14.2100,-0.9619,-0.0616,0.2818
14.2100,-0.9619,-0.0616,0.2818
14.2310,-0.9204,-0.0714,0.2757
14.2320,-0.9204,-0.0714,0.2757
14.2320,-0.9204,-0.0714,0.2757
14.2320,-0.9204,-0.0714,0.2757
14.2320,-0.9204,-0.0714,0.2757
14.2320,-0.9204,-0.0714,0.2757
14.2510,-0.9365,-0.0760,0.2740
14.2510,-0.9365,-0.0760,0.2740
14.2510,-0.9365,-0.0760,0.2740
14.2700,-0.9729,-0.0743,0.2906
14.2700,-0.9729,-0.0743,0.2906
14.2700,-0.9729,-0.0743,0.2906
14.2910,-1.0115,-0.1124,0.2806
14.2910,-1.0115,-0.1124,0.2806
14.2910,-1.0115,-0.1124,0.2806
14.2940,-1.0115,-0.1124,0.2806
14.3110,-1.0242,-0.0660,0.3026
14.3110,-1.0242,-0.0660,0.3026
14.3110,-1.0242,-0.0660,0.3026
14.3110,-1.0242,-0.0660,0.3026
14.3120,-1.0242,-0.0660,0.3026
14.3300,-0.9866,-0.0762,0.2940
14.3300,-0.9866,-0.0762,0.2940
14.3310,-0.9866,-0.0762,0.2940
14.3500,-0.9822,-0.0594,0.2803
14.3500,-0.9822,-0.0594,0.2803
14.3510,-0.9822,-0.0594,0.2803
14.3700,-0.9458,-0.0247,0.3072
14.3700,-0.9458,-0.0247,0.3072
14.3700,-0.9458,-0.0247,0.3072
14.3900,-0.9148,-0.0428,0.2622
14.3910,-0.9148,-0.0428,0.2622
14.3910,-0.9148,-0.0428,0.2622
14.3910,-0.9148,-0.0428,0.2622
14.3910,-0.9148,-0.0428,0.2622
14.4100,-0.9262,-0.0850,0.2683
14.4100,-0.9262,-0.0850,0.2683
14.4110,-0.9262,-0.0850,0.2683
14.4310,-0.9827,-0.1083,0.3211
14.4310,-0.9827,-0.1083,0.3211
14.4310,-0.9827,-0.1083,0.3211
14.4320,-0.9827,-0.1083,0.3211
14.4510,-0.9954,-0.0931,0.3351
14.4510,-0.9954,-0.0931,0.3351
14.4510,-0.9954,-0.0931,0.3351
14.4710,-0.9590,-0.0931,0.3096
14.4710,-0.9590,-0.0931,0.3096
14.4710,-0.9590,-0.0931,0.3096
14.4720,-0.9590,-0.0931,0.3096
14.4720,-0.9590,-0.0931,0.3096
14.4900,-0.9321,-0.0601,0.2737
14.4900,-0.9321,-0.0601,0.2737
14.4900,-0.9321,-0.0601,0.2737
14.4930,-0.9321,-0.0601,0.2737
14.5120,-0.9099,-0.0406,0.2581
14.5120,-0.9099,-0.0406,0.2581
14.5130,-0.9099,-0.0406,0.2581
14.5320,-0.9399,-0.0565,0.2854
14.5320,-0.9399,-0.0565,0.2854
14.5320,-0.9399,-0.0565,0.2854
14.5530,-0.9658,-0.0758,0.3233
14.5530,-0.9658,-0.0758,0.3233
14.5530,-0.9658,-0.0758,0.3233
14.5530,-0.9658,-0.0758,0.3233
14.5980,-0.9658,-0.0758,0.3233
14.5980,-0.9680,-0.0670,0.3038
14.5980,-0.9680,-0.0670,0.3038
14.5980,-0.9680,-0.0670,0.3038
14.5980,-0.9695,-0.0655,0.3045
14.5990,-0.9695,-0.0655,0.3045
14.5990,-0.9695,-0.0655,0.3045
14.6090,-0.9509,-0.0699,0.3092
14.6090,-0.9509,-0.0699,0.3092
14.6090,-0.9509,-0.0699,0.3092
14.6290,-0.9590,-0.0587,0.2991
14.6290,-0.9590,-0.0587,0.2991
14.6290,-0.9590,-0.0587,0.2991
14.6290,-0.9590,-0.0587,0.2991
14.6300,-0.9590,-0.0587,0.2991
14.6300,-0.9590,-0.0587,0.2991
14.6450,-0.9565,-0.0499,0.2845
14.6460,-0.9565,-0.0499,0.2845
14.6460,-0.9565,-0.0499,0.2845
14.6660,-0.9578,-0.0501,0.3008
14.6660,-0.9578,-0.0501,0.3008
14.6660,-0.9578,-0.0501,0.3008
14.6860,-0.9600,-0.0467,0.2930
14.6860,-0.9600,-0.0467,0.2930
14.6860,-0.9600,-0.0467,0.2930
14.7050,-0.9377,-0.0437,0.2852
14.7060,-0.9377,-0.0437,0.2852
14.7060,-0.9377,-0.0437,0.2852
14.7070,-0.9377,-0.0437,0.2852
14.7070,-0.9377,-0.0437,0.2852
14.7250,-0.9443,-0.0491,0.2842
14.7260,-0.9443,-0.0491,0.2842
14.7260,-0.9443,-0.0491,0.2842
14.7500,-0.9683,-0.0496,0.3013
14.7500,-0.9683,-0.0496,0.3013
14.7500,-0.9683,-0.0496,0.3013
14.7670,-0.9685,-0.0481,0.3079
14.7670,-0.9685,-0.0481,0.3079
14.7680,-0.9685,-0.0481,0.3079
14.7860,-0.9409,-0.0743,0.2925
14.7860,-0.9409,-0.0743,0.2925
14.7860,-0.9409,-0.0743,0.2925
14.7890,-0.9409,-0.0743,0.2925
14.7890,-0.9409,-0.0743,0.2925
14.8040,-0.9363,-0.0760,0.2815
14.8040,-0.9363,-0.0760,0.2815
14.8040,-0.9363,-0.0760,0.2815
14.8240,-0.9563,-0.0672,0.2925
14.8240,-0.9563,-0.0672,0.2925
14.8250,-0.9563,-0.0672,0.2925
14.8290,-0.9563,-0.0672,0.2925
14.8440,-0.9834,-0.0433,0.2810
14.8450,-0.9834,-0.0433,0.2810
14.8450,-0.9834,-0.0433,0.2810
14.8630,-0.9465,-0.0477,0.2366
14.8630,-0.9465,-0.0477,0.2366
14.8630,-0.9465,-0.0477,0.2366
14.8670,-0.9465,-0.0477,0.2366
14.8670,-0.9465,-0.0477,0.2366
14.8840,-0.9573,-0.0611,0.2419
14.8840,-0.9573,-0.0611,0.2419
14.8840,-0.9573,-0.0611,0.2419
14.9050,-1.0142,-0.0587,0.2749
14.9050,-1.0142,-0.0587,0.2749
14.9050,-1.0142,-0.0587,0.2749
14.9250,-1.0120,-0.0540,0.2906
14.9250,-1.0120,-0.0540,0.2906
14.9250,-1.0120,-0.0540,0.2906
14.9440,-0.9910,-0.0562,0.3143
14.9440,-0.9910,-0.0562,0.3143
14.9440,-0.9910,-0.0562,0.3143
14.9470,-0.9910,-0.0562,0.3143
14.9470,-0.9910,-0.0562,0.3143
14.9620,-0.9463,-0.0670,0.3267
14.9620,-0.9463,-0.0670,0.3267
14.9630,-0.9463,-0.0670,0.3267
14.9830,-0.9402,-0.0599,0.3441
14.9830,-0.9402,-0.0599,0.3441
14.9830,-0.9402,-0.0599,0.3441
15.0020,-0.9651,-0.0540,0.3324
15.0020,-0.9651,-0.0540,0.3324
15.0030,-0.9651,-0.0540,0.3324
