
time,AccelerometerX,AccelerometerY,AccelerometerZ
0.0110,-0.7789,-0.5614,-0.1290
0.0110,-0.7789,-0.5614,-0.1290
0.0120,-0.7789,-0.5614,-0.1290
0.0140,-0.7789,-0.5614,-0.1290
0.0250,-0.7144,-0.5672,-0.1987
0.0250,-0.7144,-0.5672,-0.1987
0.0250,-0.7144,-0.5672,-0.1987
0.0270,-0.7144,-0.5672,-0.1987
0.0270,-0.7144,-0.5672,-0.1987
0.0510,-0.6914,-0.5694,-0.2102
0.0510,-0.6914,-0.5694,-0.2102
0.0510,-0.6914,-0.5694,-0.2102
0.0680,-0.8028,-0.5687,-0.2302
0.0680,-0.8028,-0.5687,-0.2302
0.0680,-0.8028,-0.5687,-0.2302
0.0840,-0.8233,-0.5704,-0.1667
0.0850,-0.8233,-0.5704,-0.1667
0.0850,-0.8233,-0.5704,-0.1667
0.1050,-0.8260,-0.5411,-0.1239
0.1050,-0.8260,-0.5411,-0.1239
0.1050,-0.8260,-0.5411,-0.1239
0.1090,-0.8260,-0.5411,-0.1239
0.1090,-0.8260,-0.5411,-0.1239
0.1250,-0.8153,-0.5262,-0.1420
0.1250,-0.8153,-0.5262,-0.1420
0.1250,-0.8153,-0.5262,-0.1420
0.1450,-0.8009,-0.5425,-0.1510
0.1450,-0.8009,-0.5425,-0.1510
0.1450,-0.8009,-0.5425,-0.1510
0.1660,-0.7950,-0.5518,-0.1818
0.1660,-0.7950,-0.5518,-0.1818
0.1660,-0.7950,-0.5518,-0.1818
0.1850,-0.7830,-0.5641,-0.1855
0.1850,-0.7830,-0.5641,-0.1855
0.1850,-0.7830,-0.5641,-0.1855
0.1890,-0.7830,-0.5641,-0.1855
0.1890,-0.7830,-0.5641,-0.1855
0.2050,-0.7970,-0.5570,-0.1870
0.2050,-0.7970,-0.5570,-0.1870
0.2050,-0.7970,-0.5570,-0.1870
0.2130,-0.7970,-0.5570,-0.1870
0.2250,-0.7767,-0.5528,-0.1970
0.2250,-0.7767,-0.5528,-0.1970
0.2250,-0.7767,-0.5528,-0.1970
0.2440,-0.7554,-0.5572,-0.1950
0.2440,-0.7554,-0.5572,-0.1950
0.2450,-0.7554,-0.5572,-0.1950
0.2650,-0.7698,-0.5560,-0.1992
0.2650,-0.7698,-0.5560,-0.1992
0.2650,-0.7698,-0.5560,-0.1992
0.2670,-0.7698,-0.5560,-0.1992
0.2670,-0.7698,-0.5560,-0.1992
0.2840,-0.8026,-0.5386,-0.1733
0.2850,-0.8026,-0.5386,-0.1733
0.2850,-0.8026,-0.5386,-0.1733
0.3040,-0.8224,-0.5281,-0.1791
0.3040,-0.8224,-0.5281,-0.1791
0.3040,-0.8224,-0.5281,-0.1791
0.3240,-0.8321,-0.5521,-0.1662
0.3240,-0.8321,-0.5521,-0.1662
0.3240,-0.8321,-0.5521,-0.1662
0.3430,-0.8194,-0.5675,-0.1413
0.3440,-0.8194,-0.5675,-0.1413
0.3440,-0.8194,-0.5675,-0.1413
0.3460,-0.8194,-0.5675,-0.1413
0.3460,-0.8194,-0.5675,-0.1413
0.3630,-0.7813,-0.5623,-0.1469
0.3630,-0.7813,-0.5623,-0.1469
0.3630,-0.7813,-0.5623,-0.1469
0.3830,-0.7855,-0.5582,-0.1840
0.3830,-0.7855,-0.5582,-0.1840
0.3830,-0.7855,-0.5582,-0.1840
0.4030,-0.8033,-0.5582,-0.1845
0.4040,-0.8033,-0.5582,-0.1845
0.4040,-0.8033,-0.5582,-0.1845
0.4110,-0.8033,-0.5582,-0.1845
0.4240,-0.7930,-0.5685,-0.1894
0.4240,-0.7930,-0.5685,-0.1894
0.4250,-0.7930,-0.5685,-0.1894
0.4260,-0.7930,-0.5685,-0.1894
0.4270,-0.7930,-0.5685,-0.1894
0.4430,-0.7872,-0.5826,-0.1828
0.4440,-0.7872,-0.5826,-0.1828
0.4440,-0.7872,-0.5826,-0.1828
0.4640,-0.7891,-0.5685,-0.1918
0.4640,-0.7891,-0.5685,-0.1918
0.4640,-0.7891,-0.5685,-0.1918
0.4830,-0.8033,-0.5479,-0.1755
0.4830,-0.8033,-0.5479,-0.1755
0.4830,-0.8033,-0.5479,-0.1755
0.5030,-0.8109,-0.5391,-0.1601
0.5040,-0.8109,-0.5391,-0.1601
0.5040,-0.8109,-0.5391,-0.1601
0.5050,-0.8109,-0.5391,-0.1601
0.5050,-0.8109,-0.5391,-0.1601
0.5230,-0.7967,-0.5521,-0.1650
0.5230,-0.7967,-0.5521,-0.1650
0.5230,-0.7967,-0.5521,-0.1650
0.5420,-0.8006,-0.5548,-0.1813
0.5430,-0.8006,-0.5548,-0.1813
0.5430,-0.8006,-0.5548,-0.1813
0.5610,-0.8075,-0.5482,-0.1769
0.5620,-0.8075,-0.5482,-0.1769
0.5620,-0.8075,-0.5482,-0.1769
0.5820,-0.8021,-0.5535,-0.1884
0.5820,-0.8021,-0.5535,-0.1884
0.5830,-0.8021,-0.5535,-0.1884
0.5850,-0.8021,-0.5535,-0.1884
0.5850,-0.8021,-0.5535,-0.1884
0.6020,-0.7955,-0.5638,-0.2026
0.6020,-0.7955,-0.5638,-0.2026
0.6020,-0.7955,-0.5638,-0.2026
0.6090,-0.7955,-0.5638,-0.2026
0.6230,-0.7882,-0.5575,-0.1833
0.6240,-0.7882,-0.5575,-0.1833
0.6240,-0.7882,-0.5575,-0.1833
0.6420,-0.7889,-0.5403,-0.1730
0.6420,-0.7889,-0.5403,-0.1730
0.6560,-0.7889,-0.5403,-0.1730
0.6620,-0.7867,-0.5550,-0.1747
0.6620,-0.7867,-0.5550,-0.1747
0.6620,-0.7867,-0.5550,-0.1747
0.6640,-0.7867,-0.5550,-0.1747
0.6640,-0.7867,-0.5550,-0.1747
0.6810,-0.7796,-0.5680,-0.1870
0.6820,-0.7796,-0.5680,-0.1870
0.6820,-0.7796,-0.5680,-0.1870
0.7010,-0.7972,-0.5614,-0.1545
0.7010,-0.7972,-0.5614,-0.1545
0.7020,-0.7972,-0.5614,-0.1545
0.7210,-0.8138,-0.5479,-0.1459
0.7210,-0.8138,-0.5479,-0.1459
0.7210,-0.8138,-0.5479,-0.1459
0.7410,-0.7571,-0.5545,-0.1691
0.7420,-0.7571,-0.5545,-0.1691
0.7420,-0.7571,-0.5545,-0.1691
0.7430,-0.7571,-0.5545,-0.1691
0.7440,-0.7571,-0.5545,-0.1691
0.7610,-0.7838,-0.5513,-0.1862
0.7610,-0.7838,-0.5513,-0.1862
0.7620,-0.7838,-0.5513,-0.1862
0.7810,-0.7952,-0.5450,-0.1711
0.7810,-0.7952,-0.5450,-0.1711
0.7820,-0.7952,-0.5450,-0.1711
0.8010,-0.7630,-0.5411,-0.1659
0.8010,-0.7630,-0.5411,-0.1659
0.8010,-0.7630,-0.5411,-0.1659
0.8080,-0.7630,-0.5411,-0.1659
0.8210,-0.7884,-0.5513,-0.1769
0.8210,-0.7884,-0.5513,-0.1769
0.8210,-0.7884,-0.5513,-0.1769
0.8230,-0.7884,-0.5513,-0.1769
0.8240,-0.7884,-0.5513,-0.1769
0.8400,-0.7835,-0.5555,-0.1911
0.8400,-0.7835,-0.5555,-0.1911
0.8400,-0.7835,-0.5555,-0.1911
0.8600,-0.7857,-0.5303,-0.1896
0.8620,-0.7857,-0.5303,-0.1896
0.8620,-0.7857,-0.5303,-0.1896
0.8810,-0.8092,-0.5252,-0.1652
0.8810,-0.8092,-0.5252,-0.1652
0.8810,-0.8092,-0.5252,-0.1652
0.9010,-0.8109,-0.5435,-0.1562
0.9010,-0.8109,-0.5435,-0.1562
0.9010,-0.8109,-0.5435,-0.1562
0.9030,-0.8109,-0.5435,-0.1562
0.9030,-0.8109,-0.5435,-0.1562
0.9210,-0.8011,-0.5518,-0.1571
0.9210,-0.8011,-0.5518,-0.1571
0.9210,-0.8011,-0.5518,-0.1571
0.9440,-0.7999,-0.5511,-0.1779
0.9440,-0.7999,-0.5511,-0.1779
0.9450,-0.7999,-0.5511,-0.1779
0.9630,-0.7901,-0.5548,-0.2075
0.9630,-0.7901,-0.5548,-0.2075
0.9630,-0.7901,-0.5548,-0.2075
0.9810,-0.7896,-0.5648,-0.1835
0.9810,-0.7896,-0.5648,-0.1835
0.9820,-0.7896,-0.5648,-0.1835
0.9830,-0.7896,-0.5648,-0.1835
0.9830,-0.7896,-0.5648,-0.1835
1.0030,-0.8121,-0.5487,-0.1571
1.0030,-0.8121,-0.5487,-0.1571
1.0030,-0.8121,-0.5487,-0.1571
1.0060,-0.8121,-0.5487,-0.1571
1.0230,-0.8199,-0.5330,-0.1513
1.0230,-0.8199,-0.5330,-0.1513
1.0230,-0.8199,-0.5330,-0.1513
1.0270,-0.8199,-0.5330,-0.1513
1.0420,-0.8014,-0.5452,-0.1696
1.0420,-0.8014,-0.5452,-0.1696
1.0420,-0.8014,-0.5452,-0.1696
1.0610,-0.8006,-0.5711,-0.1662
1.0620,-0.8006,-0.5711,-0.1662
1.0630,-0.8006,-0.5711,-0.1662
1.0630,-0.8006,-0.5711,-0.1662
1.0630,-0.8006,-0.5711,-0.1662
1.0830,-0.7762,-0.5663,-0.1635
1.0830,-0.7762,-0.5663,-0.1635
1.0830,-0.7762,-0.5663,-0.1635
1.1020,-0.7828,-0.5523,-0.1960
1.1030,-0.7828,-0.5523,-0.1960
1.1030,-0.7828,-0.5523,-0.1960
1.1200,-0.8175,-0.5548,-0.1960
1.1200,-0.8175,-0.5548,-0.1960
1.1200,-0.8175,-0.5548,-0.1960
1.1400,-0.8270,-0.5565,-0.1628
1.1410,-0.8270,-0.5565,-0.1628
1.1410,-0.8270,-0.5565,-0.1628
1.1420,-0.8270,-0.5565,-0.1628
1.1420,-0.8270,-0.5565,-0.1628
1.1600,-0.7889,-0.5472,-0.1611
1.1600,-0.7889,-0.5472,-0.1611
1.1600,-0.7889,-0.5472,-0.1611
1.1830,-0.7816,-0.5425,-0.1745
1.1830,-0.7816,-0.5425,-0.1745
1.1840,-0.7816,-0.5425,-0.1745
1.2030,-0.8006,-0.5433,-0.1603
1.2400,-0.8006,-0.5433,-0.1603
1.2410,-0.8006,-0.5433,-0.1603
1.2410,-0.8006,-0.5433,-0.1603
1.2410,-0.7945,-0.5396,-0.1681
1.2410,-0.7945,-0.5396,-0.1681
1.2420,-0.7945,-0.5396,-0.1681
1.2420,-0.7945,-0.5396,-0.1681
1.2420,-0.7945,-0.5396,-0.1681
1.2420,-0.8124,-0.5499,-0.1696
1.2420,-0.8124,-0.5499,-0.1696
1.2420,-0.8124,-0.5499,-0.1696
1.2620,-0.8224,-0.5528,-0.1852
1.2620,-0.8224,-0.5528,-0.1852
1.2630,-0.8224,-0.5528,-0.1852
1.2820,-0.7926,-0.5626,-0.1786
1.2820,-0.7926,-0.5626,-0.1786
1.2820,-0.7926,-0.5626,-0.1786
1.3040,-0.7894,-0.5511,-0.1725
1.3040,-0.7894,-0.5511,-0.1725
1.3040,-0.7894,-0.5511,-0.1725
1.3050,-0.7894,-0.5511,-0.1725
1.3050,-0.7894,-0.5511,-0.1725
1.3180,-0.7667,-0.5347,-0.1708
1.3180,-0.7667,-0.5347,-0.1708
1.3190,-0.7667,-0.5347,-0.1708
1.3380,-0.7627,-0.5313,-0.1615
1.3380,-0.7627,-0.5313,-0.1615
1.3390,-0.7627,-0.5313,-0.1615
1.3590,-0.8102,-0.5377,-0.1466
1.3600,-0.8102,-0.5377,-0.1466
1.3610,-0.8102,-0.5377,-0.1466
1.3820,-0.7974,-0.5445,-0.1461
1.3820,-0.7974,-0.5445,-0.1461
1.3830,-0.7974,-0.5445,-0.1461
1.3830,-0.7974,-0.5445,-0.1461
1.3830,-0.7974,-0.5445,-0.1461
1.4000,-0.7752,-0.5538,-0.1466
1.4000,-0.7752,-0.5538,-0.1466
1.4000,-0.7752,-0.5538,-0.1466
1.4030,-0.7752,-0.5538,-0.1466
1.4180,-0.8082,-0.5408,-0.1706
1.4180,-0.8082,-0.5408,-0.1706
1.4180,-0.8082,-0.5408,-0.1706
1.4380,-0.7935,-0.5408,-0.1689
1.4380,-0.7935,-0.5408,-0.1689
1.4390,-0.7935,-0.5408,-0.1689
1.4580,-0.7833,-0.5372,-0.1662
1.4580,-0.7833,-0.5372,-0.1662
1.4580,-0.7833,-0.5372,-0.1662
1.4590,-0.7833,-0.5372,-0.1662
1.4600,-0.7833,-0.5372,-0.1662
1.4820,-0.8023,-0.5323,-0.1850
1.4820,-0.8023,-0.5323,-0.1850
1.4820,-0.8023,-0.5323,-0.1850
1.5010,-0.8211,-0.5428,-0.1928
1.5010,-0.8211,-0.5428,-0.1928
1.5010,-0.8211,-0.5428,-0.1928
1.5180,-0.8084,-0.5601,-0.1806
1.5180,-0.8084,-0.5601,-0.1806
1.5190,-0.8084,-0.5601,-0.1806
1.5400,-0.7965,-0.5521,-0.1725
1.5410,-0.7965,-0.5521,-0.1725
1.5410,-0.7965,-0.5521,-0.1725
1.5420,-0.7965,-0.5521,-0.1725
1.5450,-0.7965,-0.5521,-0.1725
1.5610,-0.8190,-0.5230,-0.1708
1.5610,-0.8190,-0.5230,-0.1708
1.5620,-0.8190,-0.5230,-0.1708
1.5790,-0.8336,-0.5196,-0.1574
1.5800,-0.8336,-0.5196,-0.1574
1.5840,-0.8336,-0.5196,-0.1574
1.6000,-0.8326,-0.5509,-0.1454
1.6020,-0.8326,-0.5509,-0.1454
1.6060,-0.8326,-0.5509,-0.1454
1.6080,-0.8326,-0.5509,-0.1454
1.6240,-0.7918,-0.5753,-0.1806
1.6250,-0.7918,-0.5753,-0.1806
1.6270,-0.7918,-0.5753,-0.1806
1.6280,-0.7918,-0.5753,-0.1806
1.6290,-0.7918,-0.5753,-0.1806
1.6420,-0.7820,-0.5685,-0.1799
1.6450,-0.7820,-0.5685,-0.1799
1.6460,-0.7820,-0.5685,-0.1799
1.6610,-0.8400,-0.5389,-0.1461
1.6620,-0.8400,-0.5389,-0.1461
1.6620,-0.8400,-0.5389,-0.1461
1.6810,-0.8229,-0.5306,-0.1703
1.6820,-0.8229,-0.5306,-0.1703
1.6820,-0.8229,-0.5306,-0.1703
1.7020,-0.7784,-0.5570,-0.1750
1.7060,-0.7784,-0.5570,-0.1750
1.7060,-0.7784,-0.5570,-0.1750
1.7070,-0.7784,-0.5570,-0.1750
1.7070,-0.7784,-0.5570,-0.1750
1.7190,-0.7654,-0.5548,-0.1659
1.7190,-0.7654,-0.5548,-0.1659
1.7200,-0.7654,-0.5548,-0.1659
1.7380,-0.7691,-0.5428,-0.1725
1.7390,-0.7691,-0.5428,-0.1725
1.7390,-0.7691,-0.5428,-0.1725
1.8430,-0.8155,-0.5445,-0.1589
1.8430,-0.8155,-0.5445,-0.1589
1.8430,-0.8155,-0.5445,-0.1589
1.8430,-0.8295,-0.5423,-0.1488
1.8440,-0.8295,-0.5423,-0.1488
1.8440,-0.8295,-0.5423,-0.1488
1.8460,-0.8295,-0.5423,-0.1488
1.8460,-0.8295,-0.5423,-0.1488
1.8460,-0.7972,-0.5357,-0.1667
1.8470,-0.7972,-0.5357,-0.1667
1.8470,-0.7972,-0.5357,-0.1667
1.8470,-0.7972,-0.5357,-0.1667
1.8470,-0.7845,-0.5359,-0.1940
1.8470,-0.7845,-0.5359,-0.1940
1.8480,-0.7845,-0.5359,-0.1940
1.8480,-0.8180,-0.5391,-0.1855
1.8480,-0.8180,-0.5391,-0.1855
1.8480,-0.8180,-0.5391,-0.1855
1.8550,-0.8119,-0.5389,-0.1718
1.8550,-0.8119,-0.5389,-0.1718
1.8560,-0.8119,-0.5389,-0.1718
1.8580,-0.8119,-0.5389,-0.1718
1.8580,-0.8119,-0.5389,-0.1718
1.8750,-0.7899,-0.5325,-0.1721
1.8750,-0.7899,-0.5325,-0.1721
1.8750,-0.7899,-0.5325,-0.1721
1.8940,-0.7850,-0.5435,-0.1659
1.8950,-0.7850,-0.5435,-0.1659
1.8950,-0.7850,-0.5435,-0.1659
1.9150,-0.7930,-0.5452,-0.1439
1.9150,-0.7930,-0.5452,-0.1439
1.9160,-0.7930,-0.5452,-0.1439
1.9350,-0.7955,-0.5445,-0.1437
1.9350,-0.7955,-0.5445,-0.1437
1.9360,-0.7955,-0.5445,-0.1437
1.9570,-0.7955,-0.5445,-0.1437
1.9580,-0.7955,-0.5445,-0.1437
1.9580,-0.7754,-0.5450,-0.1713
1.9580,-0.7754,-0.5450,-0.1713
1.9590,-0.7754,-0.5450,-0.1713
1.9730,-0.7769,-0.5579,-0.1769
1.9740,-0.7769,-0.5579,-0.1769
1.9740,-0.7769,-0.5579,-0.1769
1.9940,-0.8175,-0.5611,-0.1567
1.9950,-0.8175,-0.5611,-0.1567
1.9950,-0.8175,-0.5611,-0.1567
2.0000,-0.8175,-0.5611,-0.1567
2.0140,-0.7935,-0.5482,-0.1525
2.0150,-0.7935,-0.5482,-0.1525
2.0150,-0.7935,-0.5482,-0.1525
2.0160,-0.7935,-0.5482,-0.1525
2.0160,-0.7935,-0.5482,-0.1525
2.0370,-0.7698,-0.5513,-0.1677
2.0380,-0.7698,-0.5513,-0.1677
2.0380,-0.7698,-0.5513,-0.1677
2.0540,-0.7561,-0.5721,-0.1830
2.0550,-0.7561,-0.5721,-0.1830
2.0550,-0.7561,-0.5721,-0.1830
2.0730,-0.7952,-0.5553,-0.1672
2.0730,-0.7952,-0.5553,-0.1672
2.0740,-0.7952,-0.5553,-0.1672
2.0940,-0.8439,-0.5367,-0.1422
2.0940,-0.8439,-0.5367,-0.1422
2.0960,-0.8439,-0.5367,-0.1422
2.0960,-0.8439,-0.5367,-0.1422
2.0970,-0.8439,-0.5367,-0.1422
2.1150,-0.8307,-0.5357,-0.1515
2.1150,-0.8307,-0.5357,-0.1515
2.1150,-0.8307,-0.5357,-0.1515
2.1340,-0.7970,-0.5491,-0.1559
2.1340,-0.7970,-0.5491,-0.1559
2.1350,-0.7970,-0.5491,-0.1559
2.1540,-0.8265,-0.5403,-0.1603
2.1540,-0.8265,-0.5403,-0.1603
2.1550,-0.8265,-0.5403,-0.1603
2.1740,-0.8302,-0.5340,-0.2160
2.1750,-0.8302,-0.5340,-0.2160
2.1750,-0.8302,-0.5340,-0.2160
2.1760,-0.8302,-0.5340,-0.2160
2.1760,-0.8302,-0.5340,-0.2160
2.1950,-0.8307,-0.5609,-0.2138
2.1960,-0.8307,-0.5609,-0.2138
2.1960,-0.8307,-0.5609,-0.2138
2.1980,-0.8307,-0.5609,-0.2138
2.2150,-0.8439,-0.5523,-0.1564
2.2160,-0.8439,-0.5523,-0.1564
2.2170,-0.8439,-0.5523,-0.1564
2.2360,-0.8199,-0.5208,-0.1442
2.2360,-0.8199,-0.5208,-0.1442
2.2370,-0.8199,-0.5208,-0.1442
2.2560,-0.7864,-0.5201,-0.1623
2.2560,-0.7864,-0.5201,-0.1623
2.2570,-0.7864,-0.5201,-0.1623
2.2570,-0.7864,-0.5201,-0.1623
2.2580,-0.7864,-0.5201,-0.1623
2.2760,-0.7549,-0.5523,-0.1796
2.2770,-0.7549,-0.5523,-0.1796
2.2770,-0.7549,-0.5523,-0.1796
2.2960,-0.7444,-0.5711,-0.1496
2.2960,-0.7444,-0.5711,-0.1496
2.3740,-0.7444,-0.5711,-0.1496
2.3750,-0.7921,-0.5403,-0.1486
2.3750,-0.7921,-0.5403,-0.1486
2.3750,-0.7921,-0.5403,-0.1486
2.3750,-0.8124,-0.5289,-0.1606
2.3750,-0.8124,-0.5289,-0.1606
2.3750,-0.8124,-0.5289,-0.1606
2.3760,-0.8124,-0.5289,-0.1606
2.3760,-0.8124,-0.5289,-0.1606
2.3760,-0.8182,-0.5560,-0.1359
2.3760,-0.8182,-0.5560,-0.1359
2.3760,-0.8182,-0.5560,-0.1359
2.3760,-0.8488,-0.5538,-0.1117
2.3770,-0.8488,-0.5538,-0.1117
2.3770,-0.8488,-0.5538,-0.1117
2.3940,-0.8321,-0.5384,-0.1530
2.3940,-0.8321,-0.5384,-0.1530
2.3940,-0.8321,-0.5384,-0.1530
2.3980,-0.8321,-0.5384,-0.1530
2.4130,-0.7723,-0.5465,-0.2055
2.4130,-0.7723,-0.5465,-0.2055
2.4130,-0.7723,-0.5465,-0.2055
2.4130,-0.7723,-0.5465,-0.2055
2.4140,-0.7723,-0.5465,-0.2055
2.4340,-0.7718,-0.5567,-0.1914
2.4340,-0.7718,-0.5567,-0.1914
2.4340,-0.7718,-0.5567,-0.1914
2.4530,-0.7921,-0.5465,-0.1625
2.4530,-0.7921,-0.5465,-0.1625
2.4540,-0.7921,-0.5465,-0.1625
2.4720,-0.7820,-0.5391,-0.1750
2.4730,-0.7820,-0.5391,-0.1750
2.4740,-0.7820,-0.5391,-0.1750
2.4940,-0.7747,-0.5403,-0.2014
2.4950,-0.7747,-0.5403,-0.2014
2.4950,-0.7747,-0.5403,-0.2014
2.4960,-0.7747,-0.5403,-0.2014
2.4960,-0.7747,-0.5403,-0.2014
2.5130,-0.7967,-0.5587,-0.1452
2.5140,-0.7967,-0.5587,-0.1452
2.5150,-0.7967,-0.5587,-0.1452
2.5340,-0.8104,-0.5440,-0.1154
2.5350,-0.8104,-0.5440,-0.1154
2.5360,-0.8104,-0.5440,-0.1154
2.5530,-0.7772,-0.5306,-0.1329
2.5530,-0.7772,-0.5306,-0.1329
2.5540,-0.7772,-0.5306,-0.1329
2.5730,-0.7943,-0.5489,-0.1752
2.5740,-0.7943,-0.5489,-0.1752
2.5740,-0.7943,-0.5489,-0.1752
2.5750,-0.7943,-0.5489,-0.1752
2.5760,-0.7943,-0.5489,-0.1752
2.5940,-0.8273,-0.5873,-0.1417
2.5950,-0.8273,-0.5873,-0.1417
2.5950,-0.8273,-0.5873,-0.1417
2.5970,-0.8273,-0.5873,-0.1417
2.6130,-0.7896,-0.5790,-0.1425
2.6140,-0.7896,-0.5790,-0.1425
2.6150,-0.7896,-0.5790,-0.1425
2.6310,-0.7684,-0.5352,-0.1764
2.6310,-0.7684,-0.5352,-0.1764
2.6310,-0.7684,-0.5352,-0.1764
2.6500,-0.7945,-0.5335,-0.1845
2.6500,-0.7945,-0.5335,-0.1845
2.6500,-0.7945,-0.5335,-0.1845
2.6520,-0.7945,-0.5335,-0.1845
2.6520,-0.7945,-0.5335,-0.1845
2.6710,-0.8197,-0.5619,-0.1501
2.6710,-0.8197,-0.5619,-0.1501
2.6710,-0.8197,-0.5619,-0.1501
2.6900,-0.7926,-0.5601,-0.1366
2.6900,-0.7926,-0.5601,-0.1366
2.6910,-0.7926,-0.5601,-0.1366
2.7090,-0.7825,-0.5386,-0.1452
2.7100,-0.7825,-0.5386,-0.1452
2.7100,-0.7825,-0.5386,-0.1452
2.7300,-0.7965,-0.5357,-0.1706
2.7300,-0.7965,-0.5357,-0.1706
2.7310,-0.7965,-0.5357,-0.1706
2.7320,-0.7965,-0.5357,-0.1706
2.7320,-0.7965,-0.5357,-0.1706
2.7510,-0.8084,-0.5587,-0.1515
2.7510,-0.8084,-0.5587,-0.1515
2.7510,-0.8084,-0.5587,-0.1515
2.7710,-0.8422,-0.5555,-0.1317
2.7710,-0.8422,-0.5555,-0.1317
2.7720,-0.8422,-0.5555,-0.1317
2.7910,-0.8478,-0.5364,-0.1642
2.7920,-0.8478,-0.5364,-0.1642
2.7920,-0.8478,-0.5364,-0.1642
2.7970,-0.8478,-0.5364,-0.1642
2.8170,-0.8277,-0.5447,-0.1945
2.8180,-0.8277,-0.5447,-0.1945
2.8190,-0.8277,-0.5447,-0.1945
2.8200,-0.8277,-0.5447,-0.1945
2.8200,-0.8277,-0.5447,-0.1945
2.8210,-0.8277,-0.5447,-0.1945
2.8310,-0.8001,-0.5736,-0.1813
2.8310,-0.8001,-0.5736,-0.1813
2.8320,-0.8001,-0.5736,-0.1813
2.9120,-0.7911,-0.5663,-0.1459
2.9120,-0.7911,-0.5663,-0.1459
2.9120,-0.7911,-0.5663,-0.1459
2.9130,-0.7635,-0.5408,-0.1645
2.9130,-0.7635,-0.5408,-0.1645
2.9130,-0.7635,-0.5408,-0.1645
2.9130,-0.7698,-0.5435,-0.1537
2.9130,-0.7698,-0.5435,-0.1537
2.9140,-0.7698,-0.5435,-0.1537
2.9140,-0.7698,-0.5435,-0.1537
2.9140,-0.7698,-0.5435,-0.1537
2.9150,-0.7779,-0.5648,-0.1376
2.9150,-0.7779,-0.5648,-0.1376
2.9150,-0.7779,-0.5648,-0.1376
2.9300,-0.7877,-0.5560,-0.1625
2.9300,-0.7877,-0.5560,-0.1625
2.9310,-0.7877,-0.5560,-0.1625
2.9480,-0.8397,-0.5425,-0.1640
2.9480,-0.8397,-0.5425,-0.1640
2.9480,-0.8397,-0.5425,-0.1640
2.9680,-0.8317,-0.5504,-0.1542
2.9680,-0.8317,-0.5504,-0.1542
2.9690,-0.8317,-0.5504,-0.1542
2.9700,-0.8317,-0.5504,-0.1542
2.9700,-0.8317,-0.5504,-0.1542
2.9900,-0.7818,-0.5523,-0.1723
2.9910,-0.7818,-0.5523,-0.1723
2.9920,-0.7818,-0.5523,-0.1723
2.9920,-0.7818,-0.5523,-0.1723
3.0090,-0.7908,-0.5447,-0.1642
3.0090,-0.7908,-0.5447,-0.1642
3.0090,-0.7908,-0.5447,-0.1642
3.0300,-0.8026,-0.5313,-0.1503
3.0310,-0.8026,-0.5313,-0.1503
3.0320,-0.8026,-0.5313,-0.1503
3.0480,-0.7720,-0.5311,-0.1562
3.0490,-0.7720,-0.5311,-0.1562
3.0500,-0.7720,-0.5311,-0.1562
3.0500,-0.7720,-0.5311,-0.1562
3.0510,-0.7720,-0.5311,-0.1562
3.0690,-0.7640,-0.5421,-0.1948
3.0700,-0.7640,-0.5421,-0.1948
3.0700,-0.7640,-0.5421,-0.1948
3.0900,-0.8133,-0.5597,-0.1540
3.0910,-0.8133,-0.5597,-0.1540
3.0920,-0.8133,-0.5597,-0.1540
3.1070,-0.8390,-0.5518,-0.1449
3.1080,-0.8390,-0.5518,-0.1449
3.1090,-0.8390,-0.5518,-0.1449
3.1290,-0.7779,-0.5516,-0.1816
3.1300,-0.7779,-0.5516,-0.1816
3.1300,-0.7779,-0.5516,-0.1816
3.1310,-0.7779,-0.5516,-0.1816
3.1320,-0.7779,-0.5516,-0.1816
3.1500,-0.7608,-0.5636,-0.1818
3.1510,-0.7608,-0.5636,-0.1818
3.1510,-0.7608,-0.5636,-0.1818
3.1680,-0.8082,-0.5589,-0.1307
3.1680,-0.8082,-0.5589,-0.1307
3.1690,-0.8082,-0.5589,-0.1307
3.1900,-0.7906,-0.5357,-0.1488
3.1920,-0.7906,-0.5357,-0.1488
3.1920,-0.7906,-0.5357,-0.1488
3.1930,-0.7906,-0.5357,-0.1488
3.2090,-0.7750,-0.5403,-0.1779
3.2100,-0.7750,-0.5403,-0.1779
3.2100,-0.7750,-0.5403,-0.1779
3.2110,-0.7750,-0.5403,-0.1779
3.2110,-0.7750,-0.5403,-0.1779
3.2130,-0.7750,-0.5403,-0.1779
3.2290,-0.8119,-0.5567,-0.1454
3.2300,-0.8119,-0.5567,-0.1454
3.2300,-0.8119,-0.5567,-0.1454
3.2510,-0.8058,-0.5584,-0.1327
3.2520,-0.8058,-0.5584,-0.1327
3.2530,-0.8058,-0.5584,-0.1327
3.2680,-0.8001,-0.5416,-0.1393
3.2690,-0.8001,-0.5416,-0.1393
3.2690,-0.8001,-0.5416,-0.1393
3.2890,-0.8031,-0.5323,-0.1794
3.2900,-0.8031,-0.5323,-0.1794
3.2900,-0.8031,-0.5323,-0.1794
3.2910,-0.8031,-0.5323,-0.1794
3.2920,-0.8031,-0.5323,-0.1794
3.3090,-0.8211,-0.5548,-0.2207
3.3100,-0.8211,-0.5548,-0.2207
3.3100,-0.8211,-0.5548,-0.2207
3.3300,-0.8659,-0.5616,-0.1608
3.3310,-0.8659,-0.5616,-0.1608
3.3320,-0.8659,-0.5616,-0.1608
3.3470,-0.8434,-0.5315,-0.1679
3.3470,-0.8434,-0.5315,-0.1679
3.3480,-0.8434,-0.5315,-0.1679
3.3690,-0.7970,-0.5347,-0.1791
3.3700,-0.7970,-0.5347,-0.1791
3.3710,-0.7970,-0.5347,-0.1791
3.3710,-0.7970,-0.5347,-0.1791
3.3720,-0.7970,-0.5347,-0.1791
3.3910,-0.7762,-0.5623,-0.1554
3.3920,-0.7762,-0.5623,-0.1554
3.4800,-0.7762,-0.5623,-0.1554
3.4800,-0.7762,-0.5623,-0.1554
3.4800,-0.7747,-0.5589,-0.1351
3.4810,-0.7747,-0.5589,-0.1351
3.4810,-0.7747,-0.5589,-0.1351
3.4810,-0.7747,-0.5589,-0.1351
3.4810,-0.7901,-0.5352,-0.1510
3.4810,-0.7901,-0.5352,-0.1510
3.4820,-0.7901,-0.5352,-0.1510
3.4820,-0.8263,-0.5335,-0.1828
3.4820,-0.8263,-0.5335,-0.1828
3.4820,-0.8263,-0.5335,-0.1828
3.4820,-0.8263,-0.5335,-0.1828
3.4820,-0.8263,-0.5335,-0.1828
3.4830,-0.8182,-0.5663,-0.1493
3.4830,-0.8182,-0.5663,-0.1493
3.4830,-0.8182,-0.5663,-0.1493
3.4840,-0.8018,-0.5621,-0.1547
3.4840,-0.8018,-0.5621,-0.1547
3.4840,-0.8018,-0.5621,-0.1547
3.5040,-0.7882,-0.5440,-0.1801
3.5040,-0.7882,-0.5440,-0.1801
3.5040,-0.7882,-0.5440,-0.1801
3.5240,-0.8028,-0.5408,-0.1559
3.5240,-0.8028,-0.5408,-0.1559
3.5250,-0.8028,-0.5408,-0.1559
3.5260,-0.8028,-0.5408,-0.1559
3.5260,-0.8028,-0.5408,-0.1559
3.5450,-0.8031,-0.5315,-0.1474
3.5450,-0.8031,-0.5315,-0.1474
3.5450,-0.8031,-0.5315,-0.1474
3.5630,-0.7908,-0.5308,-0.1540
3.5630,-0.7908,-0.5308,-0.1540
3.5640,-0.7908,-0.5308,-0.1540
3.5850,-0.7884,-0.5496,-0.1730
3.5860,-0.7884,-0.5496,-0.1730
3.5860,-0.7884,-0.5496,-0.1730
3.5870,-0.7884,-0.5496,-0.1730
3.6050,-0.7926,-0.5667,-0.1540
3.6060,-0.7926,-0.5667,-0.1540
3.6060,-0.7926,-0.5667,-0.1540
3.6070,-0.7926,-0.5667,-0.1540
3.6070,-0.7926,-0.5667,-0.1540
3.6260,-0.7974,-0.5572,-0.1503
3.6270,-0.7974,-0.5572,-0.1503
3.6270,-0.7974,-0.5572,-0.1503
3.6460,-0.7867,-0.5499,-0.1479
3.6460,-0.7867,-0.5499,-0.1479
3.6470,-0.7867,-0.5499,-0.1479
3.6640,-0.7830,-0.5416,-0.1523
3.6650,-0.7830,-0.5416,-0.1523
3.6650,-0.7830,-0.5416,-0.1523
3.6880,-0.7901,-0.5479,-0.1598
3.6900,-0.7901,-0.5479,-0.1598
3.6910,-0.7901,-0.5479,-0.1598
3.6960,-0.7901,-0.5479,-0.1598
3.6960,-0.7901,-0.5479,-0.1598
3.7070,-0.7948,-0.5548,-0.1713
3.7070,-0.7948,-0.5548,-0.1713
3.7080,-0.7948,-0.5548,-0.1713
3.7250,-0.7828,-0.5528,-0.1760
3.7250,-0.7828,-0.5528,-0.1760
3.7260,-0.7828,-0.5528,-0.1760
3.7460,-0.8053,-0.5477,-0.1549
3.7470,-0.8053,-0.5477,-0.1549
3.7470,-0.8053,-0.5477,-0.1549
3.7650,-0.8172,-0.5384,-0.1510
3.7680,-0.8172,-0.5384,-0.1510
3.7690,-0.8172,-0.5384,-0.1510
3.7700,-0.8172,-0.5384,-0.1510
3.7700,-0.8172,-0.5384,-0.1510
3.7860,-0.8058,-0.5291,-0.1833
3.7870,-0.8058,-0.5291,-0.1833
3.7880,-0.8058,-0.5291,-0.1833
3.7890,-0.8058,-0.5291,-0.1833
3.8070,-0.8427,-0.5408,-0.1779
3.8100,-0.8427,-0.5408,-0.1779
3.8100,-0.8427,-0.5408,-0.1779
3.8110,-0.8427,-0.5408,-0.1779
3.8260,-0.8441,-0.5489,-0.1620
3.8260,-0.8441,-0.5489,-0.1620
3.8270,-0.8441,-0.5489,-0.1620
3.8490,-0.8185,-0.5401,-0.1694
3.8490,-0.8185,-0.5401,-0.1694
3.8500,-0.8185,-0.5401,-0.1694
3.8500,-0.8185,-0.5401,-0.1694
3.8510,-0.8185,-0.5401,-0.1694
3.8650,-0.7850,-0.5460,-0.1850
3.8650,-0.7850,-0.5460,-0.1850
3.8660,-0.7850,-0.5460,-0.1850
3.8850,-0.7703,-0.5565,-0.1928
3.8850,-0.7703,-0.5565,-0.1928
3.8860,-0.7703,-0.5565,-0.1928
3.9050,-0.7955,-0.5677,-0.1281
3.9050,-0.7955,-0.5677,-0.1281
3.9060,-0.7955,-0.5677,-0.1281
3.9250,-0.7967,-0.5491,-0.1136
3.9250,-0.7967,-0.5491,-0.1136
3.9260,-0.7967,-0.5491,-0.1136
3.9260,-0.7967,-0.5491,-0.1136
4.0020,-0.7967,-0.5491,-0.1136
4.0030,-0.7884,-0.5274,-0.1672
4.0030,-0.7884,-0.5274,-0.1672
4.0030,-0.7884,-0.5274,-0.1672
4.0040,-0.8033,-0.5516,-0.1730
4.0040,-0.8033,-0.5516,-0.1730
4.0040,-0.8033,-0.5516,-0.1730
4.0040,-0.8172,-0.5714,-0.1454
4.0040,-0.8172,-0.5714,-0.1454
4.0040,-0.8172,-0.5714,-0.1454
4.0050,-0.8172,-0.5714,-0.1454
4.0050,-0.8097,-0.5462,-0.1613
4.0050,-0.8097,-0.5462,-0.1613
4.0050,-0.8097,-0.5462,-0.1613
4.0050,-0.8097,-0.5462,-0.1613
4.0050,-0.8097,-0.5462,-0.1613
4.0230,-0.8001,-0.5335,-0.1850
4.0230,-0.8001,-0.5335,-0.1850
4.0230,-0.8001,-0.5335,-0.1850
4.0420,-0.8023,-0.5406,-0.1659
4.0420,-0.8023,-0.5406,-0.1659
4.0420,-0.8023,-0.5406,-0.1659
4.0610,-0.7923,-0.5352,-0.1606
4.0610,-0.7923,-0.5352,-0.1606
4.0610,-0.7923,-0.5352,-0.1606
4.0830,-0.7860,-0.5279,-0.1742
4.0830,-0.7860,-0.5279,-0.1742
4.0830,-0.7860,-0.5279,-0.1742
4.0840,-0.7860,-0.5279,-0.1742
4.0840,-0.7860,-0.5279,-0.1742
4.1050,-0.8270,-0.5318,-0.1344
4.1050,-0.8270,-0.5318,-0.1344
4.1060,-0.8270,-0.5318,-0.1344
4.1240,-0.8150,-0.5355,-0.1300
4.1250,-0.8150,-0.5355,-0.1300
4.1250,-0.8150,-0.5355,-0.1300
4.1440,-0.7757,-0.5425,-0.1652
4.1450,-0.7757,-0.5425,-0.1652
4.1450,-0.7757,-0.5425,-0.1652
4.1650,-0.7855,-0.5570,-0.1852
4.1650,-0.7855,-0.5570,-0.1852
4.1650,-0.7855,-0.5570,-0.1852
4.1660,-0.7855,-0.5570,-0.1852
4.1660,-0.7855,-0.5570,-0.1852
4.1840,-0.8207,-0.5526,-0.1569
4.1840,-0.8207,-0.5526,-0.1569
4.1850,-0.8207,-0.5526,-0.1569
4.1850,-0.8207,-0.5526,-0.1569
4.2040,-0.8207,-0.5350,-0.1532
4.2040,-0.8207,-0.5350,-0.1532
4.2040,-0.8207,-0.5350,-0.1532
4.2230,-0.7818,-0.5472,-0.1510
4.2230,-0.7818,-0.5472,-0.1510
4.2230,-0.7818,-0.5472,-0.1510
4.2430,-0.7662,-0.5496,-0.1637
4.2430,-0.7662,-0.5496,-0.1637
4.2430,-0.7662,-0.5496,-0.1637
4.2430,-0.7662,-0.5496,-0.1637
4.2430,-0.7662,-0.5496,-0.1637
4.2630,-0.7864,-0.5472,-0.1364
4.2640,-0.7864,-0.5472,-0.1364
4.2640,-0.7864,-0.5472,-0.1364
4.2830,-0.8177,-0.5401,-0.1569
4.2830,-0.8177,-0.5401,-0.1569
4.2830,-0.8177,-0.5401,-0.1569
4.3020,-0.8317,-0.5384,-0.1835
4.3030,-0.8317,-0.5384,-0.1835
4.3030,-0.8317,-0.5384,-0.1835
4.3240,-0.8158,-0.5465,-0.1581
4.3240,-0.8158,-0.5465,-0.1581
4.3240,-0.8158,-0.5465,-0.1581
4.3240,-0.8158,-0.5465,-0.1581
4.3240,-0.8158,-0.5465,-0.1581
4.3430,-0.8082,-0.5487,-0.1471
4.3430,-0.8082,-0.5487,-0.1471
4.3430,-0.8082,-0.5487,-0.1471
4.3640,-0.8097,-0.5406,-0.1457
4.3640,-0.8097,-0.5406,-0.1457
4.3640,-0.8097,-0.5406,-0.1457
4.3850,-0.8199,-0.5447,-0.1647
4.3850,-0.8199,-0.5447,-0.1647
4.3860,-0.8199,-0.5447,-0.1647
4.3860,-0.8199,-0.5447,-0.1647
4.4040,-0.7904,-0.5682,-0.1564
4.4040,-0.7904,-0.5682,-0.1564
4.4040,-0.7904,-0.5682,-0.1564
4.4050,-0.7904,-0.5682,-0.1564
4.4050,-0.7904,-0.5682,-0.1564
4.4250,-0.7867,-0.5628,-0.1285
4.4250,-0.7867,-0.5628,-0.1285
4.4250,-0.7867,-0.5628,-0.1285
4.4450,-0.8131,-0.5286,-0.1471
4.4450,-0.8131,-0.5286,-0.1471
4.4450,-0.8131,-0.5286,-0.1471
4.4630,-0.8326,-0.5276,-0.1794
4.4640,-0.8326,-0.5276,-0.1794
4.4640,-0.8326,-0.5276,-0.1794
4.4850,-0.8160,-0.5653,-0.1696
4.4850,-0.8160,-0.5653,-0.1696
4.4850,-0.8160,-0.5653,-0.1696
4.5280,-0.8160,-0.5653,-0.1696
4.5280,-0.8160,-0.5653,-0.1696
4.5280,-0.8072,-0.5594,-0.1461
4.5280,-0.8072,-0.5594,-0.1461
4.5290,-0.8072,-0.5594,-0.1461
4.5290,-0.7872,-0.5262,-0.1730
4.5290,-0.7872,-0.5262,-0.1730
4.5290,-0.7872,-0.5262,-0.1730
4.5420,-0.7957,-0.5279,-0.1806
4.5430,-0.7957,-0.5279,-0.1806
4.5430,-0.7957,-0.5279,-0.1806
4.5600,-0.8187,-0.5509,-0.1349
4.5600,-0.8187,-0.5509,-0.1349
4.5600,-0.8187,-0.5509,-0.1349
4.5620,-0.8187,-0.5509,-0.1349
4.5620,-0.8187,-0.5509,-0.1349
4.5810,-0.7970,-0.5396,-0.1310
4.5810,-0.7970,-0.5396,-0.1310
4.5810,-0.7970,-0.5396,-0.1310
4.5820,-0.7970,-0.5396,-0.1310
4.6010,-0.7483,-0.5350,-0.1833
4.6010,-0.7483,-0.5350,-0.1833
4.6010,-0.7483,-0.5350,-0.1833
4.6190,-0.7513,-0.5589,-0.1684
4.6190,-0.7513,-0.5589,-0.1684
4.6190,-0.7513,-0.5589,-0.1684
4.6410,-0.8016,-0.5570,-0.1471
4.6410,-0.8016,-0.5570,-0.1471
4.6420,-0.8016,-0.5570,-0.1471
4.6420,-0.8016,-0.5570,-0.1471
4.6420,-0.8016,-0.5570,-0.1471
4.6610,-0.7857,-0.5457,-0.1630
4.6610,-0.7857,-0.5457,-0.1630
4.6610,-0.7857,-0.5457,-0.1630
4.6810,-0.8038,-0.5389,-0.1613
4.6820,-0.8038,-0.5389,-0.1613
4.6820,-0.8038,-0.5389,-0.1613
4.7010,-0.8304,-0.5367,-0.1581
4.7020,-0.8304,-0.5367,-0.1581
4.7020,-0.8304,-0.5367,-0.1581
4.7190,-0.7864,-0.5504,-0.1615
4.7190,-0.7864,-0.5504,-0.1615
4.7200,-0.7864,-0.5504,-0.1615
4.7230,-0.7864,-0.5504,-0.1615
4.7240,-0.7864,-0.5504,-0.1615
4.7410,-0.7918,-0.5460,-0.1601
4.7410,-0.7918,-0.5460,-0.1601
4.7410,-0.7918,-0.5460,-0.1601
4.7590,-0.8214,-0.5337,-0.1630
4.7590,-0.8214,-0.5337,-0.1630
4.7600,-0.8214,-0.5337,-0.1630
4.7810,-0.8458,-0.5440,-0.1623
4.7810,-0.8458,-0.5440,-0.1623
4.7810,-0.8458,-0.5440,-0.1623
4.7820,-0.8458,-0.5440,-0.1623
4.8010,-0.8229,-0.5584,-0.1537
4.8010,-0.8229,-0.5584,-0.1537
4.8010,-0.8229,-0.5584,-0.1537
4.8040,-0.8229,-0.5584,-0.1537
4.8040,-0.8229,-0.5584,-0.1537
4.8210,-0.7955,-0.5562,-0.1601
4.8210,-0.7955,-0.5562,-0.1601
4.8210,-0.7955,-0.5562,-0.1601
4.8400,-0.7786,-0.5445,-0.1813
4.8400,-0.7786,-0.5445,-0.1813
4.8400,-0.7786,-0.5445,-0.1813
4.8590,-0.7886,-0.5457,-0.1545
4.8600,-0.7886,-0.5457,-0.1545
4.8600,-0.7886,-0.5457,-0.1545
4.8790,-0.8021,-0.5450,-0.1254
4.8790,-0.8021,-0.5450,-0.1254
4.8800,-0.8021,-0.5450,-0.1254
4.8800,-0.8021,-0.5450,-0.1254
4.8800,-0.8021,-0.5450,-0.1254
4.9000,-0.7938,-0.5401,-0.1476
4.9000,-0.7938,-0.5401,-0.1476
4.9000,-0.7938,-0.5401,-0.1476
4.9220,-0.8077,-0.5474,-0.1799
4.9220,-0.8077,-0.5474,-0.1799
4.9220,-0.8077,-0.5474,-0.1799
4.9390,-0.8434,-0.5526,-0.1574
4.9390,-0.8434,-0.5526,-0.1574
4.9390,-0.8434,-0.5526,-0.1574
4.9590,-0.8187,-0.5401,-0.1486
4.9590,-0.8187,-0.5401,-0.1486
4.9590,-0.8187,-0.5401,-0.1486
4.9600,-0.8187,-0.5401,-0.1486
4.9600,-0.8187,-0.5401,-0.1486
4.9810,-0.7605,-0.5455,-0.1584
4.9810,-0.7605,-0.5455,-0.1584
4.9810,-0.7605,-0.5455,-0.1584
4.9810,-0.7605,-0.5455,-0.1584
4.9990,-0.7798,-0.5533,-0.1642
4.9990,-0.7798,-0.5533,-0.1642
4.9990,-0.7798,-0.5533,-0.1642
5.0180,-0.7972,-0.5523,-0.1804
5.0190,-0.7972,-0.5523,-0.1804
5.0190,-0.7972,-0.5523,-0.1804
5.0390,-0.8241,-0.5496,-0.1535
5.0390,-0.8241,-0.5496,-0.1535
5.0820,-0.8241,-0.5496,-0.1535
5.0820,-0.8241,-0.5496,-0.1535
5.0820,-0.8241,-0.5496,-0.1535
5.0820,-0.7911,-0.5406,-0.1378
5.0830,-0.7911,-0.5406,-0.1378
5.0830,-0.7911,-0.5406,-0.1378
5.0830,-0.7811,-0.5445,-0.1598
5.0830,-0.7811,-0.5445,-0.1598
5.1020,-0.7811,-0.5445,-0.1598
5.1020,-0.7999,-0.5528,-0.1454
5.1030,-0.7999,-0.5528,-0.1454
5.1030,-0.7999,-0.5528,-0.1454
5.1160,-0.8185,-0.5489,-0.1457
5.1160,-0.8185,-0.5489,-0.1457
5.1160,-0.8185,-0.5489,-0.1457
5.1180,-0.8185,-0.5489,-0.1457
5.1180,-0.8185,-0.5489,-0.1457
5.1360,-0.8126,-0.5455,-0.1537
5.1370,-0.8126,-0.5455,-0.1537
5.1370,-0.8126,-0.5455,-0.1537
5.1590,-0.7850,-0.5447,-0.1711
5.1590,-0.7850,-0.5447,-0.1711
5.1590,-0.7850,-0.5447,-0.1711
5.1780,-0.7649,-0.5531,-0.1794
5.1790,-0.7649,-0.5531,-0.1794
5.1790,-0.7649,-0.5531,-0.1794
5.1790,-0.7649,-0.5531,-0.1794
5.1990,-0.8028,-0.5575,-0.1611
5.1990,-0.8028,-0.5575,-0.1611
5.1990,-0.8028,-0.5575,-0.1611
5.2000,-0.8028,-0.5575,-0.1611
5.2000,-0.8028,-0.5575,-0.1611
5.2230,-0.8141,-0.5440,-0.1322
5.2230,-0.8141,-0.5440,-0.1322
5.2230,-0.8141,-0.5440,-0.1322
5.2350,-0.8121,-0.5267,-0.1237
5.2350,-0.8121,-0.5267,-0.1237
5.2350,-0.8121,-0.5267,-0.1237
5.2580,-0.8248,-0.5296,-0.1584
5.2580,-0.8248,-0.5296,-0.1584
5.2580,-0.8248,-0.5296,-0.1584
5.2750,-0.8192,-0.5582,-0.1860
5.2750,-0.8192,-0.5582,-0.1860
5.2760,-0.8192,-0.5582,-0.1860
5.2760,-0.8192,-0.5582,-0.1860
5.2760,-0.8192,-0.5582,-0.1860
5.2950,-0.8299,-0.5797,-0.1655
5.2960,-0.8299,-0.5797,-0.1655
5.2960,-0.8299,-0.5797,-0.1655
5.3160,-0.8199,-0.5511,-0.1530
5.3160,-0.8199,-0.5511,-0.1530
5.3160,-0.8199,-0.5511,-0.1530
5.3410,-0.7852,-0.5357,-0.1752
5.3410,-0.7852,-0.5357,-0.1752
5.3410,-0.7852,-0.5357,-0.1752
5.3580,-0.7750,-0.5597,-0.1774
5.3580,-0.7750,-0.5597,-0.1774
5.3580,-0.7750,-0.5597,-0.1774
5.3580,-0.7750,-0.5597,-0.1774
5.3580,-0.7750,-0.5597,-0.1774
5.3750,-0.8043,-0.5746,-0.1474
5.3750,-0.8043,-0.5746,-0.1474
5.3750,-0.8043,-0.5746,-0.1474
5.3750,-0.8043,-0.5746,-0.1474
5.4010,-0.7874,-0.5430,-0.1527
5.4020,-0.7874,-0.5430,-0.1527
5.4020,-0.7874,-0.5430,-0.1527
5.4020,-0.7874,-0.5430,-0.1527
5.4180,-0.7737,-0.5218,-0.1938
5.4180,-0.7737,-0.5218,-0.1938
5.4180,-0.7737,-0.5218,-0.1938
5.4330,-0.8033,-0.5452,-0.1554
5.4330,-0.8033,-0.5452,-0.1554
5.4340,-0.8033,-0.5452,-0.1554
5.4360,-0.8033,-0.5452,-0.1554
5.4360,-0.8033,-0.5452,-0.1554
5.4540,-0.8106,-0.5455,-0.1283
5.4550,-0.8106,-0.5455,-0.1283
5.4550,-0.8106,-0.5455,-0.1283
5.4810,-0.8011,-0.5262,-0.1391
5.4810,-0.8011,-0.5262,-0.1391
5.4820,-0.8011,-0.5262,-0.1391
5.5000,-0.7867,-0.5379,-0.1721
5.5000,-0.7867,-0.5379,-0.1721
5.5000,-0.7867,-0.5379,-0.1721
5.5140,-0.7882,-0.5609,-0.1728
5.5140,-0.7882,-0.5609,-0.1728
5.5150,-0.7882,-0.5609,-0.1728
5.5150,-0.7882,-0.5609,-0.1728
5.5150,-0.7882,-0.5609,-0.1728
5.5340,-0.8387,-0.5465,-0.1479
5.5340,-0.8387,-0.5465,-0.1479
5.5340,-0.8387,-0.5465,-0.1479
5.5550,-0.7818,-0.5374,-0.1518
5.5550,-0.7818,-0.5374,-0.1518
5.5550,-0.7818,-0.5374,-0.1518
5.5780,-0.7444,-0.5589,-0.1857
5.5780,-0.7444,-0.5589,-0.1857
5.5780,-0.7444,-0.5589,-0.1857
5.5780,-0.7444,-0.5589,-0.1857
5.6130,-0.7996,-0.5687,-0.1650
5.6130,-0.7996,-0.5687,-0.1650
5.6130,-0.7996,-0.5687,-0.1650
5.6130,-0.7996,-0.5687,-0.1650
5.6130,-0.7996,-0.5687,-0.1650
5.6130,-0.8317,-0.5384,-0.1337
5.6140,-0.8317,-0.5384,-0.1337
5.6140,-0.8317,-0.5384,-0.1337
5.6370,-0.8026,-0.5301,-0.1527
5.6380,-0.8026,-0.5301,-0.1527
5.6380,-0.8026,-0.5301,-0.1527
5.6570,-0.7737,-0.5538,-0.1645
5.6570,-0.7737,-0.5538,-0.1645
5.6570,-0.7737,-0.5538,-0.1645
5.6760,-0.7855,-0.5692,-0.1679
5.6760,-0.7855,-0.5692,-0.1679
5.6760,-0.7855,-0.5692,-0.1679
5.6760,-0.7855,-0.5692,-0.1679
5.6760,-0.7855,-0.5692,-0.1679
5.6930,-0.8062,-0.5699,-0.1808
5.6930,-0.8062,-0.5699,-0.1808
5.6930,-0.8062,-0.5699,-0.1808
5.7150,-0.8419,-0.5543,-0.1515
5.7150,-0.8419,-0.5543,-0.1515
5.7150,-0.8419,-0.5543,-0.1515
5.7320,-0.8615,-0.5372,-0.1332
5.7320,-0.8615,-0.5372,-0.1332
5.7330,-0.8615,-0.5372,-0.1332
5.7540,-0.8422,-0.5369,-0.1650
5.7540,-0.8422,-0.5369,-0.1650
5.7540,-0.8422,-0.5369,-0.1650
5.7570,-0.8422,-0.5369,-0.1650
5.7570,-0.8422,-0.5369,-0.1650
5.7730,-0.7935,-0.5548,-0.1926
5.7740,-0.7935,-0.5548,-0.1926
5.7740,-0.7935,-0.5548,-0.1926
5.7750,-0.7935,-0.5548,-0.1926
5.7960,-0.7845,-0.5665,-0.1640
5.7960,-0.7845,-0.5665,-0.1640
5.7960,-0.7845,-0.5665,-0.1640
5.8120,-0.7701,-0.5443,-0.1613
5.8120,-0.7701,-0.5443,-0.1613
5.8130,-0.7701,-0.5443,-0.1613
5.8320,-0.7737,-0.5315,-0.1850
5.8330,-0.7737,-0.5315,-0.1850
5.8330,-0.7737,-0.5315,-0.1850
5.8330,-0.7737,-0.5315,-0.1850
5.8330,-0.7737,-0.5315,-0.1850
5.8570,-0.8185,-0.5433,-0.1762
5.8570,-0.8185,-0.5433,-0.1762
5.8570,-0.8185,-0.5433,-0.1762
5.8740,-0.8133,-0.5557,-0.1518
5.8750,-0.8133,-0.5557,-0.1518
5.8750,-0.8133,-0.5557,-0.1518
5.8950,-0.7798,-0.5462,-0.1515
5.8950,-0.7798,-0.5462,-0.1515
5.8950,-0.7798,-0.5462,-0.1515
5.9140,-0.7737,-0.5350,-0.1640
5.9140,-0.7737,-0.5350,-0.1640
5.9150,-0.7737,-0.5350,-0.1640
5.9150,-0.7737,-0.5350,-0.1640
5.9150,-0.7737,-0.5350,-0.1640
5.9330,-0.7894,-0.5438,-0.1596
5.9330,-0.7894,-0.5438,-0.1596
5.9330,-0.7894,-0.5438,-0.1596
5.9560,-0.7923,-0.5636,-0.1417
5.9560,-0.7923,-0.5636,-0.1417
5.9560,-0.7923,-0.5636,-0.1417
5.9730,-0.7823,-0.5562,-0.1718
5.9730,-0.7823,-0.5562,-0.1718
5.9730,-0.7823,-0.5562,-0.1718
5.9730,-0.7823,-0.5562,-0.1718
5.9930,-0.8126,-0.5509,-0.1801
5.9930,-0.8126,-0.5509,-0.1801
5.9930,-0.8126,-0.5509,-0.1801
5.9930,-0.8126,-0.5509,-0.1801
5.9930,-0.8126,-0.5509,-0.1801
6.0120,-0.8131,-0.5641,-0.1447
6.0120,-0.8131,-0.5641,-0.1447
6.0130,-0.8131,-0.5641,-0.1447
6.0330,-0.7933,-0.5675,-0.1493
6.0340,-0.7933,-0.5675,-0.1493
6.0340,-0.7933,-0.5675,-0.1493
6.0510,-0.8006,-0.5499,-0.1769
6.0520,-0.8006,-0.5499,-0.1769
6.0520,-0.8006,-0.5499,-0.1769
6.0720,-0.8126,-0.5401,-0.1674
6.0720,-0.8126,-0.5401,-0.1674
6.0720,-0.8126,-0.5401,-0.1674
6.0720,-0.8126,-0.5401,-0.1674
6.0720,-0.8126,-0.5401,-0.1674
6.0910,-0.7845,-0.5499,-0.1459
6.0910,-0.7845,-0.5499,-0.1459
6.0910,-0.7845,-0.5499,-0.1459
6.1130,-0.7877,-0.5589,-0.1347
6.1130,-0.7877,-0.5589,-0.1347
6.1130,-0.7877,-0.5589,-0.1347
6.1340,-0.8111,-0.5548,-0.1483
6.1350,-0.8111,-0.5548,-0.1483
6.1350,-0.8111,-0.5548,-0.1483
6.1780,-0.8104,-0.5501,-0.1696
6.1790,-0.8104,-0.5501,-0.1696
6.1790,-0.8104,-0.5501,-0.1696
6.1790,-0.8104,-0.5501,-0.1696
6.1790,-0.8104,-0.5501,-0.1696
6.1790,-0.8197,-0.5621,-0.1637
6.1790,-0.8197,-0.5621,-0.1637
6.1790,-0.8197,-0.5621,-0.1637
6.1790,-0.8197,-0.5621,-0.1637
6.1920,-0.8094,-0.5494,-0.1427
6.1920,-0.8094,-0.5494,-0.1427
6.1920,-0.8094,-0.5494,-0.1427
6.2090,-0.8172,-0.5271,-0.1344
6.2090,-0.8172,-0.5271,-0.1344
6.2090,-0.8172,-0.5271,-0.1344
6.2300,-0.7813,-0.5406,-0.1633
6.2300,-0.7813,-0.5406,-0.1633
6.2300,-0.7813,-0.5406,-0.1633
6.2310,-0.7813,-0.5406,-0.1633
6.2310,-0.7813,-0.5406,-0.1633
6.2490,-0.7725,-0.5670,-0.1872
6.2500,-0.7725,-0.5670,-0.1872
6.2500,-0.7725,-0.5670,-0.1872
6.2700,-0.8070,-0.5611,-0.1767
6.2700,-0.8070,-0.5611,-0.1767
6.2700,-0.8070,-0.5611,-0.1767
6.2900,-0.8339,-0.5293,-0.1496
6.2910,-0.8339,-0.5293,-0.1496
6.2910,-0.8339,-0.5293,-0.1496
6.3100,-0.8238,-0.5076,-0.1623
6.3100,-0.8238,-0.5076,-0.1623
6.3100,-0.8238,-0.5076,-0.1623
6.3100,-0.8238,-0.5076,-0.1623
6.3110,-0.8238,-0.5076,-0.1623
6.3300,-0.7806,-0.5311,-0.1757
6.3300,-0.7806,-0.5311,-0.1757
6.3310,-0.7806,-0.5311,-0.1757
6.3500,-0.7752,-0.5633,-0.1843
6.3510,-0.7752,-0.5633,-0.1843
6.3510,-0.7752,-0.5633,-0.1843
6.3700,-0.7884,-0.5660,-0.1681
6.3700,-0.7884,-0.5660,-0.1681
6.3700,-0.7884,-0.5660,-0.1681
6.3710,-0.7884,-0.5660,-0.1681
6.3890,-0.7952,-0.5347,-0.1420
6.3890,-0.7952,-0.5347,-0.1420
6.3900,-0.7952,-0.5347,-0.1420
6.3900,-0.7952,-0.5347,-0.1420
6.3900,-0.7952,-0.5347,-0.1420
6.4080,-0.7891,-0.5193,-0.1388
6.4090,-0.7891,-0.5193,-0.1388
6.4090,-0.7891,-0.5193,-0.1388
6.4290,-0.7838,-0.5284,-0.1708
6.4300,-0.7838,-0.5284,-0.1708
6.4300,-0.7838,-0.5284,-0.1708
6.4490,-0.8021,-0.5516,-0.1650
6.4490,-0.8021,-0.5516,-0.1650
6.4490,-0.8021,-0.5516,-0.1650
6.4700,-0.8400,-0.5577,-0.1381
6.4720,-0.8400,-0.5577,-0.1381
6.4740,-0.8400,-0.5577,-0.1381
6.4740,-0.8400,-0.5577,-0.1381
6.4750,-0.8400,-0.5577,-0.1381
6.4910,-0.7811,-0.5601,-0.1520
6.4910,-0.7811,-0.5601,-0.1520
6.4920,-0.7811,-0.5601,-0.1520
6.5100,-0.7640,-0.5579,-0.1845
6.5110,-0.7640,-0.5579,-0.1845
6.5110,-0.7640,-0.5579,-0.1845
6.5280,-0.8219,-0.5553,-0.1637
6.5290,-0.8219,-0.5553,-0.1637
6.5310,-0.8219,-0.5553,-0.1637
6.5480,-0.8395,-0.5496,-0.1410
6.5490,-0.8395,-0.5496,-0.1410
6.5500,-0.8395,-0.5496,-0.1410
6.5500,-0.8395,-0.5496,-0.1410
6.5510,-0.8395,-0.5496,-0.1410
6.5690,-0.7855,-0.5609,-0.1427
6.5700,-0.7855,-0.5609,-0.1427
6.5700,-0.7855,-0.5609,-0.1427
6.5720,-0.7855,-0.5609,-0.1427
6.5900,-0.7713,-0.5572,-0.1606
6.5910,-0.7713,-0.5572,-0.1606
6.5910,-0.7713,-0.5572,-0.1606
6.6120,-0.8175,-0.5469,-0.1562
6.6130,-0.8175,-0.5469,-0.1562
6.6130,-0.8175,-0.5469,-0.1562
6.6280,-0.8390,-0.5474,-0.1290
6.6290,-0.8390,-0.5474,-0.1290
6.6300,-0.8390,-0.5474,-0.1290
6.6300,-0.8390,-0.5474,-0.1290
6.6310,-0.8390,-0.5474,-0.1290
6.6480,-0.8314,-0.5374,-0.1246
6.6490,-0.8314,-0.5374,-0.1246
6.6490,-0.8314,-0.5374,-0.1246
6.6700,-0.8187,-0.5320,-0.1474
6.6720,-0.8187,-0.5320,-0.1474
6.6730,-0.8187,-0.5320,-0.1474
6.6900,-0.8370,-0.5293,-0.2011
6.6900,-0.8370,-0.5293,-0.2011
6.7810,-0.8370,-0.5293,-0.2011
6.7810,-0.8329,-0.5445,-0.1645
6.7820,-0.8329,-0.5445,-0.1645
6.7820,-0.8329,-0.5445,-0.1645
6.7820,-0.8329,-0.5445,-0.1645
6.7820,-0.8329,-0.5445,-0.1645
6.7820,-0.8363,-0.5430,-0.1293
6.7830,-0.8363,-0.5430,-0.1293
6.7830,-0.8363,-0.5430,-0.1293
6.7830,-0.7698,-0.5359,-0.1410
6.7830,-0.7698,-0.5359,-0.1410
6.7830,-0.7698,-0.5359,-0.1410
6.7840,-0.7273,-0.5281,-0.1892
6.7840,-0.7273,-0.5281,-0.1892
6.7860,-0.7273,-0.5281,-0.1892
6.7860,-0.7273,-0.5281,-0.1892
6.7860,-0.7867,-0.5447,-0.1652
6.7860,-0.7867,-0.5447,-0.1652
6.7860,-0.7867,-0.5447,-0.1652
6.7870,-0.7867,-0.5447,-0.1652
6.7870,-0.7867,-0.5447,-0.1652
6.8050,-0.8417,-0.5638,-0.1420
6.8050,-0.8417,-0.5638,-0.1420
6.8050,-0.8417,-0.5638,-0.1420
6.8260,-0.8133,-0.5572,-0.1469
6.8260,-0.8133,-0.5572,-0.1469
6.8260,-0.8133,-0.5572,-0.1469
6.8450,-0.8001,-0.5372,-0.1664
6.8450,-0.8001,-0.5372,-0.1664
6.8450,-0.8001,-0.5372,-0.1664
6.8640,-0.8163,-0.5303,-0.1684
6.8650,-0.8163,-0.5303,-0.1684
6.8650,-0.8163,-0.5303,-0.1684
6.8660,-0.8163,-0.5303,-0.1684
6.8660,-0.8163,-0.5303,-0.1684
6.8860,-0.8087,-0.5440,-0.1361
6.8860,-0.8087,-0.5440,-0.1361
6.8870,-0.8087,-0.5440,-0.1361
6.9070,-0.7916,-0.5318,-0.1359
6.9070,-0.7916,-0.5318,-0.1359
6.9080,-0.7916,-0.5318,-0.1359
6.9310,-0.7923,-0.5298,-0.1413
6.9310,-0.7923,-0.5298,-0.1413
6.9320,-0.7923,-0.5298,-0.1413
6.9460,-0.7962,-0.5487,-0.1645
6.9470,-0.7962,-0.5487,-0.1645
6.9490,-0.7962,-0.5487,-0.1645
6.9500,-0.7962,-0.5487,-0.1645
6.9500,-0.7962,-0.5487,-0.1645
6.9680,-0.7752,-0.5606,-0.1677
6.9690,-0.7752,-0.5606,-0.1677
6.9690,-0.7752,-0.5606,-0.1677
6.9700,-0.7752,-0.5606,-0.1677
6.9880,-0.7740,-0.5575,-0.1591
6.9890,-0.7740,-0.5575,-0.1591
6.9900,-0.7740,-0.5575,-0.1591
7.0080,-0.8236,-0.5369,-0.1476
7.0090,-0.8236,-0.5369,-0.1476
7.0090,-0.8236,-0.5369,-0.1476
7.0270,-0.8282,-0.5286,-0.1329
7.0280,-0.8282,-0.5286,-0.1329
7.0290,-0.8282,-0.5286,-0.1329
7.0290,-0.8282,-0.5286,-0.1329
7.0300,-0.8282,-0.5286,-0.1329
7.0490,-0.7772,-0.5418,-0.1564
7.0490,-0.7772,-0.5418,-0.1564
7.0500,-0.7772,-0.5418,-0.1564
7.0670,-0.7999,-0.5455,-0.1547
7.0670,-0.7999,-0.5455,-0.1547
7.0680,-0.7999,-0.5455,-0.1547
7.0880,-0.8155,-0.5384,-0.1207
7.0880,-0.8155,-0.5384,-0.1207
7.0890,-0.8155,-0.5384,-0.1207
7.1080,-0.8021,-0.5227,-0.1176
7.1080,-0.8021,-0.5227,-0.1176
7.1090,-0.8021,-0.5227,-0.1176
7.1090,-0.8021,-0.5227,-0.1176
7.1100,-0.8021,-0.5227,-0.1176
7.1300,-0.8004,-0.5210,-0.1427
7.1310,-0.8004,-0.5210,-0.1427
7.1320,-0.8004,-0.5210,-0.1427
7.1460,-0.8148,-0.5369,-0.1579
7.1470,-0.8148,-0.5369,-0.1579
7.1470,-0.8148,-0.5369,-0.1579
7.1680,-0.8466,-0.5335,-0.1645
7.1690,-0.8466,-0.5335,-0.1645
7.1700,-0.8466,-0.5335,-0.1645
7.1700,-0.8466,-0.5335,-0.1645
7.1860,-0.8505,-0.5213,-0.1581
7.1870,-0.8505,-0.5213,-0.1581
7.1880,-0.8505,-0.5213,-0.1581
7.1890,-0.8505,-0.5213,-0.1581
7.1900,-0.8505,-0.5213,-0.1581
7.2050,-0.8097,-0.5320,-0.1579
7.2060,-0.8097,-0.5320,-0.1579
7.2070,-0.8097,-0.5320,-0.1579
7.2260,-0.7899,-0.5592,-0.1557
7.2290,-0.7899,-0.5592,-0.1557
7.2300,-0.7899,-0.5592,-0.1557
7.2470,-0.7926,-0.5548,-0.1799
7.3300,-0.7926,-0.5548,-0.1799
7.3300,-0.7926,-0.5548,-0.1799
7.3310,-0.8080,-0.5489,-0.1574
7.3310,-0.8080,-0.5489,-0.1574
7.3310,-0.8080,-0.5489,-0.1574
7.3310,-0.8080,-0.5489,-0.1574
7.3320,-0.8080,-0.5489,-0.1574
7.3320,-0.8248,-0.5472,-0.1276
7.3320,-0.8248,-0.5472,-0.1276
7.3320,-0.8248,-0.5472,-0.1276
7.3320,-0.7891,-0.5567,-0.1432
7.3320,-0.7891,-0.5567,-0.1432
7.3320,-0.7891,-0.5567,-0.1432
7.3330,-0.7708,-0.5704,-0.1652
7.3330,-0.7708,-0.5704,-0.1652
7.3330,-0.7708,-0.5704,-0.1652
7.3430,-0.7776,-0.5619,-0.1454
7.3430,-0.7776,-0.5619,-0.1454
7.3440,-0.7776,-0.5619,-0.1454
7.3440,-0.7776,-0.5619,-0.1454
7.3440,-0.7776,-0.5619,-0.1454
7.3640,-0.7813,-0.5374,-0.1398
7.3640,-0.7813,-0.5374,-0.1398
7.3640,-0.7813,-0.5374,-0.1398
7.3640,-0.7813,-0.5374,-0.1398
7.3860,-0.7918,-0.5298,-0.1322
7.3860,-0.7918,-0.5298,-0.1322
7.3860,-0.7918,-0.5298,-0.1322
7.4020,-0.8353,-0.5328,-0.1229
7.4030,-0.8353,-0.5328,-0.1229
7.4030,-0.8353,-0.5328,-0.1229
7.4230,-0.8407,-0.5325,-0.1479
7.4240,-0.8407,-0.5325,-0.1479
7.4240,-0.8407,-0.5325,-0.1479
7.4240,-0.8407,-0.5325,-0.1479
7.4240,-0.8407,-0.5325,-0.1479
7.4430,-0.7974,-0.5333,-0.1882
7.4430,-0.7974,-0.5333,-0.1882
7.4430,-0.7974,-0.5333,-0.1882
7.4650,-0.8102,-0.5501,-0.1615
7.4660,-0.8102,-0.5501,-0.1615
7.4660,-0.8102,-0.5501,-0.1615
7.4850,-0.8202,-0.5501,-0.1244
7.4850,-0.8202,-0.5501,-0.1244
7.4860,-0.8202,-0.5501,-0.1244
7.5030,-0.7850,-0.5403,-0.1351
7.5030,-0.7850,-0.5403,-0.1351
7.5030,-0.7850,-0.5403,-0.1351
7.5040,-0.7850,-0.5403,-0.1351
7.5040,-0.7850,-0.5403,-0.1351
7.5260,-0.7808,-0.5501,-0.1373
7.5260,-0.7808,-0.5501,-0.1373
7.5270,-0.7808,-0.5501,-0.1373
7.5460,-0.7752,-0.5572,-0.1691
7.5460,-0.7752,-0.5572,-0.1691
7.5460,-0.7752,-0.5572,-0.1691
7.5640,-0.8290,-0.5636,-0.1601
7.5640,-0.8290,-0.5636,-0.1601
7.5640,-0.8290,-0.5636,-0.1601
7.5650,-0.8290,-0.5636,-0.1601
7.5840,-0.8793,-0.5626,-0.1261
7.5840,-0.8793,-0.5626,-0.1261
7.5850,-0.8793,-0.5626,-0.1261
7.5850,-0.8793,-0.5626,-0.1261
7.5870,-0.8793,-0.5626,-0.1261
7.6070,-0.8185,-0.5428,-0.1435
7.6070,-0.8185,-0.5428,-0.1435
7.6070,-0.8185,-0.5428,-0.1435
7.6260,-0.8006,-0.5357,-0.1532
7.6270,-0.8006,-0.5357,-0.1532
7.6270,-0.8006,-0.5357,-0.1532
7.6470,-0.7996,-0.5440,-0.1454
7.6470,-0.7996,-0.5440,-0.1454
7.6480,-0.7996,-0.5440,-0.1454
7.6650,-0.7857,-0.5423,-0.1498
7.6650,-0.7857,-0.5423,-0.1498
7.6650,-0.7857,-0.5423,-0.1498
7.6650,-0.7857,-0.5423,-0.1498
7.6660,-0.7857,-0.5423,-0.1498
7.6870,-0.7708,-0.5391,-0.1557
7.6870,-0.7708,-0.5391,-0.1557
7.6870,-0.7708,-0.5391,-0.1557
7.7070,-0.7747,-0.5406,-0.1672
7.7070,-0.7747,-0.5406,-0.1672
7.7080,-0.7747,-0.5406,-0.1672
7.7250,-0.7813,-0.5643,-0.1762
7.7250,-0.7813,-0.5643,-0.1762
7.7250,-0.7813,-0.5643,-0.1762
7.7460,-0.8238,-0.5748,-0.1479
7.7460,-0.8238,-0.5748,-0.1479
7.7460,-0.8238,-0.5748,-0.1479
7.7470,-0.8238,-0.5748,-0.1479
7.7470,-0.8238,-0.5748,-0.1479
7.7660,-0.8529,-0.5416,-0.1298
7.7660,-0.8529,-0.5416,-0.1298
7.7660,-0.8529,-0.5416,-0.1298
7.7670,-0.8529,-0.5416,-0.1298
7.7860,-0.8251,-0.5132,-0.1447
7.7860,-0.8251,-0.5132,-0.1447
7.7870,-0.8251,-0.5132,-0.1447
7.8350,-0.7960,-0.5293,-0.1760
7.8350,-0.7960,-0.5293,-0.1760
7.8350,-0.7960,-0.5293,-0.1760
7.8350,-0.7886,-0.5479,-0.1723
7.8350,-0.7886,-0.5479,-0.1723
7.8360,-0.7886,-0.5479,-0.1723
7.8360,-0.7886,-0.5479,-0.1723
7.8360,-0.7886,-0.5479,-0.1723
7.8390,-0.7547,-0.5381,-0.1432
7.8390,-0.7547,-0.5381,-0.1432
7.8390,-0.7547,-0.5381,-0.1432
7.8620,-0.7901,-0.5311,-0.1344
7.8630,-0.7901,-0.5311,-0.1344
7.8630,-0.7901,-0.5311,-0.1344
7.8840,-0.8143,-0.5352,-0.1725
7.8840,-0.8143,-0.5352,-0.1725
7.8850,-0.8143,-0.5352,-0.1725
7.9000,-0.8263,-0.5425,-0.1894
7.9010,-0.8263,-0.5425,-0.1894
7.9010,-0.8263,-0.5425,-0.1894
7.9030,-0.8263,-0.5425,-0.1894
7.9030,-0.8263,-0.5425,-0.1894
7.9200,-0.8517,-0.5548,-0.1574
7.9200,-0.8517,-0.5548,-0.1574
7.9210,-0.8517,-0.5548,-0.1574
7.9410,-0.8314,-0.5469,-0.1371
7.9410,-0.8314,-0.5469,-0.1371
7.9410,-0.8314,-0.5469,-0.1371
7.9620,-0.7698,-0.5293,-0.1645
7.9620,-0.7698,-0.5293,-0.1645
7.9620,-0.7698,-0.5293,-0.1645
7.9630,-0.7698,-0.5293,-0.1645
7.9810,-0.7662,-0.5491,-0.1694
7.9810,-0.7662,-0.5491,-0.1694
7.9820,-0.7662,-0.5491,-0.1694
7.9830,-0.7662,-0.5491,-0.1694
7.9840,-0.7662,-0.5491,-0.1694
8.0040,-0.8434,-0.5601,-0.1300
8.0040,-0.8434,-0.5601,-0.1300
8.0040,-0.8434,-0.5601,-0.1300
8.0230,-0.8324,-0.5377,-0.1334
8.0230,-0.8324,-0.5377,-0.1334
8.0230,-0.8324,-0.5377,-0.1334
8.0400,-0.7720,-0.5320,-0.1623
8.0400,-0.7720,-0.5320,-0.1623
8.0410,-0.7720,-0.5320,-0.1623
8.0650,-0.7554,-0.5499,-0.1769
8.0660,-0.7554,-0.5499,-0.1769
8.0660,-0.7554,-0.5499,-0.1769
8.0660,-0.7554,-0.5499,-0.1769
8.0660,-0.7554,-0.5499,-0.1769
8.0810,-0.7918,-0.5509,-0.1403
8.0820,-0.7918,-0.5509,-0.1403
8.0820,-0.7918,-0.5509,-0.1403
8.1020,-0.8251,-0.5289,-0.1427
8.1020,-0.8251,-0.5289,-0.1427
8.1020,-0.8251,-0.5289,-0.1427
8.1220,-0.8458,-0.5452,-0.1329
8.1220,-0.8458,-0.5452,-0.1329
8.1230,-0.8458,-0.5452,-0.1329
8.1400,-0.8141,-0.5592,-0.1303
8.1400,-0.8141,-0.5592,-0.1303
8.1400,-0.8141,-0.5592,-0.1303
8.1400,-0.8141,-0.5592,-0.1303
8.1410,-0.8141,-0.5592,-0.1303
8.1620,-0.8255,-0.5367,-0.1337
8.1620,-0.8255,-0.5367,-0.1337
8.1620,-0.8255,-0.5367,-0.1337
8.1630,-0.8255,-0.5367,-0.1337
8.1890,-0.8436,-0.5176,-0.1505
8.1890,-0.8436,-0.5176,-0.1505
8.1900,-0.8436,-0.5176,-0.1505
8.2050,-0.7882,-0.5438,-0.1884
8.2050,-0.7882,-0.5438,-0.1884
8.2060,-0.7882,-0.5438,-0.1884
8.2240,-0.7877,-0.5545,-0.1633
8.2240,-0.7877,-0.5545,-0.1633
8.2240,-0.7877,-0.5545,-0.1633
8.2250,-0.7877,-0.5545,-0.1633
8.2250,-0.7877,-0.5545,-0.1633
8.2420,-0.8150,-0.5337,-0.1642
8.2420,-0.8150,-0.5337,-0.1642
8.2420,-0.8150,-0.5337,-0.1642
8.2660,-0.8016,-0.5293,-0.1848
8.2660,-0.8016,-0.5293,-0.1848
8.2670,-0.8016,-0.5293,-0.1848
8.2830,-0.7938,-0.5533,-0.1562
8.2840,-0.7938,-0.5533,-0.1562
8.2840,-0.7938,-0.5533,-0.1562
8.3040,-0.7867,-0.5472,-0.1620
8.3040,-0.7867,-0.5472,-0.1620
8.3040,-0.7867,-0.5472,-0.1620
8.3040,-0.7867,-0.5472,-0.1620
8.3050,-0.7867,-0.5472,-0.1620
8.3260,-0.7703,-0.5440,-0.1662
8.3260,-0.7703,-0.5440,-0.1662
8.3260,-0.7703,-0.5440,-0.1662
8.3420,-0.7789,-0.5428,-0.1752
8.3430,-0.7789,-0.5428,-0.1752
8.3430,-0.7789,-0.5428,-0.1752
8.3880,-0.7906,-0.5496,-0.1633
8.3880,-0.7906,-0.5496,-0.1633
8.3880,-0.7906,-0.5496,-0.1633
8.3880,-0.7906,-0.5496,-0.1633
8.3880,-0.8238,-0.5555,-0.1410
8.3890,-0.8238,-0.5555,-0.1410
8.3890,-0.8238,-0.5555,-0.1410
8.3890,-0.8238,-0.5555,-0.1410
8.3890,-0.8238,-0.5555,-0.1410
8.3980,-0.8197,-0.5567,-0.1523
8.3980,-0.8197,-0.5567,-0.1523
8.3980,-0.8197,-0.5567,-0.1523
8.4200,-0.8146,-0.5482,-0.1542
8.4200,-0.8146,-0.5482,-0.1542
8.4200,-0.8146,-0.5482,-0.1542
8.4370,-0.8295,-0.5262,-0.1420
8.4380,-0.8295,-0.5262,-0.1420
8.4380,-0.8295,-0.5262,-0.1420
8.4580,-0.8243,-0.5276,-0.1393
8.4580,-0.8243,-0.5276,-0.1393
8.4580,-0.8243,-0.5276,-0.1393
8.4600,-0.8243,-0.5276,-0.1393
8.4610,-0.8243,-0.5276,-0.1393
8.4780,-0.8116,-0.5311,-0.1562
8.4780,-0.8116,-0.5311,-0.1562
8.4780,-0.8116,-0.5311,-0.1562
8.5010,-0.7772,-0.5237,-0.1664
8.5020,-0.7772,-0.5237,-0.1664
8.5020,-0.7772,-0.5237,-0.1664
8.5170,-0.7679,-0.5271,-0.1674
8.5170,-0.7679,-0.5271,-0.1674
8.5180,-0.7679,-0.5271,-0.1674
8.5390,-0.8040,-0.5303,-0.1466
8.5390,-0.8040,-0.5303,-0.1466
8.5390,-0.8040,-0.5303,-0.1466
8.5400,-0.8040,-0.5303,-0.1466
8.5400,-0.8040,-0.5303,-0.1466
8.5610,-0.8290,-0.5406,-0.1476
8.5620,-0.8290,-0.5406,-0.1476
8.5620,-0.8290,-0.5406,-0.1476
8.5620,-0.8290,-0.5406,-0.1476
8.5780,-0.8053,-0.5489,-0.1530
8.5780,-0.8053,-0.5489,-0.1530
8.5780,-0.8053,-0.5489,-0.1530
8.5790,-0.8053,-0.5489,-0.1530
8.5970,-0.8084,-0.5477,-0.1405
8.5970,-0.8084,-0.5477,-0.1405
8.5970,-0.8084,-0.5477,-0.1405
8.6190,-0.8207,-0.5452,-0.1249
8.6190,-0.8207,-0.5452,-0.1249
8.6190,-0.8207,-0.5452,-0.1249
8.6220,-0.8207,-0.5452,-0.1249
8.6220,-0.8207,-0.5452,-0.1249
8.6390,-0.8058,-0.5443,-0.1662
8.6390,-0.8058,-0.5443,-0.1662
8.6400,-0.8058,-0.5443,-0.1662
8.6590,-0.8128,-0.5433,-0.1791
8.6590,-0.8128,-0.5433,-0.1791
8.6590,-0.8128,-0.5433,-0.1791
8.6780,-0.8006,-0.5455,-0.1752
8.6780,-0.8006,-0.5455,-0.1752
8.6790,-0.8006,-0.5455,-0.1752
8.6960,-0.7984,-0.5491,-0.1615
8.6970,-0.7984,-0.5491,-0.1615
8.6970,-0.7984,-0.5491,-0.1615
8.7000,-0.7984,-0.5491,-0.1615
8.7000,-0.7984,-0.5491,-0.1615
8.7160,-0.8343,-0.5421,-0.1408
8.7160,-0.8343,-0.5421,-0.1408
8.7170,-0.8343,-0.5421,-0.1408
8.7370,-0.8351,-0.5391,-0.1386
8.7370,-0.8351,-0.5391,-0.1386
8.7370,-0.8351,-0.5391,-0.1386
8.7570,-0.7706,-0.5533,-0.1699
8.7570,-0.7706,-0.5533,-0.1699
8.7580,-0.7706,-0.5533,-0.1699
8.7580,-0.7706,-0.5533,-0.1699
8.7780,-0.7926,-0.5579,-0.1625
8.7780,-0.7926,-0.5579,-0.1625
8.7790,-0.7926,-0.5579,-0.1625
8.7790,-0.7926,-0.5579,-0.1625
8.7790,-0.7926,-0.5579,-0.1625
8.7790,-0.7926,-0.5579,-0.1625
8.7970,-0.8280,-0.5303,-0.1552
8.7970,-0.8280,-0.5303,-0.1552
8.7970,-0.8280,-0.5303,-0.1552
8.8150,-0.8114,-0.5137,-0.1562
8.8150,-0.8114,-0.5137,-0.1562
8.8150,-0.8114,-0.5137,-0.1562
8.8360,-0.8141,-0.5279,-0.1606
8.8360,-0.8141,-0.5279,-0.1606
8.8360,-0.8141,-0.5279,-0.1606
8.8570,-0.8062,-0.5526,-0.1647
8.8580,-0.8062,-0.5526,-0.1647
8.8580,-0.8062,-0.5526,-0.1647
8.8580,-0.8062,-0.5526,-0.1647
8.8750,-0.8048,-0.5423,-0.1630
8.8750,-0.8048,-0.5423,-0.1630
8.8760,-0.8048,-0.5423,-0.1630
8.8970,-0.7999,-0.5313,-0.1461
8.9520,-0.7999,-0.5313,-0.1461
8.9520,-0.7999,-0.5313,-0.1461
8.9520,-0.7930,-0.5394,-0.1422
8.9520,-0.7930,-0.5394,-0.1422
8.9520,-0.7930,-0.5394,-0.1422
8.9520,-0.8004,-0.5513,-0.1481
8.9530,-0.8004,-0.5513,-0.1481
8.9530,-0.8004,-0.5513,-0.1481
8.9530,-0.8004,-0.5513,-0.1481
8.9530,-0.8004,-0.5513,-0.1481
8.9530,-0.7957,-0.5641,-0.1408
8.9530,-0.7957,-0.5641,-0.1408
8.9530,-0.7957,-0.5641,-0.1408
8.9530,-0.7957,-0.5641,-0.1408
8.9790,-0.7684,-0.5614,-0.1559
8.9790,-0.7684,-0.5614,-0.1559
8.9790,-0.7684,-0.5614,-0.1559
8.9790,-0.7684,-0.5614,-0.1559
8.9960,-0.7838,-0.5570,-0.1576
8.9960,-0.7838,-0.5570,-0.1576
8.9960,-0.7838,-0.5570,-0.1576
9.0120,-0.8158,-0.5428,-0.1540
9.0120,-0.8158,-0.5428,-0.1540
9.0130,-0.8158,-0.5428,-0.1540
9.0150,-0.8158,-0.5428,-0.1540
9.0160,-0.8158,-0.5428,-0.1540
9.0330,-0.8190,-0.5318,-0.1371
9.0330,-0.8190,-0.5318,-0.1371
9.0330,-0.8190,-0.5318,-0.1371
9.0560,-0.7999,-0.5428,-0.1501
9.0560,-0.7999,-0.5428,-0.1501
9.0570,-0.7999,-0.5428,-0.1501
9.0730,-0.7984,-0.5435,-0.1591
9.0730,-0.7984,-0.5435,-0.1591
9.0730,-0.7984,-0.5435,-0.1591
9.0920,-0.8204,-0.5345,-0.1469
9.0930,-0.8204,-0.5345,-0.1469
9.0930,-0.8204,-0.5345,-0.1469
9.0960,-0.8204,-0.5345,-0.1469
9.0970,-0.8204,-0.5345,-0.1469
9.1120,-0.8422,-0.5377,-0.1342
9.1120,-0.8422,-0.5377,-0.1342
9.1120,-0.8422,-0.5377,-0.1342
9.1330,-0.8368,-0.5425,-0.1461
9.1330,-0.8368,-0.5425,-0.1461
9.1330,-0.8368,-0.5425,-0.1461
9.1520,-0.8334,-0.5401,-0.1571
9.1520,-0.8334,-0.5401,-0.1571
9.1520,-0.8334,-0.5401,-0.1571
9.1530,-0.8334,-0.5401,-0.1571
9.1730,-0.8190,-0.5313,-0.1557
9.1730,-0.8190,-0.5313,-0.1557
9.1730,-0.8190,-0.5313,-0.1557
9.1770,-0.8190,-0.5313,-0.1557
9.1770,-0.8190,-0.5313,-0.1557
9.1780,-0.8190,-0.5313,-0.1557
9.1930,-0.8155,-0.5401,-0.1530
9.1930,-0.8155,-0.5401,-0.1530
9.1930,-0.8155,-0.5401,-0.1530
9.2120,-0.7999,-0.5631,-0.1608
9.2130,-0.7999,-0.5631,-0.1608
9.2130,-0.7999,-0.5631,-0.1608
9.2320,-0.7757,-0.5660,-0.1786
9.2320,-0.7757,-0.5660,-0.1786
9.2320,-0.7757,-0.5660,-0.1786
9.2520,-0.7767,-0.5467,-0.1852
9.2520,-0.7767,-0.5467,-0.1852
9.2520,-0.7767,-0.5467,-0.1852
9.2560,-0.7767,-0.5467,-0.1852
9.2560,-0.7767,-0.5467,-0.1852
9.2720,-0.7869,-0.5396,-0.1708
9.2720,-0.7869,-0.5396,-0.1708
9.2720,-0.7869,-0.5396,-0.1708
9.2930,-0.7987,-0.5447,-0.1461
9.2930,-0.7987,-0.5447,-0.1461
9.2930,-0.7987,-0.5447,-0.1461
9.3120,-0.8168,-0.5430,-0.1442
9.3120,-0.8168,-0.5430,-0.1442
9.3120,-0.8168,-0.5430,-0.1442
9.3330,-0.8102,-0.5386,-0.1481
9.3330,-0.8102,-0.5386,-0.1481
9.3330,-0.8102,-0.5386,-0.1481
9.3330,-0.8102,-0.5386,-0.1481
9.3340,-0.8102,-0.5386,-0.1481
9.3530,-0.8038,-0.5337,-0.1784
9.3530,-0.8038,-0.5337,-0.1784
9.3540,-0.8038,-0.5337,-0.1784
9.3540,-0.8038,-0.5337,-0.1784
9.3710,-0.8153,-0.5381,-0.1603
9.3710,-0.8153,-0.5381,-0.1603
9.3720,-0.8153,-0.5381,-0.1603
9.3720,-0.8153,-0.5381,-0.1603
9.3920,-0.8104,-0.5377,-0.1496
9.3920,-0.8104,-0.5377,-0.1496
9.3930,-0.8104,-0.5377,-0.1496
9.4110,-0.7933,-0.5188,-0.1508
9.4120,-0.7933,-0.5188,-0.1508
9.4120,-0.7933,-0.5188,-0.1508
9.4140,-0.7933,-0.5188,-0.1508
9.4150,-0.7933,-0.5188,-0.1508
9.4580,-0.7996,-0.5049,-0.1584
9.4580,-0.7996,-0.5049,-0.1584
9.4590,-0.7996,-0.5049,-0.1584
9.4590,-0.8148,-0.5227,-0.1493
9.4590,-0.8148,-0.5227,-0.1493
9.4590,-0.8148,-0.5227,-0.1493
9.4700,-0.7928,-0.5494,-0.1395
9.4700,-0.7928,-0.5494,-0.1395
9.4700,-0.7928,-0.5494,-0.1395
9.4900,-0.7899,-0.5416,-0.1574
9.4900,-0.7899,-0.5416,-0.1574
9.4900,-0.7899,-0.5416,-0.1574
9.4940,-0.7899,-0.5416,-0.1574
9.4940,-0.7899,-0.5416,-0.1574
9.5090,-0.8187,-0.5289,-0.1557
9.5090,-0.8187,-0.5289,-0.1557
9.5100,-0.8187,-0.5289,-0.1557
9.5300,-0.8233,-0.5418,-0.1581
9.5300,-0.8233,-0.5418,-0.1581
9.5300,-0.8233,-0.5418,-0.1581
9.5500,-0.8233,-0.5418,-0.1581
9.5500,-0.8040,-0.5482,-0.1530
9.5500,-0.8040,-0.5482,-0.1530
9.5500,-0.8040,-0.5482,-0.1530
9.5700,-0.8038,-0.5230,-0.1591
9.5710,-0.8038,-0.5230,-0.1591
9.5710,-0.8038,-0.5230,-0.1591
9.5720,-0.8038,-0.5230,-0.1591
9.5720,-0.8038,-0.5230,-0.1591
9.5720,-0.8038,-0.5230,-0.1591
9.5900,-0.8190,-0.5257,-0.1735
9.5910,-0.8190,-0.5257,-0.1735
9.5910,-0.8190,-0.5257,-0.1735
9.6100,-0.8050,-0.5616,-0.1816
9.6110,-0.8050,-0.5616,-0.1816
9.6110,-0.8050,-0.5616,-0.1816
9.6300,-0.7713,-0.5707,-0.1867
9.6300,-0.7713,-0.5707,-0.1867
9.6310,-0.7713,-0.5707,-0.1867
9.6510,-0.8233,-0.5416,-0.1620
9.6520,-0.8233,-0.5416,-0.1620
9.6520,-0.8233,-0.5416,-0.1620
9.6540,-0.8233,-0.5416,-0.1620
9.6550,-0.8233,-0.5416,-0.1620
9.6690,-0.8449,-0.5203,-0.1283
9.6690,-0.8449,-0.5203,-0.1283
9.6690,-0.8449,-0.5203,-0.1283
9.6890,-0.8148,-0.5215,-0.1364
9.6900,-0.8148,-0.5215,-0.1364
9.6900,-0.8148,-0.5215,-0.1364
9.7100,-0.8150,-0.5315,-0.1483
9.7100,-0.8150,-0.5315,-0.1483
9.7100,-0.8150,-0.5315,-0.1483
9.7300,-0.8146,-0.5469,-0.1623
9.7310,-0.8146,-0.5469,-0.1623
9.7310,-0.8146,-0.5469,-0.1623
9.7310,-0.8146,-0.5469,-0.1623
9.7310,-0.8146,-0.5469,-0.1623
9.7500,-0.8146,-0.5469,-0.1623
9.7500,-0.8160,-0.5548,-0.1430
9.7500,-0.8160,-0.5548,-0.1430
9.7500,-0.8160,-0.5548,-0.1430
9.7690,-0.8065,-0.5425,-0.1381
9.7700,-0.8065,-0.5425,-0.1381
9.7700,-0.8065,-0.5425,-0.1381
9.7700,-0.8065,-0.5425,-0.1381
9.7940,-0.7828,-0.5306,-0.1637
9.7950,-0.7828,-0.5306,-0.1637
9.7950,-0.7828,-0.5306,-0.1637
9.8090,-0.7996,-0.5347,-0.1686
9.8100,-0.7996,-0.5347,-0.1686
9.8100,-0.7996,-0.5347,-0.1686
9.8100,-0.7996,-0.5347,-0.1686
9.8100,-0.7996,-0.5347,-0.1686
9.8300,-0.8304,-0.5350,-0.1557
9.8300,-0.8304,-0.5350,-0.1557
9.8300,-0.8304,-0.5350,-0.1557
9.8480,-0.8146,-0.5337,-0.1647
9.8480,-0.8146,-0.5337,-0.1647
9.8490,-0.8146,-0.5337,-0.1647
9.8680,-0.7945,-0.5384,-0.1615
9.8680,-0.7945,-0.5384,-0.1615
9.8680,-0.7945,-0.5384,-0.1615
9.8890,-0.7967,-0.5418,-0.1664
9.8890,-0.7967,-0.5418,-0.1664
9.8890,-0.7967,-0.5418,-0.1664
9.8920,-0.7967,-0.5418,-0.1664
9.8920,-0.7967,-0.5418,-0.1664
9.9070,-0.7965,-0.5445,-0.1708
9.9080,-0.7965,-0.5445,-0.1708
9.9080,-0.7965,-0.5445,-0.1708
9.9280,-0.8106,-0.5487,-0.1618
9.9280,-0.8106,-0.5487,-0.1618
9.9290,-0.8106,-0.5487,-0.1618
9.9460,-0.8106,-0.5487,-0.1618
9.9470,-0.8033,-0.5413,-0.1552
9.9480,-0.8033,-0.5413,-0.1552
9.9490,-0.8033,-0.5413,-0.1552
9.9690,-0.7960,-0.5330,-0.1435
9.9700,-0.7960,-0.5330,-0.1435
10.0520,-0.7960,-0.5330,-0.1435
10.0530,-0.7960,-0.5330,-0.1435
10.0530,-0.7960,-0.5330,-0.1435
10.0530,-0.8160,-0.5340,-0.1281
10.0530,-0.8160,-0.5340,-0.1281
10.0540,-0.8160,-0.5340,-0.1281
10.0540,-0.8033,-0.5450,-0.1486
10.0540,-0.8033,-0.5450,-0.1486
10.0540,-0.8033,-0.5450,-0.1486
10.0540,-0.7923,-0.5484,-0.1699
10.0540,-0.7923,-0.5484,-0.1699
10.0550,-0.7923,-0.5484,-0.1699
10.0550,-0.8043,-0.5457,-0.1520
10.0550,-0.8043,-0.5457,-0.1520
10.0550,-0.8043,-0.5457,-0.1520
10.0550,-0.8043,-0.5457,-0.1520
10.0550,-0.8043,-0.5457,-0.1520
10.0660,-0.7977,-0.5323,-0.1403
10.0660,-0.7977,-0.5323,-0.1403
10.0660,-0.7977,-0.5323,-0.1403
10.0850,-0.8089,-0.5267,-0.1537
10.0850,-0.8089,-0.5267,-0.1537
10.0860,-0.8089,-0.5267,-0.1537
10.1060,-0.8077,-0.5433,-0.1796
10.1070,-0.8077,-0.5433,-0.1796
10.1070,-0.8077,-0.5433,-0.1796
10.1270,-0.7901,-0.5565,-0.1730
10.1280,-0.7901,-0.5565,-0.1730
10.1280,-0.7901,-0.5565,-0.1730
10.1290,-0.7901,-0.5565,-0.1730
10.1290,-0.7901,-0.5565,-0.1730
10.1490,-0.7901,-0.5565,-0.1730
10.1500,-0.8226,-0.5333,-0.1559
10.1500,-0.8226,-0.5333,-0.1559
10.1510,-0.8226,-0.5333,-0.1559
10.1680,-0.8395,-0.5230,-0.1388
10.1710,-0.8395,-0.5230,-0.1388
10.1720,-0.8395,-0.5230,-0.1388
10.1730,-0.8395,-0.5230,-0.1388
10.1850,-0.8268,-0.5306,-0.1461
10.1860,-0.8268,-0.5306,-0.1461
10.1860,-0.8268,-0.5306,-0.1461
10.2070,-0.8209,-0.5384,-0.1530
10.2070,-0.8209,-0.5384,-0.1530
10.2080,-0.8209,-0.5384,-0.1530
10.2080,-0.8209,-0.5384,-0.1530
10.2090,-0.8209,-0.5384,-0.1530
10.2260,-0.8317,-0.5506,-0.1515
10.2270,-0.8317,-0.5506,-0.1515
10.2280,-0.8317,-0.5506,-0.1515
10.2480,-0.8202,-0.5477,-0.1598
10.2510,-0.8202,-0.5477,-0.1598
10.2520,-0.8202,-0.5477,-0.1598
10.2690,-0.7965,-0.5479,-0.1728
10.2710,-0.7965,-0.5479,-0.1728
10.2720,-0.7965,-0.5479,-0.1728
10.2880,-0.7855,-0.5560,-0.1696
10.2890,-0.7855,-0.5560,-0.1696
10.2890,-0.7855,-0.5560,-0.1696
10.2900,-0.7855,-0.5560,-0.1696
10.2900,-0.7855,-0.5560,-0.1696
10.3070,-0.7813,-0.5540,-0.1542
10.3080,-0.7813,-0.5540,-0.1542
10.3090,-0.7813,-0.5540,-0.1542
10.3280,-0.8006,-0.5364,-0.1491
10.3290,-0.8006,-0.5364,-0.1491
10.3300,-0.8006,-0.5364,-0.1491
10.3470,-0.8006,-0.5364,-0.1491
10.3480,-0.8224,-0.5342,-0.1486
10.3490,-0.8224,-0.5342,-0.1486
10.3490,-0.8224,-0.5342,-0.1486
10.3670,-0.7938,-0.5504,-0.1598
10.3670,-0.7938,-0.5504,-0.1598
10.3690,-0.7938,-0.5504,-0.1598
10.3700,-0.7938,-0.5504,-0.1598
10.3710,-0.7938,-0.5504,-0.1598
10.3860,-0.7818,-0.5477,-0.1593
10.3870,-0.7818,-0.5477,-0.1593
10.3870,-0.7818,-0.5477,-0.1593
10.4070,-0.8050,-0.5394,-0.1488
10.4080,-0.8050,-0.5394,-0.1488
10.4080,-0.8050,-0.5394,-0.1488
10.4290,-0.8251,-0.5364,-0.1513
10.4290,-0.8251,-0.5364,-0.1513
10.4320,-0.8251,-0.5364,-0.1513
10.4460,-0.8106,-0.5450,-0.1322
10.4470,-0.8106,-0.5450,-0.1322
10.4470,-0.8106,-0.5450,-0.1322
10.4480,-0.8106,-0.5450,-0.1322
10.4490,-0.8106,-0.5450,-0.1322
10.4660,-0.7999,-0.5467,-0.1403
10.4700,-0.7999,-0.5467,-0.1403
10.4700,-0.7999,-0.5467,-0.1403
10.4880,-0.8136,-0.5308,-0.1391
10.4890,-0.8136,-0.5308,-0.1391
10.4900,-0.8136,-0.5308,-0.1391
10.5070,-0.8099,-0.5267,-0.1432
10.5070,-0.8099,-0.5267,-0.1432
10.5080,-0.8099,-0.5267,-0.1432
10.5290,-0.7698,-0.5482,-0.1664
10.6110,-0.7698,-0.5482,-0.1664
10.6110,-0.7698,-0.5482,-0.1664
10.6110,-0.7698,-0.5482,-0.1664
10.6110,-0.7698,-0.5482,-0.1664
10.6120,-0.7698,-0.5482,-0.1664
10.6120,-0.7874,-0.5785,-0.1589
10.6120,-0.7874,-0.5785,-0.1589
10.6130,-0.7874,-0.5785,-0.1589
10.6140,-0.8089,-0.5645,-0.1491
10.6140,-0.8089,-0.5645,-0.1491
10.6140,-0.8089,-0.5645,-0.1491
10.6140,-0.8089,-0.5645,-0.1491
10.6140,-0.8207,-0.5215,-0.1557
10.6140,-0.8207,-0.5215,-0.1557
10.6150,-0.8207,-0.5215,-0.1557
10.6150,-0.8080,-0.5227,-0.1608
10.6150,-0.8080,-0.5227,-0.1608
10.6150,-0.8080,-0.5227,-0.1608
10.6150,-0.8080,-0.5227,-0.1608
10.6150,-0.8080,-0.5227,-0.1608
10.6220,-0.8038,-0.5491,-0.1540
10.6220,-0.8038,-0.5491,-0.1540
10.6230,-0.8038,-0.5491,-0.1540
10.6440,-0.8009,-0.5531,-0.1415
10.6440,-0.8009,-0.5531,-0.1415
10.6440,-0.8009,-0.5531,-0.1415
10.6630,-0.8070,-0.5323,-0.1525
10.6640,-0.8070,-0.5323,-0.1525
10.6640,-0.8070,-0.5323,-0.1525
10.6850,-0.8319,-0.5362,-0.1273
10.6860,-0.8319,-0.5362,-0.1273
10.6860,-0.8319,-0.5362,-0.1273
10.6870,-0.8319,-0.5362,-0.1273
10.6870,-0.8319,-0.5362,-0.1273
10.7050,-0.8111,-0.5443,-0.1344
10.7050,-0.8111,-0.5443,-0.1344
10.7060,-0.8111,-0.5443,-0.1344
10.7260,-0.8028,-0.5477,-0.1672
10.7260,-0.8028,-0.5477,-0.1672
10.7270,-0.8028,-0.5477,-0.1672
10.7460,-0.8028,-0.5477,-0.1672
10.7460,-0.8358,-0.5472,-0.1601
10.7470,-0.8358,-0.5472,-0.1601
10.7470,-0.8358,-0.5472,-0.1601
10.7650,-0.8187,-0.5491,-0.1579
10.7660,-0.8187,-0.5491,-0.1579
10.7660,-0.8187,-0.5491,-0.1579
10.7670,-0.8187,-0.5491,-0.1579
10.7670,-0.8187,-0.5491,-0.1579
10.7850,-0.7764,-0.5592,-0.1571
10.7860,-0.7764,-0.5592,-0.1571
10.7860,-0.7764,-0.5592,-0.1571
10.8050,-0.7632,-0.5545,-0.1640
10.8060,-0.7632,-0.5545,-0.1640
10.8070,-0.7632,-0.5545,-0.1640
10.8250,-0.7860,-0.5416,-0.1420
10.8260,-0.7860,-0.5416,-0.1420
10.8260,-0.7860,-0.5416,-0.1420
10.8440,-0.8326,-0.5249,-0.1325
10.8460,-0.8326,-0.5249,-0.1325
10.8480,-0.8326,-0.5249,-0.1325
10.8500,-0.8326,-0.5249,-0.1325
10.8510,-0.8326,-0.5249,-0.1325
10.8660,-0.8297,-0.5210,-0.1525
10.8680,-0.8297,-0.5210,-0.1525
10.8680,-0.8297,-0.5210,-0.1525
10.8850,-0.7869,-0.5369,-0.1723
10.8860,-0.7869,-0.5369,-0.1723
10.8860,-0.7869,-0.5369,-0.1723
10.9070,-0.8016,-0.5457,-0.1608
10.9080,-0.8016,-0.5457,-0.1608
10.9080,-0.8016,-0.5457,-0.1608
10.9260,-0.8207,-0.5423,-0.1579
10.9290,-0.8207,-0.5423,-0.1579
10.9290,-0.8207,-0.5423,-0.1579
10.9300,-0.8207,-0.5423,-0.1579
10.9300,-0.8207,-0.5423,-0.1579
10.9460,-0.8207,-0.5423,-0.1579
10.9460,-0.8143,-0.5386,-0.1562
10.9470,-0.8143,-0.5386,-0.1562
10.9470,-0.8143,-0.5386,-0.1562
10.9650,-0.7879,-0.5411,-0.1633
10.9650,-0.7879,-0.5411,-0.1633
10.9660,-0.7879,-0.5411,-0.1633
10.9860,-0.7862,-0.5467,-0.1491
10.9870,-0.7862,-0.5467,-0.1491
10.9870,-0.7862,-0.5467,-0.1491
11.0040,-0.7948,-0.5433,-0.1381
11.0050,-0.7948,-0.5433,-0.1381
11.0060,-0.7948,-0.5433,-0.1381
11.0080,-0.7948,-0.5433,-0.1381
11.0090,-0.7948,-0.5433,-0.1381
11.0260,-0.8104,-0.5330,-0.1430
11.0260,-0.8104,-0.5330,-0.1430
11.0270,-0.8104,-0.5330,-0.1430
11.0450,-0.7948,-0.5489,-0.1442
11.0450,-0.7948,-0.5489,-0.1442
11.0460,-0.7948,-0.5489,-0.1442
11.0660,-0.8033,-0.5677,-0.1452
11.0660,-0.8033,-0.5677,-0.1452
11.1490,-0.8033,-0.5677,-0.1452
11.1490,-0.8075,-0.5550,-0.1567
11.1500,-0.8075,-0.5550,-0.1567
11.1500,-0.8075,-0.5550,-0.1567
11.1500,-0.8075,-0.5550,-0.1567
11.1500,-0.8075,-0.5550,-0.1567
11.1500,-0.7972,-0.5401,-0.1650
11.1510,-0.7972,-0.5401,-0.1650
11.1510,-0.7972,-0.5401,-0.1650
11.1510,-0.7945,-0.5377,-0.1628
11.1510,-0.7945,-0.5377,-0.1628
11.1510,-0.7945,-0.5377,-0.1628
11.1510,-0.7945,-0.5377,-0.1628
11.1520,-0.8084,-0.5377,-0.1510
11.1520,-0.8084,-0.5377,-0.1510
11.1520,-0.8084,-0.5377,-0.1510
11.1580,-0.8160,-0.5374,-0.1447
11.1590,-0.8160,-0.5374,-0.1447
11.1590,-0.8160,-0.5374,-0.1447
11.1620,-0.8160,-0.5374,-0.1447
11.1620,-0.8160,-0.5374,-0.1447
11.1820,-0.8177,-0.5406,-0.1442
11.1820,-0.8177,-0.5406,-0.1442
11.1830,-0.8177,-0.5406,-0.1442
11.2040,-0.8124,-0.5389,-0.1442
11.2040,-0.8124,-0.5389,-0.1442
11.2050,-0.8124,-0.5389,-0.1442
11.2200,-0.8089,-0.5389,-0.1347
11.2210,-0.8089,-0.5389,-0.1347
11.2210,-0.8089,-0.5389,-0.1347
11.2420,-0.8194,-0.5379,-0.1378
11.2430,-0.8194,-0.5379,-0.1378
11.2430,-0.8194,-0.5379,-0.1378
11.2440,-0.8194,-0.5379,-0.1378
11.2440,-0.8194,-0.5379,-0.1378
11.2640,-0.8165,-0.5333,-0.1696
11.2650,-0.8165,-0.5333,-0.1696
11.2650,-0.8165,-0.5333,-0.1696
11.2890,-0.8260,-0.5413,-0.1589
11.2890,-0.8260,-0.5413,-0.1589
11.2900,-0.8260,-0.5413,-0.1589
11.3040,-0.8165,-0.5455,-0.1547
11.3050,-0.8165,-0.5455,-0.1547
11.3060,-0.8165,-0.5455,-0.1547
11.3200,-0.7940,-0.5433,-0.1708
11.3220,-0.7940,-0.5433,-0.1708
11.3220,-0.7940,-0.5433,-0.1708
11.3270,-0.7940,-0.5433,-0.1708
11.3270,-0.7940,-0.5433,-0.1708
11.3420,-0.7940,-0.5433,-0.1708
11.3420,-0.7850,-0.5513,-0.1667
11.3430,-0.7850,-0.5513,-0.1667
11.3430,-0.7850,-0.5513,-0.1667
11.3600,-0.7999,-0.5455,-0.1437
11.3610,-0.7999,-0.5455,-0.1437
11.3620,-0.7999,-0.5455,-0.1437
11.3820,-0.8116,-0.5372,-0.1320
11.3820,-0.8116,-0.5372,-0.1320
11.3830,-0.8116,-0.5372,-0.1320
11.4000,-0.8177,-0.5377,-0.1459
11.4010,-0.8177,-0.5377,-0.1459
11.4010,-0.8177,-0.5377,-0.1459
11.4050,-0.8177,-0.5377,-0.1459
11.4050,-0.8177,-0.5377,-0.1459
11.4260,-0.8102,-0.5472,-0.1564
11.4260,-0.8102,-0.5472,-0.1564
11.4270,-0.8102,-0.5472,-0.1564
11.4410,-0.8109,-0.5496,-0.1574
11.4420,-0.8109,-0.5496,-0.1574
11.4430,-0.8109,-0.5496,-0.1574
11.4620,-0.8170,-0.5413,-0.1581
11.4630,-0.8170,-0.5413,-0.1581
11.4630,-0.8170,-0.5413,-0.1581
11.4820,-0.8097,-0.5337,-0.1593
11.4820,-0.8097,-0.5337,-0.1593
11.4830,-0.8097,-0.5337,-0.1593
11.4840,-0.8097,-0.5337,-0.1593
11.4850,-0.8097,-0.5337,-0.1593
11.5040,-0.8094,-0.5296,-0.1637
11.5050,-0.8094,-0.5296,-0.1637
11.5050,-0.8094,-0.5296,-0.1637
11.5220,-0.8187,-0.5262,-0.1642
11.5220,-0.8187,-0.5262,-0.1642
11.5230,-0.8187,-0.5262,-0.1642
11.5410,-0.8187,-0.5262,-0.1642
11.5420,-0.8062,-0.5364,-0.1523
11.5420,-0.8062,-0.5364,-0.1523
11.5430,-0.8062,-0.5364,-0.1523
11.5610,-0.7933,-0.5335,-0.1496
11.5620,-0.7933,-0.5335,-0.1496
11.5620,-0.7933,-0.5335,-0.1496
11.5630,-0.7933,-0.5335,-0.1496
11.5640,-0.7933,-0.5335,-0.1496
11.5810,-0.8028,-0.5301,-0.1488
11.5820,-0.8028,-0.5301,-0.1488
11.5830,-0.8028,-0.5301,-0.1488
11.6030,-0.8238,-0.5369,-0.1273
11.6040,-0.8238,-0.5369,-0.1273
11.6050,-0.8238,-0.5369,-0.1273
11.6250,-0.8238,-0.5352,-0.1290
11.7120,-0.8238,-0.5352,-0.1290
11.7120,-0.8238,-0.5352,-0.1290
11.7130,-0.7889,-0.5333,-0.1593
11.7130,-0.7889,-0.5333,-0.1593
11.7130,-0.7889,-0.5333,-0.1593
11.7130,-0.7889,-0.5333,-0.1593
11.7130,-0.7889,-0.5333,-0.1593
11.7140,-0.8050,-0.5391,-0.1659
11.7140,-0.8050,-0.5391,-0.1659
11.7140,-0.8050,-0.5391,-0.1659
11.7140,-0.8165,-0.5425,-0.1545
11.7150,-0.8165,-0.5425,-0.1545
11.7150,-0.8165,-0.5425,-0.1545
11.7150,-0.7996,-0.5347,-0.1542
11.7150,-0.7996,-0.5347,-0.1542
11.7160,-0.7996,-0.5347,-0.1542
11.7160,-0.7747,-0.5342,-0.1711
11.7160,-0.7747,-0.5342,-0.1711
11.7160,-0.7747,-0.5342,-0.1711
11.7180,-0.7747,-0.5342,-0.1711
11.7180,-0.7747,-0.5342,-0.1711
11.7350,-0.7747,-0.5342,-0.1711
11.7350,-0.7791,-0.5347,-0.1640
11.7360,-0.7791,-0.5347,-0.1640
11.7360,-0.7791,-0.5347,-0.1640
11.7560,-0.8001,-0.5328,-0.1437
11.7560,-0.8001,-0.5328,-0.1437
11.7570,-0.8001,-0.5328,-0.1437
11.7770,-0.8192,-0.5264,-0.1408
11.7770,-0.8192,-0.5264,-0.1408
11.7770,-0.8192,-0.5264,-0.1408
11.7960,-0.8070,-0.5359,-0.1496
11.7970,-0.8070,-0.5359,-0.1496
11.7970,-0.8070,-0.5359,-0.1496
11.7990,-0.8070,-0.5359,-0.1496
11.7990,-0.8070,-0.5359,-0.1496
11.8170,-0.8026,-0.5460,-0.1620
11.8180,-0.8026,-0.5460,-0.1620
11.8180,-0.8026,-0.5460,-0.1620
11.8370,-0.8148,-0.5462,-0.1657
11.8380,-0.8148,-0.5462,-0.1657
11.8380,-0.8148,-0.5462,-0.1657
11.8590,-0.8236,-0.5408,-0.1483
11.8600,-0.8236,-0.5408,-0.1483
11.8600,-0.8236,-0.5408,-0.1483
11.8770,-0.8295,-0.5274,-0.1540
11.8780,-0.8295,-0.5274,-0.1540
11.8790,-0.8295,-0.5274,-0.1540
11.8790,-0.8295,-0.5274,-0.1540
11.8790,-0.8295,-0.5274,-0.1540
11.9030,-0.8160,-0.5232,-0.1513
11.9030,-0.8160,-0.5232,-0.1513
11.9060,-0.8160,-0.5232,-0.1513
11.9180,-0.8084,-0.5367,-0.1439
11.9190,-0.8084,-0.5367,-0.1439
11.9190,-0.8084,-0.5367,-0.1439
11.9380,-0.8084,-0.5367,-0.1439
11.9390,-0.8102,-0.5477,-0.1549
11.9390,-0.8102,-0.5477,-0.1549
11.9400,-0.8102,-0.5477,-0.1549
11.9580,-0.8102,-0.5477,-0.1549
11.9590,-0.8128,-0.5509,-0.1603
11.9590,-0.8128,-0.5509,-0.1603
11.9600,-0.8128,-0.5509,-0.1603
11.9620,-0.8128,-0.5509,-0.1603
11.9630,-0.8128,-0.5509,-0.1603
11.9760,-0.8065,-0.5428,-0.1591
11.9760,-0.8065,-0.5428,-0.1591
11.9770,-0.8065,-0.5428,-0.1591
11.9980,-0.8067,-0.5333,-0.1552
11.9990,-0.8067,-0.5333,-0.1552
11.9990,-0.8067,-0.5333,-0.1552
12.0190,-0.8124,-0.5384,-0.1611
12.0200,-0.8124,-0.5384,-0.1611
12.0220,-0.8124,-0.5384,-0.1611
12.0370,-0.8243,-0.5484,-0.1545
12.0380,-0.8243,-0.5484,-0.1545
12.0390,-0.8243,-0.5484,-0.1545
12.0390,-0.8243,-0.5484,-0.1545
12.0400,-0.8243,-0.5484,-0.1545
12.0560,-0.8092,-0.5479,-0.1559
12.0560,-0.8092,-0.5479,-0.1559
12.0570,-0.8092,-0.5479,-0.1559
12.0780,-0.8018,-0.5433,-0.1691
12.0780,-0.8018,-0.5433,-0.1691
12.0790,-0.8018,-0.5433,-0.1691
12.0970,-0.7955,-0.5465,-0.1564
12.0990,-0.7955,-0.5465,-0.1564
12.0990,-0.7955,-0.5465,-0.1564
12.1180,-0.8040,-0.5340,-0.1549
12.1190,-0.8040,-0.5340,-0.1549
12.1190,-0.8040,-0.5340,-0.1549
12.1190,-0.8040,-0.5340,-0.1549
12.1200,-0.8040,-0.5340,-0.1549
12.1340,-0.8040,-0.5340,-0.1549
12.1340,-0.8094,-0.5318,-0.1430
12.1350,-0.8094,-0.5318,-0.1430
12.1350,-0.8094,-0.5318,-0.1430
12.1550,-0.8048,-0.5340,-0.1537
12.1550,-0.8048,-0.5340,-0.1537
12.2460,-0.8048,-0.5340,-0.1537
12.2460,-0.8023,-0.5335,-0.1535
12.2470,-0.8023,-0.5335,-0.1535
12.2470,-0.8023,-0.5335,-0.1535
12.2470,-0.8163,-0.5384,-0.1403
12.2470,-0.8163,-0.5384,-0.1403
12.2470,-0.8163,-0.5384,-0.1403
12.2480,-0.8163,-0.5384,-0.1403
12.2480,-0.8163,-0.5384,-0.1403
12.2480,-0.7830,-0.5443,-0.1596
12.2490,-0.7830,-0.5443,-0.1596
12.2490,-0.7830,-0.5443,-0.1596
12.2490,-0.7994,-0.5553,-0.1696
12.2490,-0.7994,-0.5553,-0.1696
12.2500,-0.7994,-0.5553,-0.1696
12.2510,-0.8060,-0.5450,-0.1596
12.2510,-0.8060,-0.5450,-0.1596
12.2510,-0.8060,-0.5450,-0.1596
12.2760,-0.8141,-0.5308,-0.1486
12.2760,-0.8141,-0.5308,-0.1486
12.2760,-0.8141,-0.5308,-0.1486
12.2760,-0.8141,-0.5308,-0.1486
12.2760,-0.8141,-0.5308,-0.1486
12.2930,-0.8011,-0.5337,-0.1611
12.2940,-0.8011,-0.5337,-0.1611
12.2950,-0.8011,-0.5337,-0.1611
12.3130,-0.7894,-0.5342,-0.1630
12.3140,-0.7894,-0.5342,-0.1630
12.3140,-0.7894,-0.5342,-0.1630
12.3310,-0.7894,-0.5342,-0.1630
12.3330,-0.8187,-0.5399,-0.1545
12.3340,-0.8187,-0.5399,-0.1545
12.3340,-0.8187,-0.5399,-0.1545
12.3520,-0.8187,-0.5399,-0.1545
12.3530,-0.8268,-0.5440,-0.1540
12.3550,-0.8268,-0.5440,-0.1540
12.3550,-0.8268,-0.5440,-0.1540
12.3560,-0.8268,-0.5440,-0.1540
12.3560,-0.8268,-0.5440,-0.1540
12.3750,-0.8182,-0.5362,-0.1596
12.3760,-0.8182,-0.5362,-0.1596
12.3760,-0.8182,-0.5362,-0.1596
12.3930,-0.8356,-0.5330,-0.1537
12.3940,-0.8356,-0.5330,-0.1537
12.3940,-0.8356,-0.5330,-0.1537
12.4130,-0.8304,-0.5359,-0.1452
12.4130,-0.8304,-0.5359,-0.1452
12.4140,-0.8304,-0.5359,-0.1452
12.4340,-0.8111,-0.5423,-0.1535
12.4350,-0.8111,-0.5423,-0.1535
12.4350,-0.8111,-0.5423,-0.1535
12.4360,-0.8111,-0.5423,-0.1535
12.4360,-0.8111,-0.5423,-0.1535
12.4520,-0.8050,-0.5440,-0.1650
12.4530,-0.8050,-0.5440,-0.1650
12.4530,-0.8050,-0.5440,-0.1650
12.4750,-0.8080,-0.5323,-0.1760
12.4750,-0.8080,-0.5323,-0.1760
12.4760,-0.8080,-0.5323,-0.1760
12.4920,-0.7938,-0.5337,-0.1598
12.4930,-0.7938,-0.5337,-0.1598
12.4930,-0.7938,-0.5337,-0.1598
12.5130,-0.7948,-0.5301,-0.1505
12.5140,-0.7948,-0.5301,-0.1505
12.5150,-0.7948,-0.5301,-0.1505
12.5150,-0.7948,-0.5301,-0.1505
12.5160,-0.7948,-0.5301,-0.1505
12.5320,-0.7948,-0.5301,-0.1505
12.5330,-0.8146,-0.5206,-0.1439
12.5330,-0.8146,-0.5206,-0.1439
12.5340,-0.8146,-0.5206,-0.1439
12.5510,-0.8146,-0.5206,-0.1439
12.5520,-0.8204,-0.5315,-0.1611
12.5520,-0.8204,-0.5315,-0.1611
12.5530,-0.8204,-0.5315,-0.1611
12.5720,-0.8082,-0.5557,-0.1420
12.5730,-0.8082,-0.5557,-0.1420
12.5730,-0.8082,-0.5557,-0.1420
12.5930,-0.7852,-0.5626,-0.1799
12.5940,-0.7852,-0.5626,-0.1799
12.5950,-0.7852,-0.5626,-0.1799
12.5950,-0.7852,-0.5626,-0.1799
12.5960,-0.7852,-0.5626,-0.1799
12.6120,-0.7952,-0.5188,-0.2278
12.6120,-0.7952,-0.5188,-0.2278
12.6130,-0.7952,-0.5188,-0.2278
12.6320,-0.7818,-0.4978,-0.1633
12.6320,-0.7818,-0.4978,-0.1633
12.6330,-0.7818,-0.4978,-0.1633
12.6550,-0.7938,-0.5386,-0.1574
12.6550,-0.7938,-0.5386,-0.1574
12.6560,-0.7938,-0.5386,-0.1574
12.6720,-0.8383,-0.5531,-0.1239
12.6730,-0.8383,-0.5531,-0.1239
12.6730,-0.8383,-0.5531,-0.1239
12.6740,-0.8383,-0.5531,-0.1239
12.6740,-0.8383,-0.5531,-0.1239
12.6920,-0.8588,-0.5105,-0.1234
12.6920,-0.8588,-0.5105,-0.1234
12.6920,-0.8588,-0.5105,-0.1234
12.7720,-0.8155,-0.4910,-0.1068
12.7720,-0.8155,-0.4910,-0.1068
12.7730,-0.8155,-0.4910,-0.1068
12.7730,-0.8155,-0.4910,-0.1068
12.7730,-0.7713,-0.5130,-0.1391
12.7740,-0.7713,-0.5130,-0.1391
12.7740,-0.7713,-0.5130,-0.1391
12.7740,-0.7557,-0.5279,-0.1972
12.7740,-0.7557,-0.5279,-0.1972
12.7750,-0.7557,-0.5279,-0.1972
12.7750,-0.7557,-0.5279,-0.1972
12.7750,-0.7557,-0.5279,-0.1972
12.7750,-0.7899,-0.5604,-0.1757
12.7760,-0.7899,-0.5604,-0.1757
12.7760,-0.7899,-0.5604,-0.1757
12.7940,-0.8233,-0.5543,-0.1689
12.7940,-0.8233,-0.5543,-0.1689
12.7950,-0.8233,-0.5543,-0.1689
12.8080,-0.8392,-0.5149,-0.1523
12.8080,-0.8392,-0.5149,-0.1523
12.8080,-0.8392,-0.5149,-0.1523
12.8290,-0.8014,-0.5059,-0.1557
12.8300,-0.8014,-0.5059,-0.1557
12.8300,-0.8014,-0.5059,-0.1557
12.8330,-0.8014,-0.5059,-0.1557
12.8330,-0.8014,-0.5059,-0.1557
12.8490,-0.7696,-0.5276,-0.1713
12.8490,-0.7696,-0.5276,-0.1713
12.8500,-0.7696,-0.5276,-0.1713
12.8700,-0.8080,-0.5359,-0.1501
12.8710,-0.8080,-0.5359,-0.1501
12.8710,-0.8080,-0.5359,-0.1501
12.8890,-0.8593,-0.5330,-0.1342
12.8900,-0.8593,-0.5330,-0.1342
12.8910,-0.8593,-0.5330,-0.1342
12.9090,-0.8620,-0.5313,-0.1515
12.9100,-0.8620,-0.5313,-0.1515
12.9110,-0.8620,-0.5313,-0.1515
12.9120,-0.8620,-0.5313,-0.1515
12.9130,-0.8620,-0.5313,-0.1515
12.9260,-0.8620,-0.5313,-0.1515
12.9290,-0.8321,-0.5318,-0.1674
12.9290,-0.8321,-0.5318,-0.1674
12.9300,-0.8321,-0.5318,-0.1674
12.9490,-0.7894,-0.5423,-0.1562
12.9500,-0.7894,-0.5423,-0.1562
12.9500,-0.7894,-0.5423,-0.1562
12.9680,-0.7948,-0.5171,-0.1613
12.9690,-0.7948,-0.5171,-0.1613
12.9690,-0.7948,-0.5171,-0.1613
12.9920,-0.8273,-0.4986,-0.1662
12.9920,-0.8273,-0.4986,-0.1662
12.9930,-0.8273,-0.4986,-0.1662
12.9930,-0.8273,-0.4986,-0.1662
12.9930,-0.8273,-0.4986,-0.1662
13.0080,-0.8568,-0.5293,-0.1523
13.0080,-0.8568,-0.5293,-0.1523
13.0090,-0.8568,-0.5293,-0.1523
13.0290,-0.8483,-0.5479,-0.1628
13.0300,-0.8483,-0.5479,-0.1628
13.0310,-0.8483,-0.5479,-0.1628
13.0480,-0.8216,-0.5381,-0.1701
13.0490,-0.8216,-0.5381,-0.1701
13.0490,-0.8216,-0.5381,-0.1701
13.0680,-0.8053,-0.5171,-0.1742
13.0700,-0.8053,-0.5171,-0.1742
13.0730,-0.8053,-0.5171,-0.1742
13.0750,-0.8053,-0.5171,-0.1742
13.0750,-0.8053,-0.5171,-0.1742
13.0890,-0.8111,-0.5198,-0.1655
13.0900,-0.8111,-0.5198,-0.1655
13.0900,-0.8111,-0.5198,-0.1655
13.1090,-0.8353,-0.5323,-0.1530
13.1100,-0.8353,-0.5323,-0.1530
13.1100,-0.8353,-0.5323,-0.1530
13.1270,-0.8353,-0.5323,-0.1530
13.1280,-0.8273,-0.5303,-0.1703
13.1280,-0.8273,-0.5303,-0.1703
13.1290,-0.8273,-0.5303,-0.1703
13.1540,-0.8097,-0.5022,-0.2094
13.1540,-0.8097,-0.5022,-0.2094
13.1550,-0.8097,-0.5022,-0.2094
13.1550,-0.8097,-0.5022,-0.2094
13.1560,-0.8097,-0.5022,-0.2094
13.1690,-0.7913,-0.5083,-0.2151
13.1690,-0.7913,-0.5083,-0.2151
13.1700,-0.7913,-0.5083,-0.2151
13.1890,-0.7838,-0.5267,-0.2153
13.1900,-0.7838,-0.5267,-0.2153
13.1900,-0.7838,-0.5267,-0.2153
13.2080,-0.8021,-0.5030,-0.2026
13.2100,-0.8021,-0.5030,-0.2026
13.2100,-0.8021,-0.5030,-0.2026
13.2300,-0.8080,-0.4993,-0.1928
13.2310,-0.8080,-0.4993,-0.1928
13.2320,-0.8080,-0.4993,-0.1928
13.2320,-0.8080,-0.4993,-0.1928
13.2320,-0.8080,-0.4993,-0.1928
13.2470,-0.8067,-0.5191,-0.2195
13.2480,-0.8067,-0.5191,-0.2195
13.3010,-0.8067,-0.5191,-0.2195
13.3010,-0.7999,-0.5174,-0.2478
13.3010,-0.7999,-0.5174,-0.2478
13.3010,-0.7999,-0.5174,-0.2478
13.3010,-0.8361,-0.5284,-0.2505
13.3010,-0.8361,-0.5284,-0.2505
13.3020,-0.8361,-0.5284,-0.2505
13.3050,-0.8686,-0.5120,-0.2077
13.3050,-0.8686,-0.5120,-0.2077
13.3050,-0.8686,-0.5120,-0.2077
13.3080,-0.8686,-0.5120,-0.2077
13.3080,-0.8686,-0.5120,-0.2077
13.3240,-0.8686,-0.5120,-0.2077
13.3250,-0.8698,-0.4836,-0.1906
13.3250,-0.8698,-0.4836,-0.1906
13.3250,-0.8698,-0.4836,-0.1906
13.3450,-0.7640,-0.5012,-0.2087
13.3450,-0.7640,-0.5012,-0.2087
13.3450,-0.7640,-0.5012,-0.2087
13.3640,-0.7838,-0.5164,-0.2473
13.3650,-0.7838,-0.5164,-0.2473
13.3650,-0.7838,-0.5164,-0.2473
13.3850,-0.8168,-0.5047,-0.2473
13.3850,-0.8168,-0.5047,-0.2473
13.3850,-0.8168,-0.5047,-0.2473
13.3880,-0.8168,-0.5047,-0.2473
13.3880,-0.8168,-0.5047,-0.2473
13.4050,-0.7691,-0.4964,-0.2317
13.4050,-0.7691,-0.4964,-0.2317
13.4050,-0.7691,-0.4964,-0.2317
13.4240,-0.8004,-0.5091,-0.2283
13.4250,-0.8004,-0.5091,-0.2283
13.4250,-0.8004,-0.5091,-0.2283
13.4440,-0.8573,-0.5240,-0.1505
13.4450,-0.8573,-0.5240,-0.1505
13.4450,-0.8573,-0.5240,-0.1505
