
time,AccelerometerX,AccelerometerY,AccelerometerZ
0.0070,-0.6281,-0.3062,0.7674
0.0080,-0.6281,-0.3062,0.7674
0.0080,-0.6281,-0.3062,0.7674
0.0430,-0.6432,-0.3040,0.7491
0.0430,-0.6432,-0.3040,0.7491
0.0440,-0.6432,-0.3040,0.7491
0.0440,-0.6432,-0.3040,0.7491
0.0440,-0.6432,-0.3040,0.7491
0.0440,-0.5213,-0.3228,0.7153
0.0440,-0.5213,-0.3228,0.7153
0.0450,-0.5213,-0.3228,0.7153
0.0520,-0.5213,-0.3228,0.7153
0.0640,-0.5284,-0.3289,0.7371
0.0640,-0.5284,-0.3289,0.7371
0.0640,-0.5284,-0.3289,0.7371
0.0860,-0.5882,-0.3028,0.7649
0.0860,-0.5882,-0.3028,0.7649
0.0860,-0.5882,-0.3028,0.7649
0.1040,-0.5697,-0.3018,0.7965
0.1050,-0.5697,-0.3018,0.7965
0.1050,-0.5697,-0.3018,0.7965
0.1080,-0.5697,-0.3018,0.7965
0.1080,-0.5697,-0.3018,0.7965
0.1240,-0.5369,-0.3160,0.7774
0.1240,-0.5369,-0.3160,0.7774
0.1240,-0.5369,-0.3160,0.7774
0.1430,-0.5291,-0.3302,0.7588
0.1440,-0.5291,-0.3302,0.7588
0.1440,-0.5291,-0.3302,0.7588
0.1640,-0.5487,-0.3145,0.7139
0.1650,-0.5487,-0.3145,0.7139
0.1650,-0.5487,-0.3145,0.7139
0.1840,-0.5550,-0.3026,0.7239
0.1840,-0.5550,-0.3026,0.7239
0.1840,-0.5550,-0.3026,0.7239
0.1880,-0.5550,-0.3026,0.7239
0.1880,-0.5550,-0.3026,0.7239
0.2030,-0.5372,-0.3050,0.7258
0.2050,-0.5372,-0.3050,0.7258
0.2050,-0.5372,-0.3050,0.7258
0.2230,-0.5619,-0.3018,0.7222
0.2230,-0.5619,-0.3018,0.7222
0.2230,-0.5619,-0.3018,0.7222
0.2430,-0.5604,-0.2925,0.7466
0.2430,-0.5604,-0.2925,0.7466
0.2430,-0.5604,-0.2925,0.7466
0.2520,-0.5604,-0.2925,0.7466
0.2640,-0.5230,-0.2850,0.7278
0.2640,-0.5230,-0.2850,0.7278
0.2640,-0.5230,-0.2850,0.7278
0.2640,-0.5230,-0.2850,0.7278
0.2650,-0.5230,-0.2850,0.7278
0.2860,-0.5281,-0.2916,0.7097
0.2860,-0.5281,-0.2916,0.7097
0.2860,-0.5281,-0.2916,0.7097
0.3030,-0.5323,-0.3133,0.7366
0.3030,-0.5323,-0.3133,0.7366
0.3030,-0.5323,-0.3133,0.7366
0.3220,-0.5374,-0.3170,0.7508
0.3230,-0.5374,-0.3170,0.7508
0.3230,-0.5374,-0.3170,0.7508
0.3430,-0.6007,-0.3128,0.7373
0.3430,-0.6007,-0.3128,0.7373
0.3430,-0.6007,-0.3128,0.7373
0.3630,-0.6007,-0.3128,0.7373
0.3630,-0.6007,-0.3128,0.7373
0.3660,-0.5770,-0.3048,0.7654
0.3660,-0.5770,-0.3048,0.7654
0.3660,-0.5770,-0.3048,0.7654
0.3820,-0.5191,-0.3028,0.7510
0.3820,-0.5191,-0.3028,0.7510
0.3820,-0.5191,-0.3028,0.7510
0.4020,-0.5655,-0.2632,0.7261
0.4020,-0.5655,-0.2632,0.7261
0.4020,-0.5655,-0.2632,0.7261
0.4220,-0.5340,-0.3341,0.7654
0.4220,-0.5340,-0.3341,0.7654
0.4230,-0.5340,-0.3341,0.7654
0.4230,-0.5340,-0.3341,0.7654
0.4420,-0.5714,-0.3729,0.7623
0.4420,-0.5714,-0.3729,0.7623
0.4430,-0.5714,-0.3729,0.7623
0.4510,-0.5714,-0.3729,0.7623
0.4620,-0.6562,-0.3341,0.7862
0.4630,-0.6562,-0.3341,0.7862
0.4630,-0.6562,-0.3341,0.7862
0.4820,-0.6804,-0.3192,0.7862
0.4820,-0.6804,-0.3192,0.7862
0.4820,-0.6804,-0.3192,0.7862
0.5020,-0.6085,-0.3363,0.7447
0.5020,-0.6085,-0.3363,0.7447
0.5020,-0.6085,-0.3363,0.7447
0.5050,-0.6085,-0.3363,0.7447
0.5050,-0.6085,-0.3363,0.7447
0.5230,-0.5208,-0.3434,0.7300
0.5230,-0.5208,-0.3434,0.7300
0.5230,-0.5208,-0.3434,0.7300
0.5410,-0.5389,-0.3263,0.7478
0.5420,-0.5389,-0.3263,0.7478
0.5420,-0.5389,-0.3263,0.7478
0.5620,-0.6139,-0.3096,0.7625
0.5620,-0.6139,-0.3096,0.7625
0.5630,-0.6139,-0.3096,0.7625
0.5810,-0.6327,-0.3082,0.7691
0.5820,-0.6327,-0.3082,0.7691
0.5840,-0.6327,-0.3082,0.7691
0.5850,-0.6327,-0.3082,0.7691
0.5850,-0.6327,-0.3082,0.7691
0.6010,-0.6105,-0.3233,0.7476
0.6010,-0.6105,-0.3233,0.7476
0.6020,-0.6105,-0.3233,0.7476
0.6210,-0.6071,-0.3241,0.7239
0.6220,-0.6071,-0.3241,0.7239
0.6220,-0.6071,-0.3241,0.7239
0.6410,-0.6335,-0.3180,0.7122
0.6410,-0.6335,-0.3180,0.7122
0.6420,-0.6335,-0.3180,0.7122
0.6490,-0.6335,-0.3180,0.7122
0.6610,-0.5758,-0.3150,0.6911
0.6610,-0.5758,-0.3150,0.6911
0.6620,-0.5758,-0.3150,0.6911
0.6640,-0.5758,-0.3150,0.6911
0.6640,-0.5758,-0.3150,0.6911
0.6810,-0.4920,-0.3155,0.6699
0.6810,-0.4920,-0.3155,0.6699
0.6820,-0.4920,-0.3155,0.6699
0.7010,-0.5159,-0.3128,0.7043
0.7010,-0.5159,-0.3128,0.7043
0.7010,-0.5159,-0.3128,0.7043
0.7210,-0.5438,-0.3461,0.7669
0.7220,-0.5438,-0.3461,0.7669
0.7220,-0.5438,-0.3461,0.7669
0.7410,-0.5394,-0.3492,0.7510
0.7410,-0.5394,-0.3492,0.7510
0.7410,-0.5394,-0.3492,0.7510
0.7440,-0.5394,-0.3492,0.7510
0.7450,-0.5394,-0.3492,0.7510
0.7610,-0.6112,-0.3084,0.7344
0.7610,-0.6112,-0.3084,0.7344
0.7610,-0.6112,-0.3084,0.7344
0.7800,-0.6112,-0.3084,0.7344
0.7810,-0.6134,-0.2935,0.7508
0.7810,-0.6134,-0.2935,0.7508
0.7810,-0.6134,-0.2935,0.7508
0.8010,-0.5367,-0.2908,0.7557
0.8010,-0.5367,-0.2908,0.7557
0.8010,-0.5367,-0.2908,0.7557
0.8200,-0.5653,-0.3206,0.7031
0.8200,-0.5653,-0.3206,0.7031
0.8200,-0.5653,-0.3206,0.7031
0.8230,-0.5653,-0.3206,0.7031
0.8240,-0.5653,-0.3206,0.7031
0.8420,-0.5548,-0.3712,0.7178
0.8420,-0.5548,-0.3712,0.7178
0.8420,-0.5548,-0.3712,0.7178
0.8470,-0.5548,-0.3712,0.7178
0.8610,-0.5680,-0.3619,0.7520
0.8610,-0.5680,-0.3619,0.7520
0.8610,-0.5680,-0.3619,0.7520
0.8800,-0.5748,-0.3211,0.7312
0.8800,-0.5748,-0.3211,0.7312
0.8800,-0.5748,-0.3211,0.7312
0.9000,-0.5484,-0.2930,0.7275
0.9010,-0.5484,-0.2930,0.7275
0.9500,-0.5484,-0.2930,0.7275
0.9500,-0.5484,-0.2930,0.7275
0.9510,-0.5484,-0.2930,0.7275
0.9510,-0.5738,-0.2896,0.7635
0.9510,-0.5738,-0.2896,0.7635
0.9510,-0.5738,-0.2896,0.7635
0.9510,-0.5772,-0.3206,0.7713
0.9510,-0.5772,-0.3206,0.7713
0.9510,-0.5772,-0.3206,0.7713
0.9630,-0.5731,-0.3338,0.7503
0.9630,-0.5731,-0.3338,0.7503
0.9630,-0.5731,-0.3338,0.7503
0.9810,-0.5731,-0.3338,0.7503
0.9810,-0.5963,-0.3255,0.7337
0.9820,-0.5963,-0.3255,0.7337
0.9820,-0.5963,-0.3255,0.7337
0.9820,-0.5963,-0.3255,0.7337
0.9820,-0.5963,-0.3255,0.7337
0.9990,-0.5621,-0.3404,0.7266
0.9990,-0.5621,-0.3404,0.7266
1.0000,-0.5621,-0.3404,0.7266
1.0240,-0.5225,-0.3712,0.7354
1.0240,-0.5225,-0.3712,0.7354
1.0250,-0.5225,-0.3712,0.7354
1.0430,-0.5531,-0.3566,0.7515
1.0430,-0.5531,-0.3566,0.7515
1.0430,-0.5531,-0.3566,0.7515
1.0500,-0.5531,-0.3566,0.7515
1.0610,-0.6066,-0.3250,0.7737
1.0610,-0.6066,-0.3250,0.7737
1.0610,-0.6066,-0.3250,0.7737
1.0610,-0.6066,-0.3250,0.7737
1.0610,-0.6066,-0.3250,0.7737
1.0800,-0.6039,-0.3194,0.7772
1.0810,-0.6039,-0.3194,0.7772
1.0810,-0.6039,-0.3194,0.7772
1.1020,-0.5843,-0.3219,0.7449
1.1020,-0.5843,-0.3219,0.7449
1.1030,-0.5843,-0.3219,0.7449
1.1220,-0.5978,-0.3202,0.7161
1.1220,-0.5978,-0.3202,0.7161
1.1230,-0.5978,-0.3202,0.7161
1.1400,-0.6066,-0.3280,0.7253
1.1400,-0.6066,-0.3280,0.7253
1.1400,-0.6066,-0.3280,0.7253
1.1420,-0.6066,-0.3280,0.7253
1.1430,-0.6066,-0.3280,0.7253
1.1590,-0.5482,-0.3590,0.7376
1.1590,-0.5482,-0.3590,0.7376
1.1590,-0.5482,-0.3590,0.7376
1.1770,-0.5482,-0.3590,0.7376
1.1800,-0.5064,-0.3549,0.7087
1.1800,-0.5064,-0.3549,0.7087
1.1810,-0.5064,-0.3549,0.7087
1.1980,-0.5670,-0.3138,0.7539
1.1990,-0.5670,-0.3138,0.7539
1.1990,-0.5670,-0.3138,0.7539
1.2190,-0.6039,-0.3177,0.7955
1.2200,-0.6039,-0.3177,0.7955
1.2200,-0.6039,-0.3177,0.7955
1.2210,-0.6039,-0.3177,0.7955
1.2210,-0.6039,-0.3177,0.7955
1.2410,-0.5785,-0.3380,0.7520
1.2420,-0.5785,-0.3380,0.7520
1.2420,-0.5785,-0.3380,0.7520
1.2450,-0.5785,-0.3380,0.7520
1.2620,-0.5738,-0.3475,0.7503
1.2620,-0.5738,-0.3475,0.7503
1.2620,-0.5738,-0.3475,0.7503
1.2790,-0.5623,-0.3453,0.7552
1.2790,-0.5623,-0.3453,0.7552
1.2790,-0.5623,-0.3453,0.7552
1.2990,-0.5249,-0.3463,0.7376
1.2990,-0.5249,-0.3463,0.7376
1.2990,-0.5249,-0.3463,0.7376
1.3010,-0.5249,-0.3463,0.7376
1.3020,-0.5249,-0.3463,0.7376
1.3180,-0.5347,-0.3492,0.7095
1.3190,-0.5347,-0.3492,0.7095
1.3190,-0.5347,-0.3492,0.7095
1.3420,-0.5587,-0.3170,0.7197
1.3420,-0.5587,-0.3170,0.7197
1.3420,-0.5587,-0.3170,0.7197
1.3620,-0.5518,-0.3057,0.7385
1.3630,-0.5518,-0.3057,0.7385
1.3630,-0.5518,-0.3057,0.7385
1.3830,-0.5311,-0.3395,0.7361
1.3830,-0.5311,-0.3395,0.7361
1.3830,-0.5311,-0.3395,0.7361
1.3830,-0.5311,-0.3395,0.7361
1.3830,-0.5311,-0.3395,0.7361
1.4010,-0.5711,-0.3465,0.7312
1.4020,-0.5711,-0.3465,0.7312
1.4020,-0.5711,-0.3465,0.7312
1.4220,-0.6188,-0.3265,0.7710
1.4220,-0.6188,-0.3265,0.7710
1.4230,-0.6188,-0.3265,0.7710
1.4430,-0.5760,-0.3045,0.7425
1.4440,-0.5760,-0.3045,0.7425
1.4440,-0.5760,-0.3045,0.7425
1.4820,-0.5760,-0.3045,0.7425
1.4830,-0.5208,-0.3341,0.6992
1.4830,-0.5208,-0.3341,0.6992
1.4830,-0.5208,-0.3341,0.6992
1.4830,-0.5208,-0.3341,0.6992
1.4830,-0.5208,-0.3341,0.6992
1.4830,-0.5408,-0.3646,0.7097
1.4830,-0.5408,-0.3646,0.7097
1.4830,-0.5408,-0.3646,0.7097
1.5040,-0.5553,-0.3458,0.7273
1.5040,-0.5553,-0.3458,0.7273
1.5040,-0.5553,-0.3458,0.7273
1.5200,-0.5516,-0.3255,0.7417
1.5200,-0.5516,-0.3255,0.7417
1.5210,-0.5516,-0.3255,0.7417
1.5420,-0.5738,-0.3224,0.7322
1.5430,-0.5738,-0.3224,0.7322
1.5430,-0.5738,-0.3224,0.7322
1.5430,-0.5738,-0.3224,0.7322
1.5430,-0.5738,-0.3224,0.7322
1.5620,-0.5311,-0.3224,0.7349
1.5630,-0.5311,-0.3224,0.7349
1.5630,-0.5311,-0.3224,0.7349
1.5790,-0.5531,-0.3470,0.7598
1.5790,-0.5531,-0.3470,0.7598
1.5790,-0.5531,-0.3470,0.7598
1.5990,-0.5648,-0.3436,0.7564
1.5990,-0.5648,-0.3436,0.7564
1.5990,-0.5648,-0.3436,0.7564
1.6190,-0.5506,-0.3285,0.7583
1.6190,-0.5506,-0.3285,0.7583
1.6190,-0.5506,-0.3285,0.7583
1.6200,-0.5506,-0.3285,0.7583
1.6210,-0.5506,-0.3285,0.7583
1.6380,-0.5719,-0.3373,0.7527
1.6380,-0.5719,-0.3373,0.7527
1.6390,-0.5719,-0.3373,0.7527
1.6440,-0.5719,-0.3373,0.7527
1.6580,-0.5631,-0.3390,0.7359
1.6580,-0.5631,-0.3390,0.7359
1.6580,-0.5631,-0.3390,0.7359
1.6780,-0.5606,-0.3429,0.7451
1.6780,-0.5606,-0.3429,0.7451
1.6780,-0.5606,-0.3429,0.7451
1.6980,-0.5714,-0.3307,0.7442
1.6980,-0.5714,-0.3307,0.7442
1.6980,-0.5714,-0.3307,0.7442
1.6980,-0.5714,-0.3307,0.7442
1.6990,-0.5714,-0.3307,0.7442
1.7200,-0.5777,-0.3084,0.7209
1.7200,-0.5777,-0.3084,0.7209
1.7200,-0.5777,-0.3084,0.7209
1.7400,-0.5838,-0.3101,0.7381
1.7400,-0.5838,-0.3101,0.7381
1.7400,-0.5838,-0.3101,0.7381
1.7600,-0.5506,-0.3311,0.7327
1.7600,-0.5506,-0.3311,0.7327
1.7600,-0.5506,-0.3311,0.7327
1.7800,-0.5034,-0.3419,0.7202
1.7800,-0.5034,-0.3419,0.7202
1.7800,-0.5034,-0.3419,0.7202
1.7810,-0.5034,-0.3419,0.7202
1.7810,-0.5034,-0.3419,0.7202
1.7980,-0.5575,-0.3637,0.7508
1.7980,-0.5575,-0.3637,0.7508
1.7980,-0.5575,-0.3637,0.7508
1.8160,-0.6625,-0.3822,0.7623
1.8160,-0.6625,-0.3822,0.7623
1.8170,-0.6625,-0.3822,0.7623
1.8360,-0.6613,-0.3514,0.7676
1.8360,-0.6613,-0.3514,0.7676
1.8360,-0.6613,-0.3514,0.7676
1.8410,-0.6613,-0.3514,0.7676
1.8590,-0.6100,-0.2925,0.7456
1.8590,-0.6100,-0.2925,0.7456
1.8590,-0.6100,-0.2925,0.7456
1.8590,-0.6100,-0.2925,0.7456
1.8600,-0.6100,-0.2925,0.7456
1.8760,-0.6232,-0.2754,0.7373
1.8760,-0.6232,-0.2754,0.7373
1.8760,-0.6232,-0.2754,0.7373
1.8960,-0.6115,-0.3265,0.7153
1.8960,-0.6115,-0.3265,0.7153
1.8960,-0.6115,-0.3265,0.7153
1.9150,-0.5746,-0.3651,0.7163
1.9150,-0.5746,-0.3651,0.7163
1.9150,-0.5746,-0.3651,0.7163
1.9350,-0.5716,-0.3485,0.7212
1.9350,-0.5716,-0.3485,0.7212
1.9350,-0.5716,-0.3485,0.7212
1.9390,-0.5716,-0.3485,0.7212
1.9390,-0.5716,-0.3485,0.7212
1.9550,-0.5807,-0.3211,0.6921
1.9550,-0.5807,-0.3211,0.6921
1.9550,-0.5807,-0.3211,0.6921
1.9750,-0.5794,-0.3026,0.6999
1.9760,-0.5794,-0.3026,0.6999
1.9760,-0.5794,-0.3026,0.6999
1.9960,-0.5819,-0.3128,0.7183
1.9960,-0.5819,-0.3128,0.7183
2.0280,-0.5819,-0.3128,0.7183
2.0280,-0.5772,-0.3436,0.7209
2.0280,-0.5772,-0.3436,0.7209
2.0280,-0.5772,-0.3436,0.7209
2.0280,-0.5772,-0.3436,0.7209
2.0290,-0.5772,-0.3436,0.7209
2.0330,-0.5736,-0.3409,0.7070
2.0330,-0.5736,-0.3409,0.7070
2.0340,-0.5736,-0.3409,0.7070
2.0390,-0.5736,-0.3409,0.7070
2.0540,-0.5794,-0.3253,0.7202
2.0540,-0.5794,-0.3253,0.7202
2.0550,-0.5794,-0.3253,0.7202
2.0740,-0.5677,-0.3145,0.7224
2.0740,-0.5677,-0.3145,0.7224
2.0740,-0.5677,-0.3145,0.7224
2.0960,-0.5641,-0.3197,0.6994
2.0970,-0.5641,-0.3197,0.6994
2.0970,-0.5641,-0.3197,0.6994
2.0970,-0.5641,-0.3197,0.6994
2.0970,-0.5641,-0.3197,0.6994
2.1140,-0.5716,-0.2977,0.6980
2.1150,-0.5716,-0.2977,0.6980
2.1150,-0.5716,-0.2977,0.6980
2.1340,-0.5555,-0.2793,0.7361
2.1350,-0.5555,-0.2793,0.7361
2.1350,-0.5555,-0.2793,0.7361
2.1540,-0.5856,-0.3307,0.7368
2.1540,-0.5856,-0.3307,0.7368
2.1550,-0.5856,-0.3307,0.7368
2.1740,-0.5897,-0.3790,0.7175
2.1740,-0.5897,-0.3790,0.7175
2.1750,-0.5897,-0.3790,0.7175
2.1760,-0.5897,-0.3790,0.7175
2.1760,-0.5897,-0.3790,0.7175
2.1950,-0.5897,-0.3417,0.7180
2.1950,-0.5897,-0.3417,0.7180
2.1960,-0.5897,-0.3417,0.7180
2.2150,-0.6198,-0.2974,0.7119
2.2150,-0.6198,-0.2974,0.7119
2.2160,-0.6198,-0.2974,0.7119
2.2340,-0.5863,-0.3111,0.7075
2.2350,-0.5863,-0.3111,0.7075
2.2360,-0.5863,-0.3111,0.7075
2.2370,-0.5863,-0.3111,0.7075
2.2560,-0.6095,-0.3092,0.7420
2.2560,-0.6095,-0.3092,0.7420
2.2570,-0.6095,-0.3092,0.7420
2.2610,-0.6095,-0.3092,0.7420
2.2620,-0.6095,-0.3092,0.7420
2.2750,-0.6193,-0.3145,0.7400
2.2750,-0.6193,-0.3145,0.7400
2.2760,-0.6193,-0.3145,0.7400
2.2940,-0.5924,-0.3297,0.7290
2.2950,-0.5924,-0.3297,0.7290
2.2960,-0.5924,-0.3297,0.7290
2.3130,-0.6234,-0.3333,0.7439
2.3140,-0.6234,-0.3333,0.7439
2.3140,-0.6234,-0.3333,0.7439
2.3330,-0.6200,-0.3461,0.7637
2.3350,-0.6200,-0.3461,0.7637
2.3350,-0.6200,-0.3461,0.7637
2.3360,-0.6200,-0.3461,0.7637
2.3360,-0.6200,-0.3461,0.7637
2.3530,-0.6413,-0.3355,0.8036
2.3540,-0.6413,-0.3355,0.8036
2.3540,-0.6413,-0.3355,0.8036
2.3680,-0.6413,-0.3355,0.8036
2.3720,-0.6684,-0.3084,0.8170
2.3730,-0.6684,-0.3084,0.8170
2.3730,-0.6684,-0.3084,0.8170
2.3950,-0.6005,-0.3165,0.7877
2.3950,-0.6005,-0.3165,0.7877
2.3960,-0.6005,-0.3165,0.7877
2.4140,-0.5904,-0.3531,0.7610
2.4150,-0.5904,-0.3531,0.7610
2.4150,-0.5904,-0.3531,0.7610
2.4170,-0.5904,-0.3531,0.7610
2.4170,-0.5904,-0.3531,0.7610
2.4350,-0.5606,-0.3786,0.7307
2.4350,-0.5606,-0.3786,0.7307
2.4360,-0.5606,-0.3786,0.7307
2.4440,-0.5606,-0.3786,0.7307
2.4540,-0.5088,-0.3619,0.7180
2.4550,-0.5088,-0.3619,0.7180
2.4550,-0.5088,-0.3619,0.7180
2.4720,-0.5289,-0.3089,0.7725
2.4720,-0.5289,-0.3089,0.7725
2.4730,-0.5289,-0.3089,0.7725
2.4930,-0.5425,-0.2701,0.7351
2.4950,-0.5425,-0.2701,0.7351
2.4950,-0.5425,-0.2701,0.7351
2.4960,-0.5425,-0.2701,0.7351
2.4960,-0.5425,-0.2701,0.7351
2.5130,-0.6349,-0.3006,0.6814
2.5140,-0.6349,-0.3006,0.6814
2.5150,-0.6349,-0.3006,0.6814
2.5310,-0.6054,-0.3935,0.7461
2.5320,-0.6054,-0.3935,0.7461
2.5320,-0.6054,-0.3935,0.7461
2.6360,-0.5042,-0.3512,0.7596
2.6370,-0.5042,-0.3512,0.7596
2.6370,-0.5042,-0.3512,0.7596
2.6370,-0.5489,-0.2185,0.7671
2.6380,-0.5489,-0.2185,0.7671
2.6380,-0.5489,-0.2185,0.7671
2.6380,-0.5489,-0.2185,0.7671
2.6380,-0.5489,-0.2185,0.7671
2.6390,-0.6115,-0.2097,0.7725
2.6390,-0.6115,-0.2097,0.7725
2.6390,-0.6115,-0.2097,0.7725
2.6390,-0.6327,-0.3187,0.7385
2.6390,-0.6327,-0.3187,0.7385
2.6400,-0.6327,-0.3187,0.7385
2.6400,-0.5611,-0.3656,0.7085
2.6400,-0.5611,-0.3656,0.7085
2.6400,-0.5611,-0.3656,0.7085
2.6410,-0.5611,-0.3656,0.7085
2.6500,-0.5313,-0.2986,0.6716
2.6500,-0.5313,-0.2986,0.6716
2.6500,-0.5313,-0.2986,0.6716
2.6530,-0.5313,-0.2986,0.6716
2.6530,-0.5313,-0.2986,0.6716
2.6700,-0.5619,-0.2666,0.6752
2.6700,-0.5619,-0.2666,0.6752
2.6700,-0.5619,-0.2666,0.6752
2.6900,-0.5726,-0.2862,0.6669
2.6910,-0.5726,-0.2862,0.6669
2.6910,-0.5726,-0.2862,0.6669
2.7110,-0.5535,-0.2967,0.7034
2.7110,-0.5535,-0.2967,0.7034
2.7120,-0.5535,-0.2967,0.7034
2.7320,-0.5296,-0.2666,0.7004
2.7330,-0.5296,-0.2666,0.7004
2.7330,-0.5296,-0.2666,0.7004
2.7350,-0.5296,-0.2666,0.7004
2.7350,-0.5296,-0.2666,0.7004
2.7490,-0.5716,-0.2737,0.7469
2.7500,-0.5716,-0.2737,0.7469
2.7500,-0.5716,-0.2737,0.7469
2.7650,-0.5716,-0.2737,0.7469
2.7690,-0.5912,-0.3343,0.7830
2.7700,-0.5912,-0.3343,0.7830
2.7700,-0.5912,-0.3343,0.7830
2.7890,-0.5721,-0.3487,0.7554
2.7900,-0.5721,-0.3487,0.7554
2.7910,-0.5721,-0.3487,0.7554
2.8100,-0.5814,-0.3067,0.7615
2.8110,-0.5814,-0.3067,0.7615
2.8120,-0.5814,-0.3067,0.7615
2.8120,-0.5814,-0.3067,0.7615
2.8130,-0.5814,-0.3067,0.7615
2.8300,-0.5953,-0.2996,0.7315
2.8310,-0.5953,-0.2996,0.7315
2.8320,-0.5953,-0.2996,0.7315
2.8320,-0.5953,-0.2996,0.7315
2.8490,-0.6054,-0.3563,0.7698
2.8490,-0.6054,-0.3563,0.7698
2.8500,-0.6054,-0.3563,0.7698
2.8680,-0.6181,-0.3275,0.7852
2.8690,-0.6181,-0.3275,0.7852
2.8690,-0.6181,-0.3275,0.7852
2.8920,-0.5958,-0.2595,0.7410
2.8930,-0.5958,-0.2595,0.7410
2.8940,-0.5958,-0.2595,0.7410
2.8940,-0.5958,-0.2595,0.7410
2.8950,-0.5958,-0.2595,0.7410
2.9090,-0.5594,-0.2798,0.7012
2.9090,-0.5594,-0.2798,0.7012
2.9100,-0.5594,-0.2798,0.7012
2.9280,-0.5538,-0.3233,0.6894
2.9280,-0.5538,-0.3233,0.6894
2.9290,-0.5538,-0.3233,0.6894
2.9480,-0.5709,-0.3087,0.7334
2.9480,-0.5709,-0.3087,0.7334
2.9490,-0.5709,-0.3087,0.7334
2.9690,-0.5966,-0.2505,0.7591
2.9690,-0.5966,-0.2505,0.7591
2.9700,-0.5966,-0.2505,0.7591
2.9720,-0.5966,-0.2505,0.7591
2.9720,-0.5966,-0.2505,0.7591
2.9890,-0.5897,-0.2688,0.7363
2.9890,-0.5897,-0.2688,0.7363
2.9900,-0.5897,-0.2688,0.7363
3.0080,-0.5616,-0.3402,0.7212
3.0090,-0.5616,-0.3402,0.7212
3.0090,-0.5616,-0.3402,0.7212
3.0280,-0.6124,-0.3519,0.7564
3.0290,-0.6124,-0.3519,0.7564
3.0290,-0.6124,-0.3519,0.7564
3.0310,-0.6124,-0.3519,0.7564
3.0480,-0.6205,-0.2982,0.7601
3.0490,-0.6205,-0.2982,0.7601
3.0490,-0.6205,-0.2982,0.7601
3.0520,-0.6205,-0.2982,0.7601
3.0520,-0.6205,-0.2982,0.7601
3.0670,-0.5677,-0.2825,0.7425
3.0680,-0.5677,-0.2825,0.7425
3.0680,-0.5677,-0.2825,0.7425
3.0880,-0.5103,-0.3136,0.7583
3.1790,-0.5103,-0.3136,0.7583
3.1800,-0.5103,-0.3136,0.7583
3.1800,-0.5614,-0.3138,0.7798
3.1800,-0.5614,-0.3138,0.7798
3.1800,-0.5614,-0.3138,0.7798
3.1810,-0.5946,-0.3167,0.7882
3.1810,-0.5946,-0.3167,0.7882
3.1810,-0.5946,-0.3167,0.7882
3.1810,-0.5946,-0.3167,0.7882
3.1810,-0.5946,-0.3167,0.7882
3.1820,-0.5648,-0.3062,0.7434
3.1820,-0.5648,-0.3062,0.7434
3.1820,-0.5648,-0.3062,0.7434
3.1820,-0.5680,-0.3241,0.7283
3.1820,-0.5680,-0.3241,0.7283
3.1830,-0.5680,-0.3241,0.7283
3.1860,-0.5836,-0.3277,0.7373
3.1870,-0.5836,-0.3277,0.7373
3.1870,-0.5836,-0.3277,0.7373
3.2070,-0.5653,-0.3013,0.7412
3.2080,-0.5653,-0.3013,0.7412
3.2080,-0.5653,-0.3013,0.7412
3.2110,-0.5653,-0.3013,0.7412
3.2110,-0.5653,-0.3013,0.7412
3.2260,-0.5531,-0.2989,0.7505
3.2260,-0.5531,-0.2989,0.7505
3.2260,-0.5531,-0.2989,0.7505
3.2310,-0.5531,-0.2989,0.7505
3.2450,-0.5692,-0.3131,0.7407
3.2460,-0.5692,-0.3131,0.7407
3.2460,-0.5692,-0.3131,0.7407
3.2660,-0.5777,-0.3319,0.7412
3.2660,-0.5777,-0.3319,0.7412
3.2660,-0.5777,-0.3319,0.7412
3.2870,-0.5553,-0.3368,0.7569
3.2880,-0.5553,-0.3368,0.7569
3.2890,-0.5553,-0.3368,0.7569
3.2900,-0.5553,-0.3368,0.7569
3.2900,-0.5553,-0.3368,0.7569
3.3070,-0.5980,-0.3057,0.7769
3.3070,-0.5980,-0.3057,0.7769
3.3080,-0.5980,-0.3057,0.7769
3.3260,-0.6381,-0.2891,0.7530
3.3260,-0.6381,-0.2891,0.7530
3.3270,-0.6381,-0.2891,0.7530
3.3460,-0.5851,-0.3118,0.7317
3.3470,-0.5851,-0.3118,0.7317
3.3470,-0.5851,-0.3118,0.7317
3.3650,-0.5311,-0.3070,0.7344
3.3660,-0.5311,-0.3070,0.7344
3.3670,-0.5311,-0.3070,0.7344
3.3690,-0.5311,-0.3070,0.7344
3.3700,-0.5311,-0.3070,0.7344
3.3860,-0.5477,-0.2744,0.7376
3.3860,-0.5477,-0.2744,0.7376
3.3870,-0.5477,-0.2744,0.7376
3.4050,-0.5460,-0.3035,0.7322
3.4060,-0.5460,-0.3035,0.7322
3.4060,-0.5460,-0.3035,0.7322
3.4290,-0.5298,-0.3534,0.7432
3.4300,-0.5298,-0.3534,0.7432
3.4300,-0.5298,-0.3534,0.7432
3.4310,-0.5298,-0.3534,0.7432
3.4460,-0.5516,-0.3497,0.7564
3.4470,-0.5516,-0.3497,0.7564
3.4470,-0.5516,-0.3497,0.7564
3.4480,-0.5516,-0.3497,0.7564
3.4480,-0.5516,-0.3497,0.7564
3.4650,-0.5875,-0.2906,0.7559
3.4660,-0.5875,-0.2906,0.7559
3.4660,-0.5875,-0.2906,0.7559
3.4870,-0.6054,-0.2955,0.7574
3.4870,-0.6054,-0.2955,0.7574
3.4880,-0.6054,-0.2955,0.7574
3.5080,-0.5318,-0.3184,0.7104
3.5090,-0.5318,-0.3184,0.7104
3.5090,-0.5318,-0.3184,0.7104
3.5270,-0.5127,-0.2894,0.7429
3.5280,-0.5127,-0.2894,0.7429
3.5280,-0.5127,-0.2894,0.7429
3.5290,-0.5127,-0.2894,0.7429
3.5290,-0.5127,-0.2894,0.7429
3.5440,-0.5587,-0.2967,0.7689
3.5450,-0.5587,-0.2967,0.7689
3.5450,-0.5587,-0.2967,0.7689
3.5630,-0.5587,-0.2967,0.7689
3.5640,-0.5447,-0.3199,0.7689
3.5640,-0.5447,-0.3199,0.7689
3.5650,-0.5447,-0.3199,0.7689
3.5870,-0.5340,-0.3348,0.7517
3.5880,-0.5340,-0.3348,0.7517
3.5880,-0.5340,-0.3348,0.7517
3.6060,-0.5452,-0.3431,0.7395
3.6060,-0.5452,-0.3431,0.7395
3.6070,-0.5452,-0.3431,0.7395
3.6080,-0.5452,-0.3431,0.7395
3.6080,-0.5452,-0.3431,0.7395
3.6240,-0.5667,-0.3333,0.7823
3.6250,-0.5667,-0.3333,0.7823
3.6250,-0.5667,-0.3333,0.7823
3.7010,-0.5667,-0.3333,0.7823
3.7020,-0.5594,-0.3209,0.8111
3.7020,-0.5594,-0.3209,0.8111
3.7020,-0.5594,-0.3209,0.8111
3.7020,-0.5958,-0.3013,0.8038
3.7020,-0.5958,-0.3013,0.8038
3.7020,-0.5958,-0.3013,0.8038
3.7030,-0.6159,-0.3060,0.8011
3.7030,-0.6159,-0.3060,0.8011
3.7030,-0.6159,-0.3060,0.8011
3.7030,-0.6159,-0.3060,0.8011
3.7030,-0.6159,-0.3060,0.8011
3.7040,-0.5836,-0.3270,0.7974
3.7040,-0.5836,-0.3270,0.7974
3.7040,-0.5836,-0.3270,0.7974
3.7220,-0.5560,-0.3387,0.7601
3.7220,-0.5560,-0.3387,0.7601
3.7220,-0.5560,-0.3387,0.7601
3.7420,-0.5875,-0.3480,0.7703
3.7420,-0.5875,-0.3480,0.7703
3.7420,-0.5875,-0.3480,0.7703
3.7580,-0.5875,-0.3480,0.7703
3.7620,-0.6222,-0.3475,0.7671
3.7630,-0.6222,-0.3475,0.7671
3.7630,-0.6222,-0.3475,0.7671
3.7660,-0.6222,-0.3475,0.7671
3.7660,-0.6222,-0.3475,0.7671
3.7830,-0.5423,-0.3167,0.7601
3.7830,-0.5423,-0.3167,0.7601
3.7830,-0.5423,-0.3167,0.7601
3.8020,-0.5611,-0.2544,0.8150
3.8030,-0.5611,-0.2544,0.8150
3.8030,-0.5611,-0.2544,0.8150
3.8230,-0.5606,-0.2395,0.8233
3.8230,-0.5606,-0.2395,0.8233
3.8230,-0.5606,-0.2395,0.8233
3.8250,-0.5606,-0.2395,0.8233
3.8430,-0.5301,-0.2938,0.7601
3.8440,-0.5301,-0.2938,0.7601
3.8450,-0.5301,-0.2938,0.7601
3.8460,-0.5301,-0.2938,0.7601
3.8460,-0.5301,-0.2938,0.7601
3.8630,-0.5120,-0.3172,0.7097
3.8660,-0.5120,-0.3172,0.7097
3.8680,-0.5120,-0.3172,0.7097
3.8830,-0.5364,-0.2688,0.7246
3.8830,-0.5364,-0.2688,0.7246
3.8840,-0.5364,-0.2688,0.7246
3.9020,-0.5318,-0.2635,0.7324
3.9030,-0.5318,-0.2635,0.7324
3.9030,-0.5318,-0.2635,0.7324
3.9230,-0.4443,-0.2876,0.7363
3.9240,-0.4443,-0.2876,0.7363
3.9240,-0.4443,-0.2876,0.7363
3.9270,-0.4443,-0.2876,0.7363
3.9280,-0.4443,-0.2876,0.7363
3.9440,-0.4768,-0.2542,0.7429
3.9450,-0.4768,-0.2542,0.7429
3.9450,-0.4768,-0.2542,0.7429
3.9600,-0.4768,-0.2542,0.7429
3.9620,-0.5030,-0.2576,0.7263
3.9640,-0.5030,-0.2576,0.7263
3.9650,-0.5030,-0.2576,0.7263
3.9860,-0.4961,-0.3228,0.7715
3.9860,-0.4961,-0.3228,0.7715
3.9870,-0.4961,-0.3228,0.7715
4.0030,-0.5220,-0.3370,0.7918
4.0050,-0.5220,-0.3370,0.7918
4.0060,-0.5220,-0.3370,0.7918
4.0070,-0.5220,-0.3370,0.7918
4.0070,-0.5220,-0.3370,0.7918
4.0230,-0.5184,-0.3150,0.7732
4.0230,-0.5184,-0.3150,0.7732
4.0240,-0.5184,-0.3150,0.7732
4.0250,-0.5184,-0.3150,0.7732
4.0510,-0.4876,-0.2832,0.7703
4.0510,-0.4876,-0.2832,0.7703
4.0520,-0.4876,-0.2832,0.7703
4.0620,-0.4717,-0.2544,0.7813
4.0630,-0.4717,-0.2544,0.7813
4.0630,-0.4717,-0.2544,0.7813
4.0840,-0.4810,-0.2593,0.7872
4.0850,-0.4810,-0.2593,0.7872
4.0860,-0.4810,-0.2593,0.7872
4.0860,-0.4810,-0.2593,0.7872
4.0870,-0.4810,-0.2593,0.7872
4.1020,-0.4907,-0.2742,0.7845
4.1020,-0.4907,-0.2742,0.7845
4.1020,-0.4907,-0.2742,0.7845
4.1210,-0.5557,-0.2913,0.7904
4.1210,-0.5557,-0.2913,0.7904
4.1220,-0.5557,-0.2913,0.7904
4.1410,-0.5377,-0.3199,0.8016
4.1410,-0.5377,-0.3199,0.8016
4.1410,-0.5377,-0.3199,0.8016
4.1560,-0.5377,-0.3199,0.8016
4.1640,-0.5078,-0.2994,0.7923
4.1650,-0.5078,-0.2994,0.7923
4.1650,-0.5078,-0.2994,0.7923
4.1650,-0.5078,-0.2994,0.7923
4.2090,-0.5078,-0.2994,0.7923
4.2100,-0.5506,-0.2774,0.7640
4.2100,-0.5506,-0.2774,0.7640
4.2110,-0.5506,-0.2774,0.7640
4.2110,-0.5592,-0.2786,0.7965
4.2110,-0.5592,-0.2786,0.7965
4.2110,-0.5592,-0.2786,0.7965
4.2210,-0.5562,-0.3199,0.8165
4.2210,-0.5562,-0.3199,0.8165
4.2210,-0.5562,-0.3199,0.8165
4.2210,-0.5562,-0.3199,0.8165
4.2430,-0.5240,-0.3497,0.7906
4.2440,-0.5240,-0.3497,0.7906
4.2440,-0.5240,-0.3497,0.7906
4.2440,-0.5240,-0.3497,0.7906
4.2440,-0.5240,-0.3497,0.7906
4.2630,-0.5276,-0.2999,0.8062
4.2630,-0.5276,-0.2999,0.8062
4.2630,-0.5276,-0.2999,0.8062
4.2830,-0.5790,-0.2710,0.8202
4.2830,-0.5790,-0.2710,0.8202
4.2830,-0.5790,-0.2710,0.8202
4.3000,-0.5628,-0.3038,0.7816
4.3010,-0.5628,-0.3038,0.7816
4.3010,-0.5628,-0.3038,0.7816
4.3190,-0.5418,-0.3184,0.7439
4.3190,-0.5418,-0.3184,0.7439
4.3200,-0.5418,-0.3184,0.7439
4.3230,-0.5418,-0.3184,0.7439
4.3230,-0.5418,-0.3184,0.7439
4.3420,-0.5203,-0.3123,0.7608
4.3430,-0.5203,-0.3123,0.7608
4.3430,-0.5203,-0.3123,0.7608
4.3630,-0.4902,-0.3109,0.7752
4.3630,-0.4902,-0.3109,0.7752
4.3630,-0.4902,-0.3109,0.7752
4.3800,-0.4873,-0.2979,0.7723
4.3800,-0.4873,-0.2979,0.7723
4.3800,-0.4873,-0.2979,0.7723
4.4020,-0.4959,-0.3033,0.7886
4.4020,-0.4959,-0.3033,0.7886
4.4030,-0.4959,-0.3033,0.7886
4.4040,-0.4959,-0.3033,0.7886
4.4040,-0.4959,-0.3033,0.7886
4.4220,-0.5015,-0.3282,0.7798
4.4220,-0.5015,-0.3282,0.7798
4.4230,-0.5015,-0.3282,0.7798
4.4230,-0.5015,-0.3282,0.7798
4.4420,-0.5201,-0.3448,0.7627
4.4420,-0.5201,-0.3448,0.7627
4.4430,-0.5201,-0.3448,0.7627
4.4600,-0.5357,-0.3341,0.7967
4.4600,-0.5357,-0.3341,0.7967
4.4600,-0.5357,-0.3341,0.7967
4.4810,-0.5086,-0.2979,0.8075
4.4820,-0.5086,-0.2979,0.8075
4.4820,-0.5086,-0.2979,0.8075
4.4830,-0.5086,-0.2979,0.8075
4.4830,-0.5086,-0.2979,0.8075
4.4990,-0.4937,-0.3065,0.7840
4.4990,-0.4937,-0.3065,0.7840
4.4990,-0.4937,-0.3065,0.7840
4.5220,-0.4937,-0.3324,0.7691
4.5220,-0.4937,-0.3324,0.7691
4.5230,-0.4937,-0.3324,0.7691
4.5420,-0.5166,-0.3280,0.7852
4.5420,-0.5166,-0.3280,0.7852
4.5430,-0.5166,-0.3280,0.7852
4.5620,-0.5215,-0.3133,0.7901
4.5630,-0.5215,-0.3133,0.7901
4.5640,-0.5215,-0.3133,0.7901
4.5640,-0.5215,-0.3133,0.7901
4.5640,-0.5215,-0.3133,0.7901
4.5770,-0.5403,-0.3045,0.7754
4.5780,-0.5403,-0.3045,0.7754
4.5780,-0.5403,-0.3045,0.7754
4.5980,-0.5279,-0.3155,0.7703
4.5980,-0.5279,-0.3155,0.7703
4.5980,-0.5279,-0.3155,0.7703
4.6170,-0.5093,-0.3060,0.7850
4.6170,-0.5093,-0.3060,0.7850
4.6180,-0.5093,-0.3060,0.7850
4.6190,-0.5093,-0.3060,0.7850
4.6390,-0.5728,-0.2957,0.8026
4.6390,-0.5728,-0.2957,0.8026
4.6390,-0.5728,-0.2957,0.8026
4.6420,-0.5728,-0.2957,0.8026
4.6420,-0.5728,-0.2957,0.8026
4.6570,-0.5560,-0.3209,0.7830
4.6570,-0.5560,-0.3209,0.7830
4.6570,-0.5560,-0.3209,0.7830
4.6770,-0.4983,-0.3138,0.7491
4.6780,-0.4983,-0.3138,0.7491
4.6780,-0.4983,-0.3138,0.7491
4.6990,-0.5284,-0.2669,0.7520
4.6990,-0.5284,-0.2669,0.7520
4.7000,-0.5284,-0.2669,0.7520
4.7220,-0.5399,-0.2850,0.7513
4.7230,-0.5399,-0.2850,0.7513
4.7240,-0.5399,-0.2850,0.7513
4.7630,-0.5399,-0.2850,0.7513
4.7630,-0.5399,-0.2850,0.7513
4.7630,-0.5049,-0.3368,0.7390
4.7630,-0.5049,-0.3368,0.7390
4.7630,-0.5049,-0.3368,0.7390
4.7630,-0.5049,-0.3368,0.7390
4.7640,-0.4920,-0.3307,0.7417
4.7640,-0.4920,-0.3307,0.7417
4.7640,-0.4920,-0.3307,0.7417
4.7780,-0.5069,-0.3228,0.7544
4.7780,-0.5069,-0.3228,0.7544
4.7780,-0.5069,-0.3228,0.7544
4.7980,-0.4788,-0.3299,0.7730
4.7990,-0.4788,-0.3299,0.7730
4.7990,-0.4788,-0.3299,0.7730
4.8010,-0.4788,-0.3299,0.7730
4.8010,-0.4788,-0.3299,0.7730
4.8200,-0.5135,-0.3087,0.7757
4.8200,-0.5135,-0.3087,0.7757
4.8210,-0.5135,-0.3087,0.7757
4.8210,-0.5135,-0.3087,0.7757
4.8390,-0.5772,-0.3055,0.8072
4.8390,-0.5772,-0.3055,0.8072
4.8390,-0.5772,-0.3055,0.8072
4.8590,-0.5704,-0.3167,0.8146
4.8600,-0.5704,-0.3167,0.8146
4.8600,-0.5704,-0.3167,0.8146
4.8780,-0.5313,-0.3292,0.7886
4.8780,-0.5313,-0.3292,0.7886
4.8780,-0.5313,-0.3292,0.7886
4.8800,-0.5313,-0.3292,0.7886
4.8800,-0.5313,-0.3292,0.7886
4.8970,-0.4714,-0.3224,0.7879
4.8970,-0.4714,-0.3224,0.7879
4.8970,-0.4714,-0.3224,0.7879
4.9170,-0.4802,-0.2994,0.7764
4.9180,-0.4802,-0.2994,0.7764
4.9180,-0.4802,-0.2994,0.7764
4.9360,-0.5355,-0.3104,0.8124
4.9370,-0.5355,-0.3104,0.8124
4.9370,-0.5355,-0.3104,0.8124
4.9570,-0.5445,-0.3492,0.8146
4.9570,-0.5445,-0.3492,0.8146
4.9580,-0.5445,-0.3492,0.8146
4.9600,-0.5445,-0.3492,0.8146
4.9610,-0.5445,-0.3492,0.8146
4.9770,-0.5350,-0.3558,0.8062
4.9770,-0.5350,-0.3558,0.8062
4.9780,-0.5350,-0.3558,0.8062
4.9970,-0.5208,-0.3387,0.7767
4.9970,-0.5208,-0.3387,0.7767
4.9980,-0.5208,-0.3387,0.7767
5.0160,-0.4993,-0.3324,0.7561
5.0170,-0.4993,-0.3324,0.7561
5.0170,-0.4993,-0.3324,0.7561
5.0170,-0.4993,-0.3324,0.7561
5.0370,-0.4734,-0.3470,0.7623
5.0370,-0.4734,-0.3470,0.7623
5.0380,-0.4734,-0.3470,0.7623
5.0400,-0.4734,-0.3470,0.7623
5.0400,-0.4734,-0.3470,0.7623
5.0580,-0.4499,-0.3487,0.7603
5.0580,-0.4499,-0.3487,0.7603
5.0580,-0.4499,-0.3487,0.7603
5.0770,-0.4521,-0.3355,0.7864
5.0780,-0.4521,-0.3355,0.7864
5.0780,-0.4521,-0.3355,0.7864
5.0960,-0.4827,-0.3245,0.8211
5.0960,-0.4827,-0.3245,0.8211
5.0960,-0.4827,-0.3245,0.8211
5.1180,-0.5181,-0.3267,0.8243
5.1180,-0.5181,-0.3267,0.8243
5.1180,-0.5181,-0.3267,0.8243
5.1180,-0.5181,-0.3267,0.8243
5.1180,-0.5181,-0.3267,0.8243
5.1370,-0.5303,-0.3397,0.8133
5.1370,-0.5303,-0.3397,0.8133
5.1370,-0.5303,-0.3397,0.8133
5.1480,-0.5303,-0.3397,0.8133
5.1580,-0.5091,-0.3615,0.7830
5.1580,-0.5091,-0.3615,0.7830
5.1580,-0.5091,-0.3615,0.7830
5.1760,-0.4722,-0.3463,0.7864
5.1760,-0.4722,-0.3463,0.7864
5.1760,-0.4722,-0.3463,0.7864
5.1960,-0.4707,-0.2918,0.7840
5.1960,-0.4707,-0.2918,0.7840
5.1960,-0.4707,-0.2918,0.7840
5.1980,-0.4707,-0.2918,0.7840
5.1980,-0.4707,-0.2918,0.7840
5.2160,-0.4951,-0.2764,0.7864
5.2160,-0.4951,-0.2764,0.7864
5.2170,-0.4951,-0.2764,0.7864
5.2170,-0.4951,-0.2764,0.7864
5.2370,-0.5030,-0.3238,0.7901
5.2370,-0.5030,-0.3238,0.7901
5.2370,-0.5030,-0.3238,0.7901
5.2550,-0.4714,-0.3593,0.7715
5.2560,-0.4714,-0.3593,0.7715
5.2560,-0.4714,-0.3593,0.7715
5.3020,-0.4707,-0.3382,0.7816
5.3020,-0.4707,-0.3382,0.7816
5.3020,-0.4707,-0.3382,0.7816
5.3020,-0.4707,-0.3382,0.7816
5.3020,-0.4707,-0.3382,0.7816
5.3020,-0.5012,-0.3099,0.7869
5.3020,-0.5012,-0.3099,0.7869
5.3020,-0.5012,-0.3099,0.7869
5.3150,-0.5342,-0.3160,0.7970
5.3150,-0.5342,-0.3160,0.7970
5.3150,-0.5342,-0.3160,0.7970
5.3370,-0.5154,-0.3590,0.7955
5.3370,-0.5154,-0.3590,0.7955
5.3370,-0.5154,-0.3590,0.7955
5.3590,-0.4573,-0.3585,0.7930
5.3590,-0.4573,-0.3585,0.7930
5.3590,-0.4573,-0.3585,0.7930
5.3590,-0.4573,-0.3585,0.7930
5.3590,-0.4573,-0.3585,0.7930
5.3750,-0.4885,-0.3138,0.8038
5.3750,-0.4885,-0.3138,0.8038
5.3750,-0.4885,-0.3138,0.8038
5.3980,-0.5140,-0.3140,0.7889
5.3990,-0.5140,-0.3140,0.7889
5.3990,-0.5140,-0.3140,0.7889
5.4160,-0.4883,-0.3693,0.8075
5.4160,-0.4883,-0.3693,0.8075
5.4170,-0.4883,-0.3693,0.8075
5.4170,-0.4883,-0.3693,0.8075
5.4360,-0.5308,-0.3776,0.8190
5.4360,-0.5308,-0.3776,0.8190
5.4360,-0.5308,-0.3776,0.8190
5.4370,-0.5308,-0.3776,0.8190
5.4370,-0.5308,-0.3776,0.8190
5.4570,-0.5286,-0.3368,0.8172
5.4580,-0.5286,-0.3368,0.8172
5.4580,-0.5286,-0.3368,0.8172
5.4770,-0.5450,-0.2945,0.8314
5.4770,-0.5450,-0.2945,0.8314
5.4780,-0.5450,-0.2945,0.8314
5.4960,-0.5206,-0.3028,0.8077
5.4960,-0.5206,-0.3028,0.8077
5.4960,-0.5206,-0.3028,0.8077
5.5150,-0.4673,-0.3382,0.7591
5.5160,-0.4673,-0.3382,0.7591
5.5160,-0.4673,-0.3382,0.7591
5.5160,-0.4673,-0.3382,0.7591
5.5160,-0.4673,-0.3382,0.7591
5.5350,-0.4697,-0.3402,0.7505
5.5360,-0.4697,-0.3402,0.7505
5.5360,-0.4697,-0.3402,0.7505
5.5560,-0.4604,-0.3052,0.7613
5.5560,-0.4604,-0.3052,0.7613
5.5560,-0.4604,-0.3052,0.7613
5.5760,-0.4531,-0.2842,0.7664
5.5760,-0.4531,-0.2842,0.7664
5.5760,-0.4531,-0.2842,0.7664
5.5950,-0.4516,-0.3092,0.7500
5.5950,-0.4516,-0.3092,0.7500
5.5960,-0.4516,-0.3092,0.7500
5.5970,-0.4516,-0.3092,0.7500
5.5970,-0.4516,-0.3092,0.7500
5.6130,-0.4291,-0.3189,0.7948
5.6130,-0.4291,-0.3189,0.7948
5.6140,-0.4291,-0.3189,0.7948
5.6140,-0.4291,-0.3189,0.7948
5.6340,-0.4792,-0.3077,0.8292
5.6350,-0.4792,-0.3077,0.8292
5.6350,-0.4792,-0.3077,0.8292
5.6530,-0.5323,-0.3434,0.8351
5.6530,-0.5323,-0.3434,0.8351
5.6530,-0.5323,-0.3434,0.8351
5.6740,-0.5269,-0.4023,0.8431
5.6740,-0.5269,-0.4023,0.8431
5.6740,-0.5269,-0.4023,0.8431
5.6750,-0.5269,-0.4023,0.8431
5.6750,-0.5269,-0.4023,0.8431
5.6950,-0.4636,-0.3991,0.8138
5.6950,-0.4636,-0.3991,0.8138
5.6950,-0.4636,-0.3991,0.8138
5.7150,-0.4734,-0.3272,0.7838
5.7160,-0.4734,-0.3272,0.7838
5.7160,-0.4734,-0.3272,0.7838
5.7350,-0.5171,-0.2688,0.7972
5.7350,-0.5171,-0.2688,0.7972
5.7350,-0.5171,-0.2688,0.7972
5.7450,-0.5171,-0.2688,0.7972
5.7550,-0.4878,-0.2754,0.7896
5.7560,-0.4878,-0.2754,0.7896
5.7560,-0.4878,-0.2754,0.7896
5.7620,-0.4878,-0.2754,0.7896
5.7620,-0.4878,-0.2754,0.7896
5.7760,-0.4511,-0.3123,0.7874
5.7770,-0.4511,-0.3123,0.7874
5.7770,-0.4511,-0.3123,0.7874
5.7920,-0.4585,-0.3092,0.8114
5.7930,-0.4585,-0.3092,0.8114
5.7930,-0.4585,-0.3092,0.8114
5.8120,-0.4768,-0.3074,0.8180
5.8120,-0.4768,-0.3074,0.8180
5.8930,-0.4768,-0.3074,0.8180
5.8940,-0.4768,-0.3074,0.8180
5.8940,-0.4788,-0.3255,0.7718
5.8940,-0.4788,-0.3255,0.7718
5.8940,-0.4788,-0.3255,0.7718
5.8940,-0.4788,-0.3255,0.7718
5.8940,-0.4788,-0.3255,0.7718
5.8950,-0.4849,-0.3245,0.7640
5.8950,-0.4849,-0.3245,0.7640
5.8950,-0.4849,-0.3245,0.7640
5.8950,-0.4900,-0.3341,0.8114
5.8950,-0.4900,-0.3341,0.8114
5.8950,-0.4900,-0.3341,0.8114
5.8950,-0.4541,-0.3307,0.7869
5.8960,-0.4541,-0.3307,0.7869
5.8960,-0.4541,-0.3307,0.7869
5.9110,-0.4873,-0.3057,0.8038
5.9110,-0.4873,-0.3057,0.8038
5.9110,-0.4873,-0.3057,0.8038
5.9140,-0.4873,-0.3057,0.8038
5.9140,-0.4873,-0.3057,0.8038
5.9350,-0.5264,-0.2906,0.8114
5.9350,-0.5264,-0.2906,0.8114
5.9350,-0.5264,-0.2906,0.8114
5.9430,-0.5264,-0.2906,0.8114
5.9500,-0.4841,-0.2894,0.7933
5.9510,-0.4841,-0.2894,0.7933
5.9510,-0.4841,-0.2894,0.7933
5.9700,-0.4541,-0.2842,0.7852
5.9710,-0.4541,-0.2842,0.7852
5.9710,-0.4541,-0.2842,0.7852
5.9920,-0.4607,-0.3060,0.7840
5.9920,-0.4607,-0.3060,0.7840
5.9930,-0.4607,-0.3060,0.7840
5.9940,-0.4607,-0.3060,0.7840
5.9950,-0.4607,-0.3060,0.7840
6.0110,-0.4607,-0.3060,0.7840
6.0110,-0.5357,-0.3253,0.7742
6.0120,-0.5357,-0.3253,0.7742
6.0120,-0.5357,-0.3253,0.7742
6.0310,-0.5064,-0.3106,0.7735
6.0320,-0.5064,-0.3106,0.7735
6.0320,-0.5064,-0.3106,0.7735
6.0500,-0.4927,-0.3116,0.7940
6.0510,-0.4927,-0.3116,0.7940
6.0520,-0.4927,-0.3116,0.7940
6.0710,-0.4885,-0.3162,0.8080
6.0720,-0.4885,-0.3162,0.8080
6.0720,-0.4885,-0.3162,0.8080
6.0740,-0.4885,-0.3162,0.8080
6.0740,-0.4885,-0.3162,0.8080
6.0910,-0.4582,-0.3018,0.8241
6.0920,-0.4582,-0.3018,0.8241
6.0930,-0.4582,-0.3018,0.8241
6.1120,-0.4917,-0.3048,0.8563
6.1130,-0.4917,-0.3048,0.8563
6.1140,-0.4917,-0.3048,0.8563
6.1300,-0.5269,-0.3421,0.8255
6.1310,-0.5269,-0.3421,0.8255
6.1310,-0.5269,-0.3421,0.8255
6.1480,-0.5269,-0.3421,0.8255
6.1500,-0.4546,-0.3705,0.7715
6.1510,-0.4546,-0.3705,0.7715
6.1520,-0.4546,-0.3705,0.7715
6.1530,-0.4546,-0.3705,0.7715
6.1530,-0.4546,-0.3705,0.7715
6.1700,-0.3991,-0.3377,0.7930
6.1710,-0.3991,-0.3377,0.7930
6.1710,-0.3991,-0.3377,0.7930
6.1910,-0.4169,-0.3079,0.8236
6.1920,-0.4169,-0.3079,0.8236
6.1920,-0.4169,-0.3079,0.8236
6.2100,-0.4169,-0.3079,0.8236
6.2110,-0.4729,-0.3052,0.8143
6.2110,-0.4729,-0.3052,0.8143
6.2120,-0.4729,-0.3052,0.8143
6.2310,-0.5516,-0.3067,0.8307
6.2320,-0.5516,-0.3067,0.8307
6.2320,-0.5516,-0.3067,0.8307
6.2330,-0.5516,-0.3067,0.8307
6.2340,-0.5516,-0.3067,0.8307
6.2500,-0.5430,-0.2928,0.8361
6.2500,-0.5430,-0.2928,0.8361
6.2510,-0.5430,-0.2928,0.8361
6.2700,-0.4900,-0.2940,0.8092
6.2710,-0.4900,-0.2940,0.8092
6.2710,-0.4900,-0.2940,0.8092
6.2920,-0.4746,-0.3177,0.7681
6.2930,-0.4746,-0.3177,0.7681
6.2930,-0.4746,-0.3177,0.7681
6.3090,-0.4321,-0.3495,0.7933
6.3100,-0.4321,-0.3495,0.7933
6.3110,-0.4321,-0.3495,0.7933
6.3120,-0.4321,-0.3495,0.7933
6.3130,-0.4321,-0.3495,0.7933
6.3280,-0.4260,-0.3409,0.8119
6.3290,-0.4260,-0.3409,0.8119
6.3290,-0.4260,-0.3409,0.8119
6.3490,-0.4563,-0.2962,0.8268
6.3490,-0.4563,-0.2962,0.8268
6.4310,-0.4563,-0.2962,0.8268
6.4320,-0.4986,-0.3114,0.8429
6.4320,-0.4986,-0.3114,0.8429
6.4320,-0.4986,-0.3114,0.8429
6.4320,-0.5008,-0.3441,0.8287
6.4320,-0.5008,-0.3441,0.8287
6.4330,-0.5008,-0.3441,0.8287
6.4330,-0.5008,-0.3441,0.8287
6.4330,-0.5008,-0.3441,0.8287
6.4330,-0.5008,-0.3441,0.8287
6.4330,-0.4492,-0.3497,0.7874
6.4330,-0.4492,-0.3497,0.7874
6.4340,-0.4492,-0.3497,0.7874
6.4340,-0.4294,-0.3287,0.7940
6.4340,-0.4294,-0.3287,0.7940
6.4340,-0.4294,-0.3287,0.7940
6.4470,-0.4269,-0.3148,0.8343
6.4480,-0.4269,-0.3148,0.8343
6.4480,-0.4269,-0.3148,0.8343
6.4660,-0.4343,-0.3114,0.8292
6.4660,-0.4343,-0.3114,0.8292
6.4670,-0.4343,-0.3114,0.8292
6.4710,-0.4343,-0.3114,0.8292
6.4710,-0.4343,-0.3114,0.8292
6.4880,-0.4470,-0.3158,0.8087
6.4880,-0.4470,-0.3158,0.8087
6.4880,-0.4470,-0.3158,0.8087
6.5070,-0.4766,-0.3351,0.8070
6.5070,-0.4766,-0.3351,0.8070
6.5080,-0.4766,-0.3351,0.8070
6.5280,-0.4951,-0.3226,0.7830
6.5280,-0.4951,-0.3226,0.7830
6.5290,-0.4951,-0.3226,0.7830
6.5470,-0.4335,-0.2889,0.7845
6.5480,-0.4335,-0.2889,0.7845
6.5480,-0.4335,-0.2889,0.7845
6.5510,-0.4335,-0.2889,0.7845
6.5510,-0.4335,-0.2889,0.7845
6.5670,-0.4257,-0.2859,0.7772
6.5680,-0.4257,-0.2859,0.7772
6.5690,-0.4257,-0.2859,0.7772
6.5870,-0.4978,-0.3045,0.7911
6.5880,-0.4978,-0.3045,0.7911
6.5880,-0.4978,-0.3045,0.7911
6.6070,-0.4978,-0.3045,0.7911
6.6080,-0.4976,-0.3231,0.7882
6.6080,-0.4976,-0.3231,0.7882
6.6090,-0.4976,-0.3231,0.7882
6.6280,-0.4585,-0.3248,0.7987
6.6280,-0.4585,-0.3248,0.7987
6.6310,-0.4585,-0.3248,0.7987
6.6310,-0.4585,-0.3248,0.7987
6.6320,-0.4585,-0.3248,0.7987
6.6520,-0.4296,-0.3285,0.8033
6.6530,-0.4296,-0.3285,0.8033
6.6540,-0.4296,-0.3285,0.8033
6.6690,-0.4668,-0.3045,0.7943
6.6700,-0.4668,-0.3045,0.7943
6.6710,-0.4668,-0.3045,0.7943
6.6890,-0.4805,-0.2916,0.8089
6.6890,-0.4805,-0.2916,0.8089
6.6900,-0.4805,-0.2916,0.8089
6.7080,-0.4646,-0.3219,0.8307
6.7090,-0.4646,-0.3219,0.8307
6.7090,-0.4646,-0.3219,0.8307
6.7100,-0.4646,-0.3219,0.8307
6.7100,-0.4646,-0.3219,0.8307
6.7270,-0.4626,-0.3304,0.8023
6.7280,-0.4626,-0.3304,0.8023
6.7290,-0.4626,-0.3304,0.8023
6.7470,-0.4516,-0.3084,0.8075
6.7470,-0.4516,-0.3084,0.8075
6.7480,-0.4516,-0.3084,0.8075
6.7680,-0.4695,-0.3065,0.7970
6.7690,-0.4695,-0.3065,0.7970
6.7690,-0.4695,-0.3065,0.7970
6.7890,-0.4179,-0.3265,0.7674
6.7890,-0.4179,-0.3265,0.7674
6.7900,-0.4179,-0.3265,0.7674
6.7900,-0.4179,-0.3265,0.7674
6.7910,-0.4179,-0.3265,0.7674
6.8050,-0.4179,-0.3265,0.7674
6.8060,-0.3710,-0.3399,0.7896
6.8060,-0.3710,-0.3399,0.7896
6.8070,-0.3710,-0.3399,0.7896
6.8280,-0.4428,-0.3509,0.8363
6.8280,-0.4428,-0.3509,0.8363
6.8300,-0.4428,-0.3509,0.8363
6.8470,-0.4357,-0.3392,0.8407
6.8480,-0.4357,-0.3392,0.8407
6.8490,-0.4357,-0.3392,0.8407
6.8670,-0.4590,-0.3121,0.8544
6.8680,-0.4590,-0.3121,0.8544
6.8690,-0.4590,-0.3121,0.8544
6.8690,-0.4590,-0.3121,0.8544
6.8700,-0.4590,-0.3121,0.8544
6.8890,-0.5093,-0.3250,0.8576
6.8900,-0.5093,-0.3250,0.8576
6.8910,-0.5093,-0.3250,0.8576
6.9060,-0.4763,-0.3612,0.8241
6.9860,-0.4763,-0.3612,0.8241
6.9860,-0.4763,-0.3612,0.8241
6.9860,-0.4595,-0.3505,0.8229
6.9860,-0.4595,-0.3505,0.8229
6.9860,-0.4595,-0.3505,0.8229
6.9870,-0.4595,-0.3505,0.8229
6.9870,-0.4514,-0.3189,0.8280
6.9870,-0.4514,-0.3189,0.8280
6.9870,-0.4514,-0.3189,0.8280
6.9880,-0.4514,-0.3189,0.8280
6.9880,-0.4514,-0.3189,0.8280
6.9880,-0.4318,-0.3285,0.8082
6.9880,-0.4318,-0.3285,0.8082
6.9880,-0.4318,-0.3285,0.8082
6.9880,-0.4211,-0.3495,0.8126
6.9890,-0.4211,-0.3495,0.8126
6.9890,-0.4211,-0.3495,0.8126
7.0020,-0.4211,-0.3495,0.8126
7.0040,-0.4460,-0.3373,0.8233
7.0040,-0.4460,-0.3373,0.8233
7.0040,-0.4460,-0.3373,0.8233
7.0250,-0.4795,-0.3324,0.8287
7.0250,-0.4795,-0.3324,0.8287
7.0260,-0.4795,-0.3324,0.8287
7.0270,-0.4795,-0.3324,0.8287
7.0280,-0.4795,-0.3324,0.8287
7.0440,-0.4536,-0.3514,0.8260
7.0450,-0.4536,-0.3514,0.8260
7.0450,-0.4536,-0.3514,0.8260
7.0670,-0.4499,-0.3436,0.8014
7.0710,-0.4499,-0.3436,0.8014
7.0720,-0.4499,-0.3436,0.8014
7.0850,-0.4832,-0.3084,0.8339
7.0850,-0.4832,-0.3084,0.8339
7.0860,-0.4832,-0.3084,0.8339
7.1080,-0.4851,-0.3153,0.8216
7.1090,-0.4851,-0.3153,0.8216
7.1100,-0.4851,-0.3153,0.8216
7.1100,-0.4851,-0.3153,0.8216
7.1110,-0.4851,-0.3153,0.8216
7.1260,-0.4458,-0.3568,0.7940
7.1270,-0.4458,-0.3568,0.7940
7.1290,-0.4458,-0.3568,0.7940
7.1450,-0.4582,-0.3407,0.7725
7.1460,-0.4582,-0.3407,0.7725
7.1470,-0.4582,-0.3407,0.7725
7.1660,-0.4240,-0.2940,0.7576
7.1680,-0.4240,-0.2940,0.7576
7.1680,-0.4240,-0.2940,0.7576
7.1860,-0.4233,-0.2850,0.7532
7.1870,-0.4233,-0.2850,0.7532
7.1880,-0.4233,-0.2850,0.7532
7.1890,-0.4233,-0.2850,0.7532
7.1900,-0.4233,-0.2850,0.7532
7.2030,-0.4233,-0.2850,0.7532
7.2040,-0.4646,-0.3221,0.7772
7.2050,-0.4646,-0.3221,0.7772
7.2050,-0.4646,-0.3221,0.7772
7.2330,-0.4081,-0.3588,0.7962
7.2340,-0.4081,-0.3588,0.7962
7.2350,-0.4081,-0.3588,0.7962
7.2440,-0.4138,-0.3678,0.7842
7.2450,-0.4138,-0.3678,0.7842
7.2460,-0.4138,-0.3678,0.7842
7.2680,-0.5066,-0.3558,0.7928
7.2690,-0.5066,-0.3558,0.7928
7.2700,-0.5066,-0.3558,0.7928
7.2700,-0.5066,-0.3558,0.7928
7.2710,-0.5066,-0.3558,0.7928
7.2860,-0.5091,-0.3241,0.8361
7.2870,-0.5091,-0.3241,0.8361
7.2880,-0.5091,-0.3241,0.8361
7.3040,-0.4922,-0.3199,0.8165
7.3050,-0.4922,-0.3199,0.8165
7.3060,-0.4922,-0.3199,0.8165
7.3250,-0.5100,-0.3458,0.8265
7.3250,-0.5100,-0.3458,0.8265
7.3260,-0.5100,-0.3458,0.8265
7.3460,-0.4643,-0.3666,0.8485
7.3460,-0.4643,-0.3666,0.8485
7.3470,-0.4643,-0.3666,0.8485
7.3470,-0.4643,-0.3666,0.8485
7.3480,-0.4643,-0.3666,0.8485
7.3640,-0.4052,-0.3681,0.8131
7.3650,-0.4052,-0.3681,0.8131
7.3660,-0.4052,-0.3681,0.8131
7.3860,-0.4335,-0.3221,0.8094
7.3870,-0.4335,-0.3221,0.8094
7.3870,-0.4335,-0.3221,0.8094
7.4090,-0.4335,-0.3221,0.8094
7.4090,-0.4409,-0.3248,0.8290
7.4100,-0.4409,-0.3248,0.8290
7.4110,-0.4409,-0.3248,0.8290
7.4260,-0.4279,-0.3832,0.8133
7.4270,-0.4279,-0.3832,0.8133
7.4270,-0.4279,-0.3832,0.8133
7.4280,-0.4279,-0.3832,0.8133
7.4280,-0.4279,-0.3832,0.8133
7.4430,-0.4502,-0.3776,0.8180
7.4440,-0.4502,-0.3776,0.8180
7.5330,-0.4502,-0.3776,0.8180
7.5330,-0.4406,-0.3316,0.8260
7.5340,-0.4406,-0.3316,0.8260
7.5340,-0.4406,-0.3316,0.8260
7.5340,-0.4455,-0.3187,0.7977
7.5340,-0.4455,-0.3187,0.7977
7.5350,-0.4455,-0.3187,0.7977
7.5350,-0.4597,-0.3529,0.8094
7.5350,-0.4597,-0.3529,0.8094
7.5350,-0.4597,-0.3529,0.8094
7.5350,-0.4597,-0.3529,0.8094
7.5360,-0.4597,-0.3529,0.8094
7.5360,-0.4167,-0.3925,0.8094
7.5360,-0.4167,-0.3925,0.8094
7.5360,-0.4167,-0.3925,0.8094
7.5410,-0.3969,-0.3629,0.7889
7.5410,-0.3969,-0.3629,0.7889
7.5410,-0.3969,-0.3629,0.7889
7.5610,-0.4507,-0.3294,0.8065
7.5620,-0.4507,-0.3294,0.8065
7.5620,-0.4507,-0.3294,0.8065
7.5820,-0.4377,-0.3331,0.8647
7.5830,-0.4377,-0.3331,0.8647
7.5840,-0.4377,-0.3331,0.8647
7.5840,-0.4377,-0.3331,0.8647
7.5850,-0.4377,-0.3331,0.8647
7.5990,-0.4377,-0.3331,0.8647
7.6010,-0.4213,-0.3390,0.8475
7.6020,-0.4213,-0.3390,0.8475
7.6020,-0.4213,-0.3390,0.8475
7.6230,-0.4665,-0.3297,0.8260
7.6240,-0.4665,-0.3297,0.8260
7.6250,-0.4665,-0.3297,0.8260
7.6450,-0.4609,-0.3363,0.8233
7.6460,-0.4609,-0.3363,0.8233
7.6460,-0.4609,-0.3363,0.8233
7.6650,-0.4724,-0.3558,0.7696
7.6660,-0.4724,-0.3558,0.7696
7.6660,-0.4724,-0.3558,0.7696
7.6670,-0.4724,-0.3558,0.7696
7.6670,-0.4724,-0.3558,0.7696
7.6840,-0.5054,-0.3507,0.7437
7.6850,-0.5054,-0.3507,0.7437
7.6850,-0.5054,-0.3507,0.7437
7.7060,-0.4756,-0.3311,0.7476
7.7070,-0.4756,-0.3311,0.7476
7.7120,-0.4756,-0.3311,0.7476
7.7230,-0.4318,-0.3277,0.7505
7.7230,-0.4318,-0.3277,0.7505
7.7240,-0.4318,-0.3277,0.7505
7.7420,-0.4555,-0.3399,0.7520
7.7430,-0.4555,-0.3399,0.7520
7.7430,-0.4555,-0.3399,0.7520
7.7450,-0.4555,-0.3399,0.7520
7.7450,-0.4555,-0.3399,0.7520
7.7640,-0.4902,-0.3385,0.8050
7.7650,-0.4902,-0.3385,0.8050
7.7650,-0.4902,-0.3385,0.8050
7.7840,-0.4854,-0.3478,0.8368
7.7850,-0.4854,-0.3478,0.8368
7.7870,-0.4854,-0.3478,0.8368
7.8050,-0.4854,-0.3478,0.8368
7.8070,-0.5003,-0.3404,0.8065
7.8090,-0.5003,-0.3404,0.8065
7.8100,-0.5003,-0.3404,0.8065
7.8240,-0.5017,-0.3309,0.8001
7.8240,-0.5017,-0.3309,0.8001
7.8250,-0.5017,-0.3309,0.8001
7.8250,-0.5017,-0.3309,0.8001
7.8260,-0.5017,-0.3309,0.8001
7.8440,-0.4519,-0.3485,0.8238
7.8460,-0.4519,-0.3485,0.8238
7.8470,-0.4519,-0.3485,0.8238
7.8640,-0.4028,-0.3768,0.7796
7.8650,-0.4028,-0.3768,0.7796
7.8660,-0.4028,-0.3768,0.7796
7.8820,-0.4299,-0.3681,0.7652
7.8830,-0.4299,-0.3681,0.7652
7.8830,-0.4299,-0.3681,0.7652
7.9030,-0.4546,-0.3524,0.7838
7.9030,-0.4546,-0.3524,0.7838
7.9050,-0.4546,-0.3524,0.7838
7.9060,-0.4546,-0.3524,0.7838
7.9060,-0.4546,-0.3524,0.7838
7.9210,-0.3805,-0.3556,0.7662
7.9220,-0.3805,-0.3556,0.7662
7.9220,-0.3805,-0.3556,0.7662
7.9280,-0.3805,-0.3556,0.7662
7.9450,-0.4162,-0.3417,0.7706
7.9460,-0.4162,-0.3417,0.7706
7.9460,-0.4162,-0.3417,0.7706
7.9650,-0.4986,-0.3118,0.8258
7.9650,-0.4986,-0.3118,0.8258
7.9660,-0.4986,-0.3118,0.8258
7.9830,-0.4851,-0.3202,0.8669
7.9870,-0.4851,-0.3202,0.8669
7.9890,-0.4851,-0.3202,0.8669
7.9910,-0.4851,-0.3202,0.8669
7.9920,-0.4851,-0.3202,0.8669
8.0000,-0.4851,-0.3202,0.8669
8.0870,-0.4670,-0.3717,0.8507
8.0870,-0.4670,-0.3717,0.8507
8.0870,-0.4670,-0.3717,0.8507
8.0870,-0.4477,-0.4399,0.8512
8.0880,-0.4477,-0.4399,0.8512
8.0880,-0.4477,-0.4399,0.8512
8.0880,-0.4658,-0.4624,0.8495
8.0880,-0.4658,-0.4624,0.8495
8.0890,-0.4658,-0.4624,0.8495
8.0890,-0.4595,-0.4145,0.8216
8.0890,-0.4595,-0.4145,0.8216
8.0890,-0.4595,-0.4145,0.8216
8.0890,-0.4595,-0.4145,0.8216
8.0900,-0.4595,-0.4145,0.8216
8.0900,-0.4419,-0.3632,0.8148
8.0900,-0.4419,-0.3632,0.8148
8.0900,-0.4419,-0.3632,0.8148
8.0980,-0.4399,-0.3336,0.8067
8.0980,-0.4399,-0.3336,0.8067
8.0980,-0.4399,-0.3336,0.8067
8.1190,-0.4546,-0.3197,0.7965
8.1200,-0.4546,-0.3197,0.7965
8.1210,-0.4546,-0.3197,0.7965
8.1250,-0.4546,-0.3197,0.7965
8.1430,-0.4819,-0.3346,0.7791
8.1440,-0.4819,-0.3346,0.7791
8.1440,-0.4819,-0.3346,0.7791
8.1450,-0.4819,-0.3346,0.7791
8.1450,-0.4819,-0.3346,0.7791
8.1650,-0.4411,-0.3414,0.7581
8.1650,-0.4411,-0.3414,0.7581
8.1660,-0.4411,-0.3414,0.7581
8.1910,-0.3947,-0.3395,0.7246
8.1920,-0.3947,-0.3395,0.7246
8.1930,-0.3947,-0.3395,0.7246
8.1950,-0.3947,-0.3395,0.7246
8.1980,-0.4116,-0.3595,0.7535
8.1980,-0.4116,-0.3595,0.7535
8.1990,-0.4116,-0.3595,0.7535
8.2210,-0.4448,-0.4098,0.8268
8.2210,-0.4448,-0.4098,0.8268
8.2210,-0.4448,-0.4098,0.8268
8.2220,-0.4448,-0.4098,0.8268
8.2220,-0.4448,-0.4098,0.8268
8.2400,-0.4658,-0.4191,0.8405
8.2410,-0.4658,-0.4191,0.8405
8.2410,-0.4658,-0.4191,0.8405
8.2640,-0.4907,-0.3812,0.8160
8.2640,-0.4907,-0.3812,0.8160
8.2650,-0.4907,-0.3812,0.8160
8.2840,-0.5626,-0.3353,0.8031
8.2850,-0.5626,-0.3353,0.8031
8.2860,-0.5626,-0.3353,0.8031
8.3040,-0.5428,-0.3231,0.7982
8.3070,-0.5428,-0.3231,0.7982
8.3070,-0.5428,-0.3231,0.7982
8.3080,-0.5428,-0.3231,0.7982
8.3080,-0.5428,-0.3231,0.7982
8.3230,-0.4372,-0.3382,0.7647
8.3230,-0.4372,-0.3382,0.7647
8.3240,-0.4372,-0.3382,0.7647
8.3250,-0.4372,-0.3382,0.7647
8.3380,-0.4196,-0.3224,0.7378
8.3410,-0.4196,-0.3224,0.7378
8.3450,-0.4196,-0.3224,0.7378
8.3610,-0.4636,-0.3057,0.7170
8.3620,-0.4636,-0.3057,0.7170
8.3620,-0.4636,-0.3057,0.7170
8.3810,-0.4685,-0.3458,0.7205
8.3820,-0.4685,-0.3458,0.7205
8.3820,-0.4685,-0.3458,0.7205
8.3830,-0.4685,-0.3458,0.7205
8.3830,-0.4685,-0.3458,0.7205
8.3950,-0.4685,-0.3458,0.7205
8.3980,-0.4465,-0.3974,0.7576
8.4020,-0.4465,-0.3974,0.7576
8.4030,-0.4465,-0.3974,0.7576
8.4180,-0.4463,-0.4101,0.7725
8.4190,-0.4463,-0.4101,0.7725
8.4190,-0.4463,-0.4101,0.7725
8.4410,-0.4724,-0.3724,0.7874
8.4420,-0.4724,-0.3724,0.7874
8.4430,-0.4724,-0.3724,0.7874
8.4590,-0.4907,-0.3412,0.8375
8.4600,-0.4907,-0.3412,0.8375
8.4610,-0.4907,-0.3412,0.8375
8.4620,-0.4907,-0.3412,0.8375
8.4630,-0.4907,-0.3412,0.8375
8.4800,-0.4971,-0.3509,0.8370
8.4810,-0.4971,-0.3509,0.8370
8.4810,-0.4971,-0.3509,0.8370
8.4980,-0.4734,-0.3832,0.8087
8.4980,-0.4734,-0.3832,0.8087
8.5010,-0.4734,-0.3832,0.8087
8.5170,-0.4355,-0.3663,0.7838
8.5180,-0.4355,-0.3663,0.7838
8.5180,-0.4355,-0.3663,0.7838
8.5260,-0.4355,-0.3663,0.7838
8.5400,-0.4441,-0.3341,0.7554
8.5410,-0.4441,-0.3341,0.7554
8.6220,-0.4441,-0.3341,0.7554
8.6230,-0.4441,-0.3341,0.7554
8.6230,-0.4441,-0.3341,0.7554
8.6230,-0.4282,-0.3583,0.7456
8.6230,-0.4282,-0.3583,0.7456
8.6240,-0.4282,-0.3583,0.7456
8.6240,-0.3900,-0.3932,0.7630
8.6240,-0.3900,-0.3932,0.7630
8.6240,-0.3900,-0.3932,0.7630
8.6240,-0.3900,-0.3932,0.7630
8.6250,-0.4064,-0.3778,0.7723
8.6250,-0.4064,-0.3778,0.7723
8.6250,-0.4064,-0.3778,0.7723
8.6250,-0.4602,-0.3795,0.7872
8.6250,-0.4602,-0.3795,0.7872
8.6250,-0.4602,-0.3795,0.7872
8.6260,-0.4602,-0.3795,0.7872
8.6260,-0.4602,-0.3795,0.7872
8.6340,-0.4629,-0.4125,0.8141
8.6350,-0.4629,-0.4125,0.8141
8.6350,-0.4629,-0.4125,0.8141
8.6600,-0.4397,-0.4037,0.8422
8.6600,-0.4397,-0.4037,0.8422
8.6610,-0.4397,-0.4037,0.8422
8.6750,-0.4800,-0.3583,0.8155
8.6750,-0.4800,-0.3583,0.8155
8.6760,-0.4800,-0.3583,0.8155
8.6950,-0.4983,-0.3365,0.7967
8.6960,-0.4983,-0.3365,0.7967
8.6970,-0.4983,-0.3365,0.7967
8.6980,-0.4983,-0.3365,0.7967
8.7010,-0.4983,-0.3365,0.7967
8.7150,-0.5008,-0.3656,0.8292
8.7150,-0.5008,-0.3656,0.8292
8.7160,-0.5008,-0.3656,0.8292
8.7250,-0.5008,-0.3656,0.8292
8.7350,-0.4529,-0.3986,0.8307
8.7360,-0.4529,-0.3986,0.8307
8.7360,-0.4529,-0.3986,0.8307
8.7540,-0.4651,-0.3886,0.8004
8.7550,-0.4651,-0.3886,0.8004
8.7550,-0.4651,-0.3886,0.8004
8.7750,-0.5689,-0.3612,0.7842
8.7760,-0.5689,-0.3612,0.7842
8.7760,-0.5689,-0.3612,0.7842
8.7810,-0.5689,-0.3612,0.7842
8.7810,-0.5689,-0.3612,0.7842
8.7910,-0.5689,-0.3612,0.7842
8.7930,-0.6073,-0.3732,0.8094
8.7940,-0.6073,-0.3732,0.8094
8.7940,-0.6073,-0.3732,0.8094
8.8150,-0.4876,-0.3861,0.8219
8.8150,-0.4876,-0.3861,0.8219
8.8160,-0.4876,-0.3861,0.8219
8.8340,-0.4854,-0.3681,0.8168
8.8340,-0.4854,-0.3681,0.8168
8.8350,-0.4854,-0.3681,0.8168
8.8560,-0.5469,-0.3605,0.7803
8.8570,-0.5469,-0.3605,0.7803
8.8580,-0.5469,-0.3605,0.7803
8.8600,-0.5469,-0.3605,0.7803
8.8610,-0.5469,-0.3605,0.7803
8.8760,-0.5213,-0.3651,0.7637
8.8770,-0.5213,-0.3651,0.7637
8.8780,-0.5213,-0.3651,0.7637
8.8970,-0.5147,-0.3786,0.7930
8.8980,-0.5147,-0.3786,0.7930
8.9000,-0.5147,-0.3786,0.7930
8.9160,-0.4883,-0.3910,0.7706
8.9170,-0.4883,-0.3910,0.7706
8.9180,-0.4883,-0.3910,0.7706
8.9220,-0.4883,-0.3910,0.7706
8.9350,-0.4228,-0.3844,0.7449
8.9370,-0.4228,-0.3844,0.7449
8.9370,-0.4228,-0.3844,0.7449
8.9380,-0.4228,-0.3844,0.7449
8.9410,-0.4228,-0.3844,0.7449
8.9550,-0.4108,-0.3519,0.7359
8.9560,-0.4108,-0.3519,0.7359
8.9560,-0.4108,-0.3519,0.7359
8.9750,-0.4538,-0.3326,0.7654
8.9750,-0.4538,-0.3326,0.7654
8.9760,-0.4538,-0.3326,0.7654
8.9880,-0.4538,-0.3326,0.7654
8.9930,-0.4477,-0.3480,0.7913
8.9940,-0.4477,-0.3480,0.7913
8.9950,-0.4477,-0.3480,0.7913
9.0150,-0.4783,-0.3265,0.7813
9.0150,-0.4783,-0.3265,0.7813
9.0160,-0.4783,-0.3265,0.7813
9.0180,-0.4783,-0.3265,0.7813
9.0200,-0.4783,-0.3265,0.7813
9.0340,-0.5298,-0.3094,0.7830
9.0350,-0.5298,-0.3094,0.7830
9.0350,-0.5298,-0.3094,0.7830
9.0570,-0.4130,-0.3578,0.7984
9.0570,-0.4130,-0.3578,0.7984
9.0580,-0.4130,-0.3578,0.7984
9.0750,-0.3578,-0.3830,0.8067
9.0750,-0.3578,-0.3830,0.8067
9.1460,-0.3578,-0.3830,0.8067
9.1460,-0.4531,-0.3309,0.7549
9.1460,-0.4531,-0.3309,0.7549
9.1460,-0.4531,-0.3309,0.7549
9.1470,-0.4531,-0.3309,0.7549
9.1470,-0.4531,-0.3309,0.7549
9.1470,-0.4817,-0.3211,0.7786
9.1470,-0.4817,-0.3211,0.7786
9.1470,-0.4817,-0.3211,0.7786
9.1470,-0.4817,-0.3211,0.7786
9.1480,-0.4687,-0.3600,0.7803
9.1480,-0.4687,-0.3600,0.7803
9.1480,-0.4687,-0.3600,0.7803
9.1520,-0.4243,-0.3727,0.7427
9.1530,-0.4243,-0.3727,0.7427
9.1530,-0.4243,-0.3727,0.7427
9.1710,-0.4431,-0.3490,0.7349
9.1720,-0.4431,-0.3490,0.7349
9.1720,-0.4431,-0.3490,0.7349
9.1730,-0.4431,-0.3490,0.7349
9.1730,-0.4431,-0.3490,0.7349
9.1870,-0.4431,-0.3490,0.7349
9.1920,-0.4509,-0.3282,0.8070
9.1920,-0.4509,-0.3282,0.8070
9.1930,-0.4509,-0.3282,0.8070
9.2110,-0.4536,-0.3304,0.8429
9.2110,-0.4536,-0.3304,0.8429
9.2110,-0.4536,-0.3304,0.8429
9.2350,-0.4893,-0.3453,0.8307
9.2360,-0.4893,-0.3453,0.8307
9.2370,-0.4893,-0.3453,0.8307
9.2500,-0.5271,-0.3436,0.8102
9.2510,-0.5271,-0.3436,0.8102
9.2520,-0.5271,-0.3436,0.8102
9.2540,-0.5271,-0.3436,0.8102
9.2550,-0.5271,-0.3436,0.8102
9.2720,-0.5064,-0.3465,0.8485
9.2720,-0.5064,-0.3465,0.8485
9.2730,-0.5064,-0.3465,0.8485
9.2920,-0.4463,-0.3671,0.8673
9.2930,-0.4463,-0.3671,0.8673
9.2940,-0.4463,-0.3671,0.8673
9.3110,-0.4309,-0.3331,0.8326
9.3120,-0.4309,-0.3331,0.8326
9.3120,-0.4309,-0.3331,0.8326
9.3330,-0.4778,-0.2918,0.8488
9.3340,-0.4778,-0.2918,0.8488
9.3350,-0.4778,-0.2918,0.8488
9.3350,-0.4778,-0.2918,0.8488
9.3360,-0.4778,-0.2918,0.8488
9.3520,-0.4367,-0.3258,0.8226
9.3520,-0.4367,-0.3258,0.8226
9.3530,-0.4367,-0.3258,0.8226
9.3710,-0.4054,-0.3553,0.7168
9.3720,-0.4054,-0.3553,0.7168
9.3730,-0.4054,-0.3553,0.7168
9.3870,-0.4054,-0.3553,0.7168
9.3920,-0.3788,-0.3588,0.6687
9.3920,-0.3788,-0.3588,0.6687
9.3930,-0.3788,-0.3588,0.6687
9.4110,-0.3610,-0.3749,0.7317
9.4120,-0.3610,-0.3749,0.7317
9.4130,-0.3610,-0.3749,0.7317
9.4150,-0.3610,-0.3749,0.7317
9.4160,-0.3610,-0.3749,0.7317
9.4320,-0.3971,-0.3810,0.8339
9.4330,-0.3971,-0.3810,0.8339
9.4330,-0.3971,-0.3810,0.8339
9.4520,-0.4419,-0.3527,0.8871
9.4520,-0.4419,-0.3527,0.8871
9.4530,-0.4419,-0.3527,0.8871
9.4700,-0.4411,-0.3214,0.8686
9.4710,-0.4411,-0.3214,0.8686
9.4720,-0.4411,-0.3214,0.8686
9.4940,-0.4145,-0.3270,0.8471
9.4950,-0.4145,-0.3270,0.8471
9.4950,-0.4145,-0.3270,0.8471
9.4960,-0.4145,-0.3270,0.8471
9.4970,-0.4145,-0.3270,0.8471
9.5100,-0.4098,-0.3593,0.8361
9.5120,-0.4098,-0.3593,0.8361
9.5120,-0.4098,-0.3593,0.8361
9.5180,-0.4098,-0.3593,0.8361
9.5310,-0.4167,-0.3729,0.8246
9.5310,-0.4167,-0.3729,0.8246
9.5320,-0.4167,-0.3729,0.8246
9.5500,-0.4575,-0.3546,0.8458
9.5500,-0.4575,-0.3546,0.8458
9.5510,-0.4575,-0.3546,0.8458
9.5710,-0.3976,-0.3395,0.8732
9.5710,-0.3976,-0.3395,0.8732
9.5720,-0.3976,-0.3395,0.8732
9.5730,-0.3976,-0.3395,0.8732
9.5730,-0.3976,-0.3395,0.8732
9.5870,-0.3976,-0.3395,0.8732
9.5890,-0.3267,-0.3338,0.8881
9.5900,-0.3267,-0.3338,0.8881
9.5900,-0.3267,-0.3338,0.8881
9.6100,-0.4639,-0.3473,0.8837
9.6110,-0.4639,-0.3473,0.8837
9.6830,-0.4639,-0.3473,0.8837
9.6830,-0.4436,-0.3944,0.8483
9.6830,-0.4436,-0.3944,0.8483
9.6840,-0.4436,-0.3944,0.8483
9.6840,-0.2957,-0.4135,0.8062
9.6840,-0.2957,-0.4135,0.8062
9.6840,-0.2957,-0.4135,0.8062
9.6840,-0.2957,-0.4135,0.8062
9.6840,-0.2957,-0.4135,0.8062
9.6850,-0.3610,-0.3605,0.7838
9.6850,-0.3610,-0.3605,0.7838
9.6850,-0.3610,-0.3605,0.7838
9.6870,-0.3275,-0.3150,0.8185
9.6870,-0.3275,-0.3150,0.8185
9.6870,-0.3275,-0.3150,0.8185
9.7070,-0.2434,-0.3182,0.8248
9.7070,-0.2434,-0.3182,0.8248
9.7070,-0.2434,-0.3182,0.8248
9.7300,-0.3316,-0.3351,0.8072
9.7300,-0.3316,-0.3351,0.8072
9.7300,-0.3316,-0.3351,0.8072
9.7310,-0.3316,-0.3351,0.8072
9.7320,-0.3316,-0.3351,0.8072
9.7470,-0.3859,-0.3619,0.8243
9.7470,-0.3859,-0.3619,0.8243
9.7470,-0.3859,-0.3619,0.8243
9.7680,-0.3517,-0.3888,0.8720
9.7680,-0.3517,-0.3888,0.8720
9.7690,-0.3517,-0.3888,0.8720
9.7850,-0.3517,-0.3888,0.8720
9.7910,-0.3935,-0.3370,0.8549
9.7910,-0.3935,-0.3370,0.8549
9.7920,-0.3935,-0.3370,0.8549
9.8090,-0.4709,-0.2595,0.8715
9.8100,-0.4709,-0.2595,0.8715
9.8100,-0.4709,-0.2595,0.8715
9.8130,-0.4709,-0.2595,0.8715
9.8130,-0.4709,-0.2595,0.8715
9.8280,-0.4741,-0.2852,0.8844
9.8290,-0.4741,-0.2852,0.8844
9.8290,-0.4741,-0.2852,0.8844
9.8470,-0.4274,-0.3668,0.8080
9.8470,-0.4274,-0.3668,0.8080
9.8480,-0.4274,-0.3668,0.8080
9.8670,-0.3688,-0.3654,0.8001
9.8680,-0.3688,-0.3654,0.8001
9.8680,-0.3688,-0.3654,0.8001
9.8880,-0.2894,-0.3441,0.8485
9.8890,-0.2894,-0.3441,0.8485
9.8890,-0.2894,-0.3441,0.8485
9.8910,-0.2894,-0.3441,0.8485
9.8910,-0.2894,-0.3441,0.8485
9.9080,-0.3189,-0.3228,0.8600
9.9090,-0.3189,-0.3228,0.8600
9.9100,-0.3189,-0.3228,0.8600
9.9140,-0.3189,-0.3228,0.8600
9.9290,-0.4147,-0.3008,0.8710
9.9300,-0.4147,-0.3008,0.8710
9.9310,-0.4147,-0.3008,0.8710
9.9480,-0.4225,-0.3187,0.8830
9.9480,-0.4225,-0.3187,0.8830
9.9490,-0.4225,-0.3187,0.8830
9.9710,-0.3881,-0.3583,0.8463
9.9720,-0.3881,-0.3583,0.8463
9.9720,-0.3881,-0.3583,0.8463
9.9730,-0.3881,-0.3583,0.8463
9.9730,-0.3881,-0.3583,0.8463
9.9850,-0.3881,-0.3583,0.8463
9.9860,-0.3944,-0.3544,0.8168
9.9870,-0.3944,-0.3544,0.8168
9.9880,-0.3944,-0.3544,0.8168
10.0080,-0.3595,-0.3204,0.8312
10.0090,-0.3595,-0.3204,0.8312
10.0090,-0.3595,-0.3204,0.8312
10.0270,-0.3177,-0.3101,0.8009
10.0280,-0.3177,-0.3101,0.8009
10.0280,-0.3177,-0.3101,0.8009
10.0470,-0.3089,-0.3417,0.8229
10.0490,-0.3089,-0.3417,0.8229
10.0490,-0.3089,-0.3417,0.8229
10.0500,-0.3089,-0.3417,0.8229
10.0510,-0.3089,-0.3417,0.8229
10.0680,-0.3133,-0.3505,0.8424
10.0690,-0.3133,-0.3505,0.8424
10.0690,-0.3133,-0.3505,0.8424
10.0860,-0.3419,-0.3431,0.8458
10.0870,-0.3419,-0.3431,0.8458
10.0880,-0.3419,-0.3431,0.8458
10.1080,-0.4174,-0.3441,0.9006
10.1090,-0.4174,-0.3441,0.9006
10.1090,-0.4174,-0.3441,0.9006
10.1260,-0.4384,-0.3258,0.8778
10.1280,-0.4384,-0.3258,0.8778
10.1290,-0.4384,-0.3258,0.8778
10.1290,-0.4384,-0.3258,0.8778
10.1300,-0.4384,-0.3258,0.8778
10.1470,-0.3275,-0.3206,0.8397
10.1480,-0.3275,-0.3206,0.8397
10.1490,-0.3275,-0.3206,0.8397
10.1660,-0.4062,-0.3409,0.8422
10.2570,-0.4062,-0.3409,0.8422
10.2570,-0.4062,-0.3409,0.8422
10.2570,-0.4062,-0.3409,0.8422
10.2580,-0.3712,-0.3302,0.8522
10.2580,-0.3712,-0.3302,0.8522
10.2580,-0.3712,-0.3302,0.8522
10.2580,-0.2630,-0.3126,0.8414
10.2590,-0.2630,-0.3126,0.8414
10.2590,-0.2630,-0.3126,0.8414
10.2590,-0.2630,-0.3126,0.8414
10.2590,-0.2630,-0.3126,0.8414
10.2590,-0.3192,-0.3082,0.8131
10.2600,-0.3192,-0.3082,0.8131
10.2600,-0.3192,-0.3082,0.8131
10.2600,-0.3512,-0.3302,0.8627
10.2610,-0.3512,-0.3302,0.8627
10.2610,-0.3512,-0.3302,0.8627
10.2630,-0.3593,-0.3571,0.8776
10.2630,-0.3593,-0.3571,0.8776
10.2630,-0.3593,-0.3571,0.8776
10.2830,-0.3678,-0.3663,0.8527
10.2840,-0.3678,-0.3663,0.8527
10.2840,-0.3678,-0.3663,0.8527
10.2870,-0.3678,-0.3663,0.8527
10.2880,-0.3678,-0.3663,0.8527
10.3040,-0.3184,-0.3607,0.8549
10.3050,-0.3184,-0.3607,0.8549
10.3050,-0.3184,-0.3607,0.8549
10.3110,-0.3184,-0.3607,0.8549
10.3240,-0.3309,-0.3231,0.8439
10.3250,-0.3309,-0.3231,0.8439
10.3250,-0.3309,-0.3231,0.8439
10.3440,-0.3468,-0.3238,0.8378
10.3460,-0.3468,-0.3238,0.8378
10.3460,-0.3468,-0.3238,0.8378
10.3700,-0.2884,-0.3407,0.8480
10.3720,-0.2884,-0.3407,0.8480
10.3720,-0.2884,-0.3407,0.8480
10.3730,-0.2884,-0.3407,0.8480
10.3730,-0.2884,-0.3407,0.8480
10.3790,-0.2884,-0.3407,0.8480
10.3840,-0.2994,-0.3280,0.8529
10.3850,-0.2994,-0.3280,0.8529
10.3850,-0.2994,-0.3280,0.8529
10.4060,-0.3637,-0.3331,0.8412
10.4060,-0.3637,-0.3331,0.8412
10.4070,-0.3637,-0.3331,0.8412
10.4280,-0.3421,-0.3353,0.8610
10.4280,-0.3421,-0.3353,0.8610
10.4290,-0.3421,-0.3353,0.8610
10.4450,-0.3302,-0.3414,0.8676
10.4450,-0.3302,-0.3414,0.8676
10.4460,-0.3302,-0.3414,0.8676
10.4470,-0.3302,-0.3414,0.8676
10.4480,-0.3302,-0.3414,0.8676
10.4660,-0.3309,-0.3617,0.8488
10.4660,-0.3309,-0.3617,0.8488
10.4670,-0.3309,-0.3617,0.8488
10.4860,-0.3189,-0.3539,0.8493
10.4870,-0.3189,-0.3539,0.8493
10.4870,-0.3189,-0.3539,0.8493
10.5070,-0.2994,-0.3382,0.8637
10.5080,-0.2994,-0.3382,0.8637
10.5090,-0.2994,-0.3382,0.8637
10.5090,-0.2994,-0.3382,0.8637
10.5290,-0.3001,-0.3478,0.8708
10.5310,-0.3001,-0.3478,0.8708
10.5320,-0.3001,-0.3478,0.8708
10.5320,-0.3001,-0.3478,0.8708
10.5330,-0.3001,-0.3478,0.8708
10.5450,-0.3940,-0.3502,0.8825
10.5450,-0.3940,-0.3502,0.8825
10.5460,-0.3940,-0.3502,0.8825
10.5660,-0.4081,-0.3275,0.9165
10.5680,-0.4081,-0.3275,0.9165
10.5690,-0.4081,-0.3275,0.9165
10.5800,-0.4081,-0.3275,0.9165
10.5840,-0.4206,-0.3052,0.8976
10.5850,-0.4206,-0.3052,0.8976
10.5860,-0.4206,-0.3052,0.8976
10.6050,-0.3627,-0.3079,0.8292
10.6080,-0.3627,-0.3079,0.8292
10.6090,-0.3627,-0.3079,0.8292
10.6090,-0.3627,-0.3079,0.8292
10.6100,-0.3627,-0.3079,0.8292
10.6260,-0.3519,-0.3233,0.8246
10.6270,-0.3519,-0.3233,0.8246
10.6280,-0.3519,-0.3233,0.8246
10.6470,-0.3158,-0.3414,0.8959
10.6480,-0.3158,-0.3414,0.8959
10.6490,-0.3158,-0.3414,0.8959
10.6650,-0.2720,-0.3277,0.8749
10.6660,-0.2720,-0.3277,0.8749
10.6670,-0.2720,-0.3277,0.8749
10.6860,-0.3280,-0.3116,0.8260
10.6870,-0.3280,-0.3116,0.8260
10.6880,-0.3280,-0.3116,0.8260
10.6880,-0.3280,-0.3116,0.8260
10.6890,-0.3280,-0.3116,0.8260
10.7030,-0.3419,-0.3536,0.8485
10.7880,-0.3419,-0.3536,0.8485
10.7880,-0.3419,-0.3536,0.8485
10.7880,-0.2986,-0.4081,0.8700
10.7890,-0.2986,-0.4081,0.8700
10.7890,-0.2986,-0.4081,0.8700
10.7890,-0.3390,-0.4240,0.8480
10.7890,-0.3390,-0.4240,0.8480
10.7890,-0.3390,-0.4240,0.8480
10.7900,-0.3976,-0.3688,0.8818
10.7900,-0.3976,-0.3688,0.8818
10.7900,-0.3976,-0.3688,0.8818
10.7900,-0.3976,-0.3688,0.8818
10.7910,-0.3976,-0.3688,0.8818
10.7910,-0.3976,-0.3688,0.8818
10.7910,-0.3681,-0.3336,0.9233
10.7910,-0.3681,-0.3336,0.9233
10.7920,-0.3681,-0.3336,0.9233
10.8010,-0.3575,-0.3712,0.9248
10.8020,-0.3575,-0.3712,0.9248
10.8020,-0.3575,-0.3712,0.9248
10.8230,-0.3798,-0.3546,0.8671
10.8240,-0.3798,-0.3546,0.8671
10.8250,-0.3798,-0.3546,0.8671
10.8420,-0.3678,-0.3096,0.8688
10.8420,-0.3678,-0.3096,0.8688
10.8430,-0.3678,-0.3096,0.8688
10.8440,-0.3678,-0.3096,0.8688
10.8440,-0.3678,-0.3096,0.8688
10.8640,-0.3891,-0.3018,0.8497
10.8650,-0.3891,-0.3018,0.8497
10.8660,-0.3891,-0.3018,0.8497
10.8840,-0.3365,-0.3243,0.8207
10.8840,-0.3365,-0.3243,0.8207
10.8850,-0.3365,-0.3243,0.8207
10.9050,-0.3353,-0.3333,0.8495
10.9060,-0.3353,-0.3333,0.8495
10.9080,-0.3353,-0.3333,0.8495
10.9080,-0.3353,-0.3333,0.8495
10.9280,-0.3597,-0.3297,0.8255
10.9290,-0.3597,-0.3297,0.8255
10.9290,-0.3597,-0.3297,0.8255
10.9300,-0.3597,-0.3297,0.8255
10.9310,-0.3597,-0.3297,0.8255
10.9450,-0.3258,-0.3263,0.8334
10.9460,-0.3258,-0.3263,0.8334
10.9460,-0.3258,-0.3263,0.8334
10.9630,-0.3104,-0.3446,0.8747
10.9640,-0.3104,-0.3446,0.8747
10.9640,-0.3104,-0.3446,0.8747
10.9780,-0.3104,-0.3446,0.8747
10.9810,-0.2986,-0.3253,0.8358
10.9820,-0.2986,-0.3253,0.8358
10.9830,-0.2986,-0.3253,0.8358
11.0040,-0.3326,-0.2945,0.8434
11.0050,-0.3326,-0.2945,0.8434
11.0050,-0.3326,-0.2945,0.8434
11.0060,-0.3326,-0.2945,0.8434
11.0060,-0.3326,-0.2945,0.8434
11.0220,-0.3773,-0.3118,0.8563
11.0250,-0.3773,-0.3118,0.8563
11.0260,-0.3773,-0.3118,0.8563
11.0430,-0.3138,-0.3536,0.8356
11.0440,-0.3138,-0.3536,0.8356
11.0450,-0.3138,-0.3536,0.8356
11.0630,-0.2620,-0.3402,0.7994
11.0640,-0.2620,-0.3402,0.7994
11.0650,-0.2620,-0.3402,0.7994
11.0840,-0.3409,-0.3150,0.8273
11.0850,-0.3409,-0.3150,0.8273
11.0860,-0.3409,-0.3150,0.8273
11.0870,-0.3409,-0.3150,0.8273
11.0880,-0.3409,-0.3150,0.8273
11.1040,-0.3817,-0.3402,0.8832
11.1050,-0.3817,-0.3402,0.8832
11.1060,-0.3817,-0.3402,0.8832
11.1060,-0.3817,-0.3402,0.8832
11.1250,-0.3556,-0.3446,0.8571
11.1260,-0.3556,-0.3446,0.8571
11.1260,-0.3556,-0.3446,0.8571
11.1480,-0.3984,-0.3043,0.8324
11.1490,-0.3984,-0.3043,0.8324
11.1490,-0.3984,-0.3043,0.8324
11.1610,-0.4206,-0.3145,0.8869
11.1620,-0.4206,-0.3145,0.8869
11.1630,-0.4206,-0.3145,0.8869
11.1640,-0.4206,-0.3145,0.8869
11.1640,-0.4206,-0.3145,0.8869
11.1750,-0.4206,-0.3145,0.8869
11.1870,-0.3712,-0.3771,0.8957
11.1880,-0.3712,-0.3771,0.8957
11.1890,-0.3712,-0.3771,0.8957
11.2020,-0.3265,-0.3724,0.8727
11.2030,-0.3265,-0.3724,0.8727
11.2030,-0.3265,-0.3724,0.8727
11.2220,-0.3685,-0.2869,0.8681
11.2230,-0.3685,-0.2869,0.8681
11.2240,-0.3685,-0.2869,0.8681
11.2460,-0.3583,-0.2679,0.8766
11.2490,-0.3583,-0.2679,0.8766
11.2500,-0.3583,-0.2679,0.8766
11.3360,-0.3583,-0.2679,0.8766
11.3360,-0.3583,-0.2679,0.8766
11.3370,-0.3397,-0.3407,0.8705
11.3370,-0.3397,-0.3407,0.8705
11.3370,-0.3397,-0.3407,0.8705
11.3370,-0.3319,-0.3842,0.8317
11.3370,-0.3319,-0.3842,0.8317
11.3370,-0.3319,-0.3842,0.8317
11.3380,-0.2725,-0.3707,0.8551
11.3380,-0.2725,-0.3707,0.8551
11.3380,-0.2725,-0.3707,0.8551
11.3380,-0.2725,-0.3707,0.8551
11.3380,-0.2842,-0.3417,0.8840
11.3380,-0.2842,-0.3417,0.8840
11.3380,-0.2842,-0.3417,0.8840
11.3390,-0.2842,-0.3417,0.8840
11.3390,-0.2842,-0.3417,0.8840
11.3390,-0.3409,-0.3409,0.9030
11.3390,-0.3409,-0.3409,0.9030
11.3390,-0.3409,-0.3409,0.9030
11.3610,-0.3751,-0.3109,0.8869
11.3610,-0.3751,-0.3109,0.8869
11.3620,-0.3751,-0.3109,0.8869
11.3710,-0.3751,-0.3109,0.8869
11.3800,-0.3859,-0.3016,0.8776
11.3810,-0.3859,-0.3016,0.8776
11.3810,-0.3859,-0.3016,0.8776
11.4010,-0.3888,-0.3387,0.8387
11.4010,-0.3888,-0.3387,0.8387
11.4010,-0.3888,-0.3387,0.8387
11.4010,-0.3888,-0.3387,0.8387
11.4020,-0.3888,-0.3387,0.8387
11.4190,-0.3314,-0.3573,0.7879
11.4190,-0.3314,-0.3573,0.7879
11.4190,-0.3314,-0.3573,0.7879
11.4390,-0.2862,-0.3343,0.8177
11.4390,-0.2862,-0.3343,0.8177
11.4390,-0.2862,-0.3343,0.8177
11.4600,-0.3346,-0.3048,0.8703
11.4610,-0.3346,-0.3048,0.8703
11.4610,-0.3346,-0.3048,0.8703
11.4810,-0.3852,-0.3336,0.8756
11.4810,-0.3852,-0.3336,0.8756
11.4810,-0.3852,-0.3336,0.8756
11.4820,-0.3852,-0.3336,0.8756
11.4820,-0.3852,-0.3336,0.8756
11.5020,-0.3773,-0.3373,0.8581
11.5020,-0.3773,-0.3373,0.8581
11.5020,-0.3773,-0.3373,0.8581
11.5030,-0.3773,-0.3373,0.8581
11.5190,-0.3470,-0.3380,0.8204
11.5190,-0.3470,-0.3380,0.8204
11.5190,-0.3470,-0.3380,0.8204
11.5410,-0.3116,-0.3519,0.8365
11.5410,-0.3116,-0.3519,0.8365
11.5410,-0.3116,-0.3519,0.8365
11.5610,-0.3138,-0.3458,0.8625
11.5610,-0.3138,-0.3458,0.8625
11.5610,-0.3138,-0.3458,0.8625
11.5650,-0.3138,-0.3458,0.8625
11.5650,-0.3138,-0.3458,0.8625
11.5710,-0.3138,-0.3458,0.8625
11.5790,-0.3417,-0.3099,0.8835
11.5790,-0.3417,-0.3099,0.8835
11.5800,-0.3417,-0.3099,0.8835
11.6030,-0.3610,-0.3118,0.8468
11.6040,-0.3610,-0.3118,0.8468
11.6040,-0.3610,-0.3118,0.8468
11.6200,-0.3483,-0.3419,0.8400
11.6200,-0.3483,-0.3419,0.8400
11.6200,-0.3483,-0.3419,0.8400
11.6440,-0.3402,-0.3451,0.8871
11.6450,-0.3402,-0.3451,0.8871
11.6450,-0.3402,-0.3451,0.8871
11.6450,-0.3402,-0.3451,0.8871
11.6450,-0.3402,-0.3451,0.8871
11.6650,-0.3380,-0.3519,0.8712
11.6660,-0.3380,-0.3519,0.8712
11.6660,-0.3380,-0.3519,0.8712
11.6810,-0.3175,-0.3602,0.8783
11.6820,-0.3175,-0.3602,0.8783
11.6820,-0.3175,-0.3602,0.8783
11.7000,-0.3922,-0.3309,0.8781
11.7000,-0.3922,-0.3309,0.8781
11.7000,-0.3922,-0.3309,0.8781
11.7180,-0.4028,-0.3150,0.8705
11.7180,-0.4028,-0.3150,0.8705
11.7190,-0.4028,-0.3150,0.8705
11.7240,-0.4028,-0.3150,0.8705
11.7250,-0.4028,-0.3150,0.8705
11.7400,-0.3595,-0.3272,0.8407
11.7400,-0.3595,-0.3272,0.8407
11.7400,-0.3595,-0.3272,0.8407
11.7580,-0.2769,-0.3448,0.8050
11.7580,-0.2769,-0.3448,0.8050
11.7580,-0.2769,-0.3448,0.8050
11.7690,-0.2769,-0.3448,0.8050
11.7810,-0.2747,-0.3409,0.8138
11.7810,-0.2747,-0.3409,0.8138
11.7820,-0.2747,-0.3409,0.8138
11.8210,-0.3104,-0.3228,0.8671
11.8220,-0.3104,-0.3228,0.8671
11.8220,-0.3104,-0.3228,0.8671
11.8220,-0.3104,-0.3228,0.8671
11.8220,-0.3104,-0.3228,0.8671
11.8220,-0.3033,-0.3324,0.9130
11.8220,-0.3033,-0.3324,0.9130
11.8220,-0.3033,-0.3324,0.9130
11.8370,-0.3131,-0.3067,0.9096
11.8370,-0.3131,-0.3067,0.9096
11.8370,-0.3131,-0.3067,0.9096
11.8590,-0.3671,-0.2757,0.8854
11.8590,-0.3671,-0.2757,0.8854
11.8590,-0.3671,-0.2757,0.8854
11.8770,-0.3844,-0.3304,0.8974
11.8770,-0.3844,-0.3304,0.8974
11.8770,-0.3844,-0.3304,0.8974
11.8830,-0.3844,-0.3304,0.8974
11.8830,-0.3844,-0.3304,0.8974
11.9010,-0.3011,-0.4030,0.8632
11.9010,-0.3011,-0.4030,0.8632
11.9010,-0.3011,-0.4030,0.8632
11.9010,-0.3011,-0.4030,0.8632
11.9170,-0.2661,-0.4010,0.8236
11.9180,-0.2661,-0.4010,0.8236
11.9180,-0.2661,-0.4010,0.8236
11.9370,-0.3517,-0.3505,0.8192
11.9370,-0.3517,-0.3505,0.8192
11.9370,-0.3517,-0.3505,0.8192
11.9600,-0.4001,-0.3180,0.8820
11.9600,-0.4001,-0.3180,0.8820
11.9600,-0.4001,-0.3180,0.8820
11.9610,-0.4001,-0.3180,0.8820
11.9610,-0.4001,-0.3180,0.8820
11.9670,-0.4001,-0.3180,0.8820
11.9780,-0.3597,-0.3214,0.9084
11.9780,-0.3597,-0.3214,0.9084
11.9780,-0.3597,-0.3214,0.9084
11.9990,-0.3522,-0.3390,0.9025
12.0000,-0.3522,-0.3390,0.9025
12.0000,-0.3522,-0.3390,0.9025
12.0190,-0.3473,-0.3463,0.9108
12.0190,-0.3473,-0.3463,0.9108
12.0190,-0.3473,-0.3463,0.9108
12.0380,-0.3490,-0.3263,0.9045
12.0380,-0.3490,-0.3263,0.9045
12.0380,-0.3490,-0.3263,0.9045
12.0440,-0.3490,-0.3263,0.9045
12.0440,-0.3490,-0.3263,0.9045
12.0570,-0.3602,-0.3148,0.8529
12.0570,-0.3602,-0.3148,0.8529
12.0580,-0.3602,-0.3148,0.8529
12.0770,-0.3619,-0.3114,0.8358
12.0770,-0.3619,-0.3114,0.8358
12.0770,-0.3619,-0.3114,0.8358
12.0970,-0.3241,-0.3118,0.8319
12.0970,-0.3241,-0.3118,0.8319
12.0970,-0.3241,-0.3118,0.8319
12.1000,-0.3241,-0.3118,0.8319
12.1160,-0.2784,-0.3390,0.8055
12.1160,-0.2784,-0.3390,0.8055
12.1170,-0.2784,-0.3390,0.8055
12.1190,-0.2784,-0.3390,0.8055
12.1190,-0.2784,-0.3390,0.8055
12.1360,-0.2913,-0.3448,0.8466
12.1360,-0.2913,-0.3448,0.8466
12.1360,-0.2913,-0.3448,0.8466
12.1570,-0.3563,-0.3250,0.8700
12.1570,-0.3563,-0.3250,0.8700
12.1570,-0.3563,-0.3250,0.8700
12.1660,-0.3563,-0.3250,0.8700
12.1750,-0.3363,-0.3358,0.8808
12.1760,-0.3363,-0.3358,0.8808
12.1760,-0.3363,-0.3358,0.8808
12.1960,-0.2840,-0.3514,0.8686
12.1970,-0.2840,-0.3514,0.8686
12.1970,-0.2840,-0.3514,0.8686
12.2000,-0.2840,-0.3514,0.8686
12.2000,-0.2840,-0.3514,0.8686
12.2180,-0.3118,-0.3443,0.8576
12.2180,-0.3118,-0.3443,0.8576
12.2190,-0.3118,-0.3443,0.8576
12.2360,-0.3358,-0.2967,0.8830
12.2360,-0.3358,-0.2967,0.8830
12.2360,-0.3358,-0.2967,0.8830
12.2600,-0.3470,-0.2869,0.8798
12.2600,-0.3470,-0.2869,0.8798
12.2610,-0.3470,-0.2869,0.8798
12.2770,-0.3258,-0.3370,0.8461
12.2780,-0.3258,-0.3370,0.8461
12.2780,-0.3258,-0.3370,0.8461
12.2820,-0.3258,-0.3370,0.8461
12.2820,-0.3258,-0.3370,0.8461
12.2960,-0.2940,-0.3468,0.8417
12.2960,-0.2940,-0.3468,0.8417
12.2960,-0.2940,-0.3468,0.8417
12.3140,-0.2551,-0.3136,0.8309
12.3140,-0.2551,-0.3136,0.8309
12.3140,-0.2551,-0.3136,0.8309
12.3340,-0.2784,-0.2972,0.8275
12.3740,-0.2784,-0.2972,0.8275
12.3740,-0.2784,-0.2972,0.8275
12.3740,-0.3294,-0.3079,0.8725
12.3740,-0.3294,-0.3079,0.8725
12.3740,-0.3294,-0.3079,0.8725
12.3750,-0.3294,-0.3079,0.8725
12.3750,-0.3294,-0.3079,0.8725
12.3750,-0.3294,-0.3079,0.8725
12.3750,-0.3167,-0.3329,0.8952
12.3750,-0.3167,-0.3329,0.8952
12.3750,-0.3167,-0.3329,0.8952
12.3920,-0.2503,-0.3172,0.8424
12.3920,-0.2503,-0.3172,0.8424
12.3920,-0.2503,-0.3172,0.8424
12.4120,-0.2810,-0.2752,0.7989
12.4120,-0.2810,-0.2752,0.7989
12.4120,-0.2810,-0.2752,0.7989
12.4330,-0.3531,-0.2933,0.8116
12.4330,-0.3531,-0.2933,0.8116
12.4330,-0.3531,-0.2933,0.8116
12.4360,-0.3531,-0.2933,0.8116
12.4360,-0.3531,-0.2933,0.8116
12.4540,-0.2776,-0.3458,0.8571
12.4550,-0.2776,-0.3458,0.8571
12.4550,-0.2776,-0.3458,0.8571
12.4740,-0.3214,-0.3443,0.9143
12.4740,-0.3214,-0.3443,0.9143
12.4740,-0.3214,-0.3443,0.9143
12.4920,-0.4186,-0.3343,0.9279
12.4920,-0.4186,-0.3343,0.9279
12.4920,-0.4186,-0.3343,0.9279
12.4950,-0.4186,-0.3343,0.9279
12.5130,-0.3930,-0.3825,0.9028
12.5140,-0.3930,-0.3825,0.9028
12.5140,-0.3930,-0.3825,0.9028
12.5160,-0.3930,-0.3825,0.9028
12.5170,-0.3930,-0.3825,0.9028
12.5340,-0.3778,-0.4008,0.8644
12.5340,-0.3778,-0.4008,0.8644
12.5340,-0.3778,-0.4008,0.8644
12.5520,-0.3812,-0.3248,0.8632
12.5520,-0.3812,-0.3248,0.8632
12.5530,-0.3812,-0.3248,0.8632
12.5650,-0.3812,-0.3248,0.8632
12.5710,-0.3571,-0.2874,0.8881
12.5710,-0.3571,-0.2874,0.8881
12.5720,-0.3571,-0.2874,0.8881
12.5910,-0.3676,-0.3131,0.9140
12.5910,-0.3676,-0.3131,0.9140
12.5920,-0.3676,-0.3131,0.9140
12.5980,-0.3676,-0.3131,0.9140
12.5980,-0.3676,-0.3131,0.9140
12.6120,-0.3710,-0.3292,0.9030
12.6120,-0.3710,-0.3292,0.9030
12.6130,-0.3710,-0.3292,0.9030
12.6360,-0.3563,-0.3294,0.9001
12.6360,-0.3563,-0.3294,0.9001
12.6360,-0.3563,-0.3294,0.9001
12.6530,-0.3624,-0.3487,0.9077
12.6530,-0.3624,-0.3487,0.9077
12.6530,-0.3624,-0.3487,0.9077
12.6740,-0.3930,-0.3610,0.8996
12.6750,-0.3930,-0.3610,0.8996
12.6750,-0.3930,-0.3610,0.8996
12.6770,-0.3930,-0.3610,0.8996
12.6780,-0.3930,-0.3610,0.8996
12.6910,-0.3588,-0.3387,0.9126
12.6910,-0.3588,-0.3387,0.9126
12.6910,-0.3588,-0.3387,0.9126
12.6920,-0.3588,-0.3387,0.9126
12.7120,-0.3490,-0.3326,0.9040
12.7120,-0.3490,-0.3326,0.9040
12.7120,-0.3490,-0.3326,0.9040
12.7320,-0.3272,-0.3659,0.8932
12.7320,-0.3272,-0.3659,0.8932
12.7320,-0.3272,-0.3659,0.8932
12.7520,-0.2424,-0.3637,0.8588
12.7520,-0.2424,-0.3637,0.8588
12.7520,-0.2424,-0.3637,0.8588
12.7550,-0.2424,-0.3637,0.8588
12.7550,-0.2424,-0.3637,0.8588
12.7640,-0.2424,-0.3637,0.8588
12.7710,-0.2485,-0.3258,0.8023
12.7710,-0.2485,-0.3258,0.8023
12.7710,-0.2485,-0.3258,0.8023
12.7910,-0.2847,-0.3101,0.7767
12.7910,-0.2847,-0.3101,0.7767
12.7910,-0.2847,-0.3101,0.7767
12.8090,-0.2713,-0.3397,0.8177
12.8100,-0.2713,-0.3397,0.8177
12.8100,-0.2713,-0.3397,0.8177
12.8300,-0.2586,-0.3534,0.8563
12.8300,-0.2586,-0.3534,0.8563
12.8300,-0.2586,-0.3534,0.8563
12.8340,-0.2586,-0.3534,0.8563
12.8340,-0.2586,-0.3534,0.8563
12.8500,-0.3233,-0.3089,0.8571
12.8500,-0.3233,-0.3089,0.8571
12.8510,-0.3233,-0.3089,0.8571
12.8700,-0.3883,-0.2639,0.9013
12.9050,-0.3883,-0.2639,0.9013
12.9050,-0.3883,-0.2639,0.9013
12.9050,-0.3544,-0.2744,0.9035
12.9050,-0.3544,-0.2744,0.9035
12.9060,-0.3544,-0.2744,0.9035
12.9100,-0.2835,-0.3172,0.8585
12.9100,-0.2835,-0.3172,0.8585
12.9100,-0.2835,-0.3172,0.8585
12.9130,-0.2835,-0.3172,0.8585
12.9130,-0.2835,-0.3172,0.8585
12.9290,-0.2986,-0.3439,0.8666
12.9290,-0.2986,-0.3439,0.8666
12.9290,-0.2986,-0.3439,0.8666
12.9490,-0.3343,-0.3382,0.8627
12.9490,-0.3343,-0.3382,0.8627
12.9490,-0.3343,-0.3382,0.8627
12.9630,-0.3343,-0.3382,0.8627
12.9690,-0.3683,-0.3172,0.8529
12.9690,-0.3683,-0.3172,0.8529
12.9690,-0.3683,-0.3172,0.8529
12.9890,-0.3429,-0.3311,0.8881
12.9890,-0.3429,-0.3311,0.8881
12.9890,-0.3429,-0.3311,0.8881
12.9920,-0.3429,-0.3311,0.8881
12.9920,-0.3429,-0.3311,0.8881
13.0090,-0.2891,-0.3424,0.8737
13.0090,-0.2891,-0.3424,0.8737
13.0090,-0.2891,-0.3424,0.8737
13.0280,-0.2901,-0.3253,0.8370
13.0280,-0.2901,-0.3253,0.8370
13.0280,-0.2901,-0.3253,0.8370
13.0490,-0.3343,-0.3292,0.8414
13.0500,-0.3343,-0.3292,0.8414
13.0500,-0.3343,-0.3292,0.8414
13.0690,-0.3373,-0.3417,0.8656
13.0690,-0.3373,-0.3417,0.8656
13.0690,-0.3373,-0.3417,0.8656
13.0740,-0.3373,-0.3417,0.8656
13.0740,-0.3373,-0.3417,0.8656
13.0880,-0.2969,-0.3035,0.8468
13.0890,-0.2969,-0.3035,0.8468
13.0890,-0.2969,-0.3035,0.8468
13.0910,-0.2969,-0.3035,0.8468
13.1090,-0.3077,-0.2718,0.8356
13.1090,-0.3077,-0.2718,0.8356
13.1090,-0.3077,-0.2718,0.8356
13.1280,-0.3563,-0.3048,0.8649
13.1280,-0.3563,-0.3048,0.8649
13.1280,-0.3563,-0.3048,0.8649
13.1480,-0.3170,-0.3465,0.8761
13.1490,-0.3170,-0.3465,0.8761
13.1490,-0.3170,-0.3465,0.8761
13.1510,-0.3170,-0.3465,0.8761
13.1510,-0.3170,-0.3465,0.8761
13.1600,-0.3170,-0.3465,0.8761
13.1680,-0.2610,-0.3209,0.8637
13.1680,-0.2610,-0.3209,0.8637
13.1680,-0.2610,-0.3209,0.8637
13.1880,-0.2441,-0.3050,0.8712
13.1880,-0.2441,-0.3050,0.8712
13.1880,-0.2441,-0.3050,0.8712
13.2080,-0.2735,-0.3150,0.8708
13.2080,-0.2735,-0.3150,0.8708
13.2080,-0.2735,-0.3150,0.8708
13.2270,-0.3326,-0.3272,0.8800
13.2280,-0.3326,-0.3272,0.8800
13.2280,-0.3326,-0.3272,0.8800
13.2300,-0.3326,-0.3272,0.8800
13.2310,-0.3326,-0.3272,0.8800
13.2470,-0.3360,-0.3392,0.8686
13.2480,-0.3360,-0.3392,0.8686
13.2480,-0.3360,-0.3392,0.8686
13.2670,-0.3331,-0.3336,0.8703
13.2670,-0.3331,-0.3336,0.8703
13.2680,-0.3331,-0.3336,0.8703
13.2880,-0.3118,-0.3272,0.8874
13.2880,-0.3118,-0.3272,0.8874
13.2880,-0.3118,-0.3272,0.8874
13.2890,-0.3118,-0.3272,0.8874
13.3080,-0.2798,-0.3263,0.8830
13.3080,-0.2798,-0.3263,0.8830
13.3080,-0.2798,-0.3263,0.8830
13.3120,-0.2798,-0.3263,0.8830
13.3130,-0.2798,-0.3263,0.8830
13.3270,-0.3221,-0.3216,0.8683
13.3270,-0.3221,-0.3216,0.8683
13.3280,-0.3221,-0.3216,0.8683
13.3470,-0.3607,-0.3233,0.8832
13.3470,-0.3607,-0.3233,0.8832
13.3470,-0.3607,-0.3233,0.8832
13.3590,-0.3607,-0.3233,0.8832
13.3660,-0.3463,-0.3343,0.9152
13.3660,-0.3463,-0.3343,0.9152
13.3660,-0.3463,-0.3343,0.9152
13.3870,-0.3070,-0.3414,0.8959
13.3870,-0.3070,-0.3414,0.8959
13.3870,-0.3070,-0.3414,0.8959
13.3900,-0.3070,-0.3414,0.8959
13.3910,-0.3070,-0.3414,0.8959
13.4070,-0.3211,-0.3126,0.8468
13.4560,-0.3211,-0.3126,0.8468
13.4570,-0.3211,-0.3126,0.8468
13.4570,-0.3724,-0.3136,0.8722
13.4570,-0.3724,-0.3136,0.8722
13.4570,-0.3724,-0.3136,0.8722
13.4570,-0.3443,-0.3541,0.8869
13.4570,-0.3443,-0.3541,0.8869
13.4570,-0.3443,-0.3541,0.8869
13.4650,-0.2996,-0.3470,0.8544
13.4650,-0.2996,-0.3470,0.8544
13.4650,-0.2996,-0.3470,0.8544
13.4680,-0.2996,-0.3470,0.8544
13.4690,-0.2996,-0.3470,0.8544
13.4850,-0.3483,-0.3033,0.8427
13.4850,-0.3483,-0.3033,0.8427
13.4850,-0.3483,-0.3033,0.8427
13.5050,-0.3377,-0.3023,0.8866
13.5060,-0.3377,-0.3023,0.8866
13.5060,-0.3377,-0.3023,0.8866
13.5260,-0.3055,-0.3209,0.8879
13.5260,-0.3055,-0.3209,0.8879
13.5260,-0.3055,-0.3209,0.8879
13.5450,-0.3321,-0.3182,0.8803
13.5450,-0.3321,-0.3182,0.8803
13.5460,-0.3321,-0.3182,0.8803
13.5460,-0.3321,-0.3182,0.8803
13.5460,-0.3321,-0.3182,0.8803
13.5580,-0.3321,-0.3182,0.8803
13.5680,-0.3363,-0.2840,0.8862
13.5680,-0.3363,-0.2840,0.8862
13.5690,-0.3363,-0.2840,0.8862
13.5860,-0.3280,-0.2781,0.8859
13.5860,-0.3280,-0.2781,0.8859
13.5860,-0.3280,-0.2781,0.8859
13.6060,-0.3148,-0.3380,0.8778
13.6060,-0.3148,-0.3380,0.8778
13.6060,-0.3148,-0.3380,0.8778
13.6250,-0.2935,-0.3485,0.8449
13.6260,-0.2935,-0.3485,0.8449
13.6260,-0.2935,-0.3485,0.8449
13.6260,-0.2935,-0.3485,0.8449
13.6260,-0.2935,-0.3485,0.8449
13.6470,-0.3182,-0.2874,0.8400
13.6480,-0.3182,-0.2874,0.8400
13.6480,-0.3182,-0.2874,0.8400
13.6660,-0.3634,-0.2989,0.8803
13.6670,-0.3634,-0.2989,0.8803
13.6670,-0.3634,-0.2989,0.8803
13.6870,-0.3121,-0.3683,0.8854
13.6870,-0.3121,-0.3683,0.8854
13.6880,-0.3121,-0.3683,0.8854
13.6880,-0.3121,-0.3683,0.8854
13.7060,-0.2686,-0.3788,0.8656
13.7060,-0.2686,-0.3788,0.8656
13.7070,-0.2686,-0.3788,0.8656
13.7070,-0.2686,-0.3788,0.8656
13.7250,-0.3248,-0.3377,0.8590
13.7260,-0.3248,-0.3377,0.8590
13.7260,-0.3248,-0.3377,0.8590
13.7450,-0.3546,-0.3248,0.8950
13.7450,-0.3546,-0.3248,0.8950
13.7450,-0.3546,-0.3248,0.8950
13.7590,-0.3546,-0.3248,0.8950
13.7660,-0.3228,-0.3275,0.9152
13.7670,-0.3228,-0.3275,0.9152
13.7670,-0.3228,-0.3275,0.9152
13.7850,-0.2977,-0.3304,0.8739
13.7860,-0.2977,-0.3304,0.8739
13.7860,-0.2977,-0.3304,0.8739
13.7870,-0.2977,-0.3304,0.8739
13.7870,-0.2977,-0.3304,0.8739
13.8060,-0.3145,-0.3368,0.8681
13.8060,-0.3145,-0.3368,0.8681
13.8060,-0.3145,-0.3368,0.8681
13.8270,-0.3324,-0.3370,0.8928
13.8270,-0.3324,-0.3370,0.8928
13.8270,-0.3324,-0.3370,0.8928
13.8490,-0.2991,-0.3473,0.8994
13.8500,-0.2991,-0.3473,0.8994
13.8500,-0.2991,-0.3473,0.8994
13.8650,-0.2781,-0.3333,0.8786
13.8650,-0.2781,-0.3333,0.8786
13.8650,-0.2781,-0.3333,0.8786
13.8680,-0.2781,-0.3333,0.8786
13.8690,-0.2781,-0.3333,0.8786
13.8850,-0.3202,-0.3055,0.8671
13.8850,-0.3202,-0.3055,0.8671
13.8860,-0.3202,-0.3055,0.8671
13.8860,-0.3202,-0.3055,0.8671
13.9050,-0.3348,-0.3219,0.9062
13.9050,-0.3348,-0.3219,0.9062
13.9060,-0.3348,-0.3219,0.9062
13.9250,-0.2974,-0.3641,0.8964
13.9250,-0.2974,-0.3641,0.8964
13.9250,-0.2974,-0.3641,0.8964
13.9450,-0.2935,-0.3473,0.8233
13.9460,-0.2935,-0.3473,0.8233
13.9460,-0.2935,-0.3473,0.8233
13.9490,-0.2935,-0.3473,0.8233
13.9490,-0.2935,-0.3473,0.8233
13.9960,-0.2935,-0.3473,0.8233
13.9960,-0.3392,-0.2972,0.8302
13.9960,-0.3392,-0.2972,0.8302
13.9970,-0.3392,-0.2972,0.8302
13.9970,-0.3395,-0.3028,0.8886
13.9970,-0.3395,-0.3028,0.8886
13.9970,-0.3395,-0.3028,0.8886
14.0020,-0.2884,-0.3439,0.8800
14.0020,-0.2884,-0.3439,0.8800
14.0020,-0.2884,-0.3439,0.8800
14.0240,-0.2828,-0.3348,0.8395
14.0240,-0.2828,-0.3348,0.8395
14.0240,-0.2828,-0.3348,0.8395
14.0250,-0.2828,-0.3348,0.8395
14.0250,-0.2828,-0.3348,0.8395
14.0430,-0.3365,-0.3018,0.8612
14.0430,-0.3365,-0.3018,0.8612
14.0430,-0.3365,-0.3018,0.8612
14.0640,-0.3407,-0.3277,0.9135
14.0640,-0.3407,-0.3277,0.9135
14.0640,-0.3407,-0.3277,0.9135
14.0830,-0.3314,-0.3429,0.8923
14.0830,-0.3314,-0.3429,0.8923
14.0830,-0.3314,-0.3429,0.8923
14.0830,-0.3314,-0.3429,0.8923
14.1050,-0.3456,-0.3121,0.8771
14.1050,-0.3456,-0.3121,0.8771
14.1050,-0.3456,-0.3121,0.8771
14.1050,-0.3456,-0.3121,0.8771
14.1050,-0.3456,-0.3121,0.8771
14.1240,-0.3527,-0.2884,0.8803
14.1240,-0.3527,-0.2884,0.8803
14.1240,-0.3527,-0.2884,0.8803
14.1440,-0.3353,-0.3067,0.8598
14.1440,-0.3353,-0.3067,0.8598
14.1440,-0.3353,-0.3067,0.8598
14.1520,-0.3353,-0.3067,0.8598
14.1650,-0.3558,-0.3199,0.8339
14.1650,-0.3558,-0.3199,0.8339
14.1650,-0.3558,-0.3199,0.8339
14.1860,-0.3299,-0.3224,0.8598
14.1860,-0.3299,-0.3224,0.8598
14.1860,-0.3299,-0.3224,0.8598
14.1870,-0.3299,-0.3224,0.8598
14.1870,-0.3299,-0.3224,0.8598
14.2040,-0.2644,-0.3167,0.8769
14.2050,-0.2644,-0.3167,0.8769
14.2050,-0.2644,-0.3167,0.8769
14.2240,-0.2681,-0.3143,0.8752
14.2250,-0.2681,-0.3143,0.8752
14.2250,-0.2681,-0.3143,0.8752
14.2440,-0.2876,-0.3199,0.9047
14.2450,-0.2876,-0.3199,0.9047
14.2460,-0.2876,-0.3199,0.9047
14.2650,-0.2960,-0.3272,0.9343
14.2680,-0.2960,-0.3272,0.9343
14.2690,-0.2960,-0.3272,0.9343
14.2690,-0.2960,-0.3272,0.9343
14.2700,-0.2960,-0.3272,0.9343
14.2860,-0.3184,-0.3138,0.8769
14.2870,-0.3184,-0.3138,0.8769
14.2880,-0.3184,-0.3138,0.8769
14.2880,-0.3184,-0.3138,0.8769
14.3050,-0.3299,-0.3013,0.8304
14.3050,-0.3299,-0.3013,0.8304
14.3060,-0.3299,-0.3013,0.8304
14.3270,-0.3390,-0.2852,0.8317
14.3280,-0.3390,-0.2852,0.8317
14.3280,-0.3390,-0.2852,0.8317
14.3440,-0.3043,-0.3033,0.8627
14.3440,-0.3043,-0.3033,0.8627
14.3450,-0.3043,-0.3033,0.8627
14.3460,-0.3043,-0.3033,0.8627
14.3460,-0.3043,-0.3033,0.8627
14.3500,-0.3043,-0.3033,0.8627
14.3640,-0.2898,-0.3224,0.8431
14.3650,-0.2898,-0.3224,0.8431
14.3650,-0.2898,-0.3224,0.8431
14.3830,-0.2901,-0.2960,0.8612
14.3840,-0.2901,-0.2960,0.8612
14.3840,-0.2901,-0.2960,0.8612
14.4030,-0.3106,-0.2852,0.9089
14.4030,-0.3106,-0.2852,0.9089
14.4040,-0.3106,-0.2852,0.9089
14.4250,-0.3348,-0.3294,0.9211
14.4250,-0.3348,-0.3294,0.9211
14.4260,-0.3348,-0.3294,0.9211
14.4270,-0.3348,-0.3294,0.9211
14.4270,-0.3348,-0.3294,0.9211
14.4430,-0.3275,-0.3434,0.9086
14.4440,-0.3275,-0.3434,0.9086
14.4440,-0.3275,-0.3434,0.9086
14.4650,-0.3380,-0.2989,0.9064
14.4650,-0.3380,-0.2989,0.9064
14.4650,-0.3380,-0.2989,0.9064
14.4830,-0.3519,-0.2840,0.9079
14.4870,-0.3519,-0.2840,0.9079
14.4880,-0.3519,-0.2840,0.9079
14.5040,-0.3158,-0.3106,0.8893
14.5050,-0.3158,-0.3106,0.8893
14.5820,-0.3158,-0.3106,0.8893
14.5830,-0.3158,-0.3106,0.8893
14.5830,-0.3158,-0.3106,0.8893
14.5830,-0.2732,-0.3050,0.8585
14.5830,-0.2732,-0.3050,0.8585
14.5830,-0.2732,-0.3050,0.8585
14.5840,-0.2652,-0.2989,0.8197
14.5840,-0.2652,-0.2989,0.8197
14.5840,-0.2652,-0.2989,0.8197
14.5840,-0.2652,-0.2989,0.8197
14.5840,-0.2463,-0.3050,0.8456
14.5840,-0.2463,-0.3050,0.8456
14.5850,-0.2463,-0.3050,0.8456
14.5850,-0.2654,-0.2923,0.8798
14.5850,-0.2654,-0.2923,0.8798
14.5850,-0.2654,-0.2923,0.8798
14.5850,-0.2654,-0.2923,0.8798
14.5850,-0.2654,-0.2923,0.8798
14.5980,-0.2752,-0.2982,0.8915
14.5980,-0.2752,-0.2982,0.8915
14.5990,-0.2752,-0.2982,0.8915
14.6200,-0.2952,-0.3260,0.8935
14.6210,-0.2952,-0.3260,0.8935
14.6210,-0.2952,-0.3260,0.8935
14.6410,-0.3192,-0.3160,0.9050
14.6420,-0.3192,-0.3160,0.9050
14.6420,-0.3192,-0.3160,0.9050
14.6580,-0.3304,-0.3040,0.8947
14.6590,-0.3304,-0.3040,0.8947
14.6590,-0.3304,-0.3040,0.8947
14.6620,-0.3304,-0.3040,0.8947
14.6620,-0.3304,-0.3040,0.8947
14.6790,-0.3282,-0.3028,0.8691
14.6800,-0.3282,-0.3028,0.8691
14.6800,-0.3282,-0.3028,0.8691
14.7010,-0.3289,-0.2872,0.8441
14.7010,-0.3289,-0.2872,0.8441
14.7020,-0.3289,-0.2872,0.8441
14.7240,-0.3123,-0.2810,0.8480
14.7240,-0.3123,-0.2810,0.8480
14.7240,-0.3123,-0.2810,0.8480
14.7390,-0.2894,-0.2840,0.8427
14.7390,-0.2894,-0.2840,0.8427
14.7400,-0.2894,-0.2840,0.8427
14.7430,-0.2894,-0.2840,0.8427
14.7440,-0.2894,-0.2840,0.8427
14.7470,-0.2894,-0.2840,0.8427
14.7600,-0.2889,-0.2942,0.8478
14.7610,-0.2889,-0.2942,0.8478
14.7610,-0.2889,-0.2942,0.8478
14.7810,-0.2999,-0.3118,0.8568
14.7810,-0.2999,-0.3118,0.8568
14.7810,-0.2999,-0.3118,0.8568
14.8000,-0.3065,-0.3165,0.8808
14.8000,-0.3065,-0.3165,0.8808
14.8000,-0.3065,-0.3165,0.8808
14.8200,-0.3226,-0.3150,0.8984
14.8200,-0.3226,-0.3150,0.8984
14.8200,-0.3226,-0.3150,0.8984
14.8220,-0.3226,-0.3150,0.8984
14.8230,-0.3226,-0.3150,0.8984
14.8400,-0.3219,-0.3096,0.8954
14.8400,-0.3219,-0.3096,0.8954
14.8400,-0.3219,-0.3096,0.8954
14.8610,-0.3297,-0.3128,0.8888
14.8610,-0.3297,-0.3128,0.8888
14.8610,-0.3297,-0.3128,0.8888
14.8840,-0.3500,-0.3182,0.8881
14.8840,-0.3500,-0.3182,0.8881
14.8840,-0.3500,-0.3182,0.8881
14.8840,-0.3500,-0.3182,0.8881
14.9000,-0.3079,-0.3158,0.8910
14.9000,-0.3079,-0.3158,0.8910
14.9000,-0.3079,-0.3158,0.8910
14.9030,-0.3079,-0.3158,0.8910
14.9040,-0.3079,-0.3158,0.8910
14.9190,-0.2986,-0.3109,0.8615
14.9200,-0.2986,-0.3109,0.8615
14.9200,-0.2986,-0.3109,0.8615
14.9390,-0.3245,-0.3106,0.8651
14.9390,-0.3245,-0.3106,0.8651
14.9390,-0.3245,-0.3106,0.8651
14.9450,-0.3245,-0.3106,0.8651
14.9570,-0.3209,-0.3072,0.8952
14.9580,-0.3209,-0.3072,0.8952
14.9580,-0.3209,-0.3072,0.8952
14.9790,-0.3346,-0.3187,0.9086
14.9790,-0.3346,-0.3187,0.9086
14.9790,-0.3346,-0.3187,0.9086
14.9800,-0.3346,-0.3187,0.9086
14.9800,-0.3346,-0.3187,0.9086
14.9990,-0.3238,-0.3390,0.8945
14.9990,-0.3238,-0.3390,0.8945
15.0000,-0.3238,-0.3390,0.8945
15.0190,-0.2784,-0.3593,0.8945
15.0190,-0.2784,-0.3593,0.8945
15.0190,-0.2784,-0.3593,0.8945
15.0380,-0.2522,-0.3676,0.9011
15.0380,-0.2522,-0.3676,0.9011
15.0380,-0.2522,-0.3676,0.9011
15.0960,-0.2835,-0.3409,0.8634
15.0960,-0.2835,-0.3409,0.8634
15.0960,-0.2835,-0.3409,0.8634
15.0960,-0.2835,-0.3409,0.8634
15.0960,-0.2835,-0.3409,0.8634
15.0960,-0.3204,-0.2938,0.8434
15.0960,-0.3204,-0.2938,0.8434
15.0960,-0.3204,-0.2938,0.8434
15.0960,-0.3204,-0.2938,0.8434
15.0970,-0.3282,-0.3082,0.8497
15.0970,-0.3282,-0.3082,0.8497
15.0970,-0.3282,-0.3082,0.8497
15.1160,-0.2850,-0.3590,0.8600
15.1160,-0.2850,-0.3590,0.8600
15.1170,-0.2850,-0.3590,0.8600
15.1360,-0.3072,-0.3399,0.8546
15.1360,-0.3072,-0.3399,0.8546
15.1360,-0.3072,-0.3399,0.8546
15.1420,-0.3072,-0.3399,0.8546
15.1420,-0.3072,-0.3399,0.8546
15.1440,-0.3072,-0.3399,0.8546
15.1580,-0.3649,-0.3140,0.9126
15.1580,-0.3649,-0.3140,0.9126
15.1580,-0.3649,-0.3140,0.9126
15.1780,-0.3695,-0.3280,0.9248
15.1780,-0.3695,-0.3280,0.9248
15.1780,-0.3695,-0.3280,0.9248
15.1960,-0.3439,-0.3255,0.9130
15.1970,-0.3439,-0.3255,0.9130
15.1970,-0.3439,-0.3255,0.9130
15.2170,-0.3407,-0.3175,0.8796
15.2180,-0.3407,-0.3175,0.8796
15.2180,-0.3407,-0.3175,0.8796
15.2180,-0.3407,-0.3175,0.8796
15.2180,-0.3407,-0.3175,0.8796
15.2360,-0.3661,-0.3231,0.8749
15.2370,-0.3661,-0.3231,0.8749
15.2370,-0.3661,-0.3231,0.8749
15.2570,-0.3165,-0.3243,0.8832
15.2580,-0.3165,-0.3243,0.8832
15.2580,-0.3165,-0.3243,0.8832
15.2770,-0.3165,-0.3243,0.8832
15.2780,-0.2781,-0.2928,0.8168
15.2780,-0.2781,-0.2928,0.8168
15.2780,-0.2781,-0.2928,0.8168
15.2970,-0.3040,-0.2791,0.8207
15.2970,-0.3040,-0.2791,0.8207
15.2970,-0.3040,-0.2791,0.8207
15.3000,-0.3040,-0.2791,0.8207
15.3000,-0.3040,-0.2791,0.8207
15.3180,-0.3314,-0.3028,0.9057
15.3190,-0.3314,-0.3028,0.9057
15.3190,-0.3314,-0.3028,0.9057
15.3370,-0.2942,-0.3431,0.9529
15.3370,-0.2942,-0.3431,0.9529
15.3370,-0.2942,-0.3431,0.9529
15.3440,-0.2942,-0.3431,0.9529
15.3570,-0.2417,-0.3553,0.9082
15.3580,-0.2417,-0.3553,0.9082
15.3580,-0.2417,-0.3553,0.9082
15.3770,-0.2857,-0.3055,0.8304
15.3770,-0.2857,-0.3055,0.8304
15.3770,-0.2857,-0.3055,0.8304
15.3800,-0.2857,-0.3055,0.8304
15.3800,-0.2857,-0.3055,0.8304
15.3980,-0.3678,-0.2857,0.8688
15.3980,-0.3678,-0.2857,0.8688
15.3980,-0.3678,-0.2857,0.8688
15.4160,-0.3707,-0.3065,0.9135
15.4160,-0.3707,-0.3065,0.9135
15.4170,-0.3707,-0.3065,0.9135
15.4340,-0.2891,-0.3092,0.8881
15.4350,-0.2891,-0.3092,0.8881
15.4350,-0.2891,-0.3092,0.8881
15.4590,-0.2444,-0.2950,0.8517
15.4590,-0.2444,-0.2950,0.8517
15.4590,-0.2444,-0.2950,0.8517
15.4590,-0.2444,-0.2950,0.8517
15.4590,-0.2444,-0.2950,0.8517
15.4780,-0.2444,-0.2950,0.8517
15.4780,-0.2920,-0.3216,0.8673
15.4790,-0.2920,-0.3216,0.8673
15.4790,-0.2920,-0.3216,0.8673
15.4980,-0.3043,-0.3502,0.8898
15.4980,-0.3043,-0.3502,0.8898
15.4980,-0.3043,-0.3502,0.8898
15.5170,-0.3136,-0.3221,0.8908
15.5170,-0.3136,-0.3221,0.8908
15.5170,-0.3136,-0.3221,0.8908
15.5380,-0.3101,-0.2942,0.8923
15.5380,-0.3101,-0.2942,0.8923
15.5390,-0.3101,-0.2942,0.8923
15.5440,-0.3101,-0.2942,0.8923
15.5450,-0.3101,-0.2942,0.8923
15.5450,-0.3101,-0.2942,0.8923
15.5570,-0.3096,-0.3123,0.8825
15.5580,-0.3096,-0.3123,0.8825
15.5580,-0.3096,-0.3123,0.8825
15.5770,-0.3128,-0.3407,0.8754
15.5770,-0.3128,-0.3407,0.8754
15.6280,-0.3128,-0.3407,0.8754
15.6280,-0.2490,-0.3695,0.8351
15.6280,-0.2490,-0.3695,0.8351
15.6280,-0.2490,-0.3695,0.8351
15.6280,-0.2454,-0.3399,0.8405
15.6290,-0.2454,-0.3399,0.8405
15.6290,-0.2454,-0.3399,0.8405
15.6290,-0.2454,-0.3399,0.8405
15.6290,-0.2454,-0.3399,0.8405
15.6320,-0.3216,-0.3055,0.8886
15.6320,-0.3216,-0.3055,0.8886
15.6320,-0.3216,-0.3055,0.8886
15.6520,-0.3126,-0.3424,0.9101
15.6520,-0.3126,-0.3424,0.9101
15.6520,-0.3126,-0.3424,0.9101
15.6750,-0.3272,-0.3329,0.8915
15.6750,-0.3272,-0.3329,0.8915
15.6750,-0.3272,-0.3329,0.8915
15.6950,-0.3258,-0.3011,0.8703
15.6950,-0.3258,-0.3011,0.8703
15.6950,-0.3258,-0.3011,0.8703
15.6980,-0.3258,-0.3011,0.8703
15.6980,-0.3258,-0.3011,0.8703
15.7140,-0.3060,-0.3158,0.8710
15.7140,-0.3060,-0.3158,0.8710
15.7140,-0.3060,-0.3158,0.8710
15.7330,-0.3194,-0.3162,0.8769
15.7330,-0.3194,-0.3162,0.8769
15.7330,-0.3194,-0.3162,0.8769
15.7430,-0.3194,-0.3162,0.8769
15.7530,-0.3150,-0.2916,0.8754
15.7530,-0.3150,-0.2916,0.8754
15.7540,-0.3150,-0.2916,0.8754
15.7750,-0.3094,-0.3023,0.8463
15.7750,-0.3094,-0.3023,0.8463
15.7750,-0.3094,-0.3023,0.8463
15.7760,-0.3094,-0.3023,0.8463
15.7760,-0.3094,-0.3023,0.8463
15.7960,-0.3040,-0.3302,0.8334
15.7960,-0.3040,-0.3302,0.8334
15.7960,-0.3040,-0.3302,0.8334
15.8140,-0.2862,-0.3368,0.8862
15.8140,-0.2862,-0.3368,0.8862
15.8140,-0.2862,-0.3368,0.8862
15.8320,-0.3358,-0.3390,0.9135
15.8320,-0.3358,-0.3390,0.9135
15.8320,-0.3358,-0.3390,0.9135
15.8550,-0.3287,-0.3116,0.8600
15.8550,-0.3287,-0.3116,0.8600
15.8560,-0.3287,-0.3116,0.8600
15.8560,-0.3287,-0.3116,0.8600
15.8570,-0.3287,-0.3116,0.8600
15.8720,-0.3287,-0.3116,0.8600
15.8730,-0.3280,-0.3267,0.8595
15.8730,-0.3280,-0.3267,0.8595
15.8730,-0.3280,-0.3267,0.8595
15.8930,-0.3206,-0.3654,0.8808
15.8930,-0.3206,-0.3654,0.8808
15.8930,-0.3206,-0.3654,0.8808
15.9140,-0.2661,-0.3297,0.8656
15.9140,-0.2661,-0.3297,0.8656
15.9140,-0.2661,-0.3297,0.8656
15.9320,-0.2510,-0.2820,0.8578
15.9330,-0.2510,-0.2820,0.8578
15.9330,-0.2510,-0.2820,0.8578
15.9380,-0.2510,-0.2820,0.8578
15.9380,-0.2510,-0.2820,0.8578
15.9430,-0.2510,-0.2820,0.8578
15.9540,-0.2561,-0.3299,0.8576
15.9540,-0.2561,-0.3299,0.8576
15.9550,-0.2561,-0.3299,0.8576
15.9730,-0.2725,-0.3612,0.8708
15.9730,-0.2725,-0.3612,0.8708
15.9730,-0.2725,-0.3612,0.8708
15.9960,-0.2950,-0.3316,0.8764
15.9960,-0.2950,-0.3316,0.8764
15.9970,-0.2950,-0.3316,0.8764
16.0110,-0.3219,-0.2962,0.8991
16.0110,-0.3219,-0.2962,0.8991
16.0110,-0.3219,-0.2962,0.8991
16.0150,-0.3219,-0.2962,0.8991
16.0150,-0.3219,-0.2962,0.8991
16.0310,-0.3380,-0.2896,0.9133
16.0320,-0.3380,-0.2896,0.9133
16.0320,-0.3380,-0.2896,0.9133
16.0520,-0.3184,-0.3287,0.8996
16.0520,-0.3184,-0.3287,0.8996
16.0520,-0.3184,-0.3287,0.8996
16.0700,-0.3184,-0.3287,0.8996
16.0700,-0.3123,-0.3431,0.9057
16.0700,-0.3123,-0.3431,0.9057
16.0700,-0.3123,-0.3431,0.9057
16.0910,-0.3605,-0.3353,0.8749
16.0920,-0.3605,-0.3353,0.8749
16.0920,-0.3605,-0.3353,0.8749
16.0940,-0.3605,-0.3353,0.8749
16.0940,-0.3605,-0.3353,0.8749
16.1110,-0.3285,-0.3573,0.8395
16.1110,-0.3285,-0.3573,0.8395
16.1110,-0.3285,-0.3573,0.8395
16.1510,-0.3617,-0.3539,0.8488
16.1510,-0.3617,-0.3539,0.8488
16.1510,-0.3617,-0.3539,0.8488
16.1510,-0.3617,-0.3539,0.8488
16.1510,-0.3527,-0.3531,0.8695
16.1510,-0.3527,-0.3531,0.8695
16.1520,-0.3527,-0.3531,0.8695
16.1710,-0.2696,-0.3580,0.8649
16.1710,-0.2696,-0.3580,0.8649
16.1710,-0.2696,-0.3580,0.8649
16.1740,-0.2696,-0.3580,0.8649
16.1740,-0.2696,-0.3580,0.8649
16.1890,-0.2989,-0.3329,0.8866
16.1890,-0.2989,-0.3329,0.8866
16.1890,-0.2989,-0.3329,0.8866
16.2090,-0.3688,-0.3079,0.9135
16.2090,-0.3688,-0.3079,0.9135
16.2100,-0.3688,-0.3079,0.9135
16.2290,-0.3250,-0.2952,0.8967
16.2290,-0.3250,-0.2952,0.8967
16.2300,-0.3250,-0.2952,0.8967
16.2490,-0.3082,-0.2933,0.8566
16.2490,-0.3082,-0.2933,0.8566
16.2490,-0.3082,-0.2933,0.8566
16.2540,-0.3082,-0.2933,0.8566
16.2540,-0.3082,-0.2933,0.8566
16.2690,-0.3082,-0.2933,0.8566
16.2690,-0.3844,-0.3038,0.8576
16.2690,-0.3844,-0.3038,0.8576
16.2690,-0.3844,-0.3038,0.8576
16.2890,-0.3116,-0.3175,0.8996
16.2900,-0.3116,-0.3175,0.8996
16.2900,-0.3116,-0.3175,0.8996
16.3090,-0.2766,-0.3267,0.8818
16.3090,-0.2766,-0.3267,0.8818
16.3090,-0.2766,-0.3267,0.8818
16.3300,-0.2752,-0.3297,0.8627
16.3310,-0.2752,-0.3297,0.8627
16.3310,-0.2752,-0.3297,0.8627
16.3310,-0.2752,-0.3297,0.8627
16.3310,-0.2752,-0.3297,0.8627
16.3400,-0.2752,-0.3297,0.8627
16.3500,-0.2625,-0.3258,0.8786
16.3510,-0.2625,-0.3258,0.8786
16.3510,-0.2625,-0.3258,0.8786
16.3690,-0.2632,-0.3436,0.9143
16.3690,-0.2632,-0.3436,0.9143
16.3690,-0.2632,-0.3436,0.9143
16.3880,-0.3050,-0.3451,0.8898
16.3890,-0.3050,-0.3451,0.8898
16.3890,-0.3050,-0.3451,0.8898
16.4100,-0.3155,-0.3214,0.8541
16.4100,-0.3155,-0.3214,0.8541
16.4100,-0.3155,-0.3214,0.8541
16.4110,-0.3155,-0.3214,0.8541
16.4110,-0.3155,-0.3214,0.8541
16.4290,-0.3297,-0.3167,0.8512
16.4290,-0.3297,-0.3167,0.8512
16.4300,-0.3297,-0.3167,0.8512
16.4490,-0.3263,-0.3206,0.8585
16.4490,-0.3263,-0.3206,0.8585
16.4500,-0.3263,-0.3206,0.8585
16.4680,-0.3263,-0.3206,0.8585
16.4680,-0.2517,-0.3079,0.8221
16.4680,-0.2517,-0.3079,0.8221
16.4680,-0.2517,-0.3079,0.8221
16.4900,-0.2625,-0.3094,0.7879
16.4900,-0.2625,-0.3094,0.7879
16.4900,-0.2625,-0.3094,0.7879
16.4910,-0.2625,-0.3094,0.7879
16.4910,-0.2625,-0.3094,0.7879
16.5100,-0.3392,-0.3280,0.8683
16.5100,-0.3392,-0.3280,0.8683
16.5100,-0.3392,-0.3280,0.8683
16.5280,-0.3544,-0.3446,0.9458
16.5290,-0.3544,-0.3446,0.9458
16.5290,-0.3544,-0.3446,0.9458
16.5360,-0.3544,-0.3446,0.9458
16.5490,-0.3309,-0.3431,0.9697
16.5490,-0.3309,-0.3431,0.9697
16.5490,-0.3309,-0.3431,0.9697
16.5680,-0.2566,-0.3045,0.9133
16.5690,-0.2566,-0.3045,0.9133
16.5690,-0.2566,-0.3045,0.9133
16.5700,-0.2566,-0.3045,0.9133
16.5700,-0.2566,-0.3045,0.9133
16.5880,-0.2212,-0.3297,0.8901
16.5880,-0.2212,-0.3297,0.8901
16.5890,-0.2212,-0.3297,0.8901
16.6080,-0.2945,-0.3671,0.8698
16.6080,-0.2945,-0.3671,0.8698
16.6080,-0.2945,-0.3671,0.8698
16.6280,-0.3495,-0.3715,0.8644
16.6280,-0.3495,-0.3715,0.8644
16.6280,-0.3495,-0.3715,0.8644
16.6480,-0.3505,-0.3417,0.8590
16.6480,-0.3505,-0.3417,0.8590
16.6480,-0.3505,-0.3417,0.8590
16.6520,-0.3505,-0.3417,0.8590
16.6520,-0.3505,-0.3417,0.8590
16.6910,-0.3505,-0.3417,0.8590
16.6910,-0.3214,-0.3030,0.8593
16.6910,-0.3214,-0.3030,0.8593
16.6910,-0.3214,-0.3030,0.8593
16.6910,-0.2742,-0.2891,0.8324
16.6910,-0.2742,-0.2891,0.8324
16.6910,-0.2742,-0.2891,0.8324
16.7060,-0.2806,-0.3084,0.8040
16.7060,-0.2806,-0.3084,0.8040
16.7060,-0.2806,-0.3084,0.8040
16.7260,-0.3043,-0.3360,0.8180
16.7260,-0.3043,-0.3360,0.8180
16.7260,-0.3043,-0.3360,0.8180
16.7290,-0.3043,-0.3360,0.8180
16.7300,-0.3043,-0.3360,0.8180
16.7330,-0.3043,-0.3360,0.8180
16.7470,-0.3353,-0.3289,0.8629
16.7480,-0.3353,-0.3289,0.8629
16.7480,-0.3353,-0.3289,0.8629
16.7660,-0.3676,-0.3165,0.8967
16.7660,-0.3676,-0.3165,0.8967
16.7660,-0.3676,-0.3165,0.8967
16.7850,-0.4138,-0.3265,0.9539
16.7860,-0.4138,-0.3265,0.9539
16.7860,-0.4138,-0.3265,0.9539
16.8060,-0.3861,-0.3382,0.9553
16.8060,-0.3861,-0.3382,0.9553
16.8070,-0.3861,-0.3382,0.9553
16.8100,-0.3861,-0.3382,0.9553
16.8100,-0.3861,-0.3382,0.9553
16.8260,-0.3084,-0.3409,0.9221
16.8270,-0.3084,-0.3409,0.9221
16.8270,-0.3084,-0.3409,0.9221
16.8460,-0.2994,-0.3417,0.8825
16.8460,-0.2994,-0.3417,0.8825
16.8460,-0.2994,-0.3417,0.8825
16.8670,-0.3055,-0.3167,0.7982
16.8670,-0.3055,-0.3167,0.7982
16.8670,-0.3055,-0.3167,0.7982
16.8860,-0.2818,-0.3143,0.7715
16.8860,-0.2818,-0.3143,0.7715
16.8870,-0.2818,-0.3143,0.7715
16.8920,-0.2818,-0.3143,0.7715
16.8920,-0.2818,-0.3143,0.7715
16.9060,-0.3121,-0.3497,0.8722
16.9070,-0.3121,-0.3497,0.8722
16.9070,-0.3121,-0.3497,0.8722
16.9250,-0.2938,-0.3297,0.9006
16.9260,-0.2938,-0.3297,0.9006
16.9260,-0.2938,-0.3297,0.9006
16.9320,-0.2938,-0.3297,0.9006
16.9450,-0.1953,-0.3114,0.9038
16.9450,-0.1953,-0.3114,0.9038
16.9460,-0.1953,-0.3114,0.9038
16.9650,-0.2092,-0.3126,0.8390
16.9660,-0.2092,-0.3126,0.8390
16.9660,-0.2092,-0.3126,0.8390
16.9680,-0.2092,-0.3126,0.8390
16.9680,-0.2092,-0.3126,0.8390
16.9850,-0.2847,-0.3194,0.8551
16.9850,-0.2847,-0.3194,0.8551
16.9850,-0.2847,-0.3194,0.8551
17.0050,-0.3255,-0.3302,0.9096
17.0060,-0.3255,-0.3302,0.9096
17.0060,-0.3255,-0.3302,0.9096
17.0260,-0.3637,-0.3414,0.8954
17.0270,-0.3637,-0.3414,0.8954
17.0270,-0.3637,-0.3414,0.8954
17.0460,-0.3099,-0.3373,0.8832
17.0470,-0.3099,-0.3373,0.8832
17.0470,-0.3099,-0.3373,0.8832
17.0470,-0.3099,-0.3373,0.8832
17.0480,-0.3099,-0.3373,0.8832
17.0640,-0.3099,-0.3373,0.8832
17.0650,-0.2297,-0.3160,0.8744
17.0650,-0.2297,-0.3160,0.8744
17.0650,-0.2297,-0.3160,0.8744
17.0870,-0.2549,-0.3011,0.8407
17.0870,-0.2549,-0.3011,0.8407
17.0870,-0.2549,-0.3011,0.8407
17.1050,-0.3341,-0.3253,0.8595
17.1060,-0.3341,-0.3253,0.8595
17.1060,-0.3341,-0.3253,0.8595
17.1260,-0.3453,-0.3549,0.9257
17.1260,-0.3453,-0.3549,0.9257
17.1260,-0.3453,-0.3549,0.9257
17.1290,-0.3453,-0.3549,0.9257
17.1300,-0.3453,-0.3549,0.9257
17.1320,-0.3453,-0.3549,0.9257
17.1470,-0.3021,-0.3453,0.9001
17.1470,-0.3021,-0.3453,0.9001
17.1480,-0.3021,-0.3453,0.9001
17.1640,-0.2969,-0.3253,0.8830
17.1640,-0.2969,-0.3253,0.8830
17.1640,-0.2969,-0.3253,0.8830
17.1860,-0.2854,-0.3226,0.8840
17.1860,-0.2854,-0.3226,0.8840
17.1860,-0.2854,-0.3226,0.8840
17.2050,-0.2639,-0.3270,0.8901
17.2060,-0.2639,-0.3270,0.8901
17.2420,-0.2639,-0.3270,0.8901
17.2420,-0.2639,-0.3270,0.8901
17.2440,-0.2639,-0.3270,0.8901
17.2440,-0.2679,-0.3236,0.8664
17.2440,-0.2679,-0.3236,0.8664
17.2440,-0.2679,-0.3236,0.8664
17.2440,-0.3067,-0.3219,0.8546
17.2440,-0.3067,-0.3219,0.8546
17.2450,-0.3067,-0.3219,0.8546
17.2600,-0.3067,-0.3219,0.8546
17.2620,-0.3597,-0.3287,0.8891
17.2630,-0.3597,-0.3287,0.8891
17.2630,-0.3597,-0.3287,0.8891
17.2830,-0.3370,-0.3380,0.9003
17.2830,-0.3370,-0.3380,0.9003
17.2830,-0.3370,-0.3380,0.9003
17.2860,-0.3370,-0.3380,0.9003
17.2860,-0.3370,-0.3380,0.9003
17.3040,-0.2710,-0.3365,0.8935
17.3040,-0.2710,-0.3365,0.8935
17.3040,-0.2710,-0.3365,0.8935
17.3240,-0.2617,-0.3165,0.8578
17.3250,-0.2617,-0.3165,0.8578
17.3250,-0.2617,-0.3165,0.8578
17.3280,-0.2617,-0.3165,0.8578
17.3430,-0.2774,-0.3456,0.7862
17.3430,-0.2774,-0.3456,0.7862
17.3440,-0.2774,-0.3456,0.7862
17.3650,-0.2950,-0.3527,0.8727
17.3660,-0.2950,-0.3527,0.8727
17.3660,-0.2950,-0.3527,0.8727
17.3660,-0.2950,-0.3527,0.8727
17.3660,-0.2950,-0.3527,0.8727
17.3870,-0.3365,-0.3436,0.8844
17.3880,-0.3365,-0.3436,0.8844
17.3880,-0.3365,-0.3436,0.8844
17.4040,-0.3663,-0.3258,0.8793
17.4040,-0.3663,-0.3258,0.8793
17.4040,-0.3663,-0.3258,0.8793
17.4250,-0.3343,-0.3150,0.8918
17.4250,-0.3343,-0.3150,0.8918
17.4260,-0.3343,-0.3150,0.8918
17.4450,-0.2969,-0.3030,0.8920
17.4450,-0.2969,-0.3030,0.8920
17.4450,-0.2969,-0.3030,0.8920
17.4450,-0.2969,-0.3030,0.8920
17.4450,-0.2969,-0.3030,0.8920
17.4620,-0.2969,-0.3030,0.8920
17.4690,-0.2581,-0.3275,0.8739
17.4690,-0.2581,-0.3275,0.8739
17.4690,-0.2581,-0.3275,0.8739
17.4860,-0.2478,-0.3529,0.8493
17.4860,-0.2478,-0.3529,0.8493
17.4870,-0.2478,-0.3529,0.8493
17.5060,-0.2788,-0.3370,0.8563
17.5070,-0.2788,-0.3370,0.8563
17.5070,-0.2788,-0.3370,0.8563
17.5240,-0.2818,-0.3311,0.8485
17.5240,-0.2818,-0.3311,0.8485
17.5240,-0.2818,-0.3311,0.8485
17.5280,-0.2818,-0.3311,0.8485
17.5280,-0.2818,-0.3311,0.8485
17.5320,-0.2818,-0.3311,0.8485
17.5440,-0.2786,-0.3368,0.8534
17.5450,-0.2786,-0.3368,0.8534
17.5450,-0.2786,-0.3368,0.8534
17.5660,-0.2996,-0.3275,0.8505
17.5660,-0.2996,-0.3275,0.8505
17.5670,-0.2996,-0.3275,0.8505
17.5830,-0.3001,-0.3519,0.8847
17.5830,-0.3001,-0.3519,0.8847
17.5840,-0.3001,-0.3519,0.8847
17.6040,-0.3289,-0.3659,0.9157
17.6040,-0.3289,-0.3659,0.9157
17.6050,-0.3289,-0.3659,0.9157
17.6050,-0.3289,-0.3659,0.9157
17.6050,-0.3289,-0.3659,0.9157
17.6220,-0.3145,-0.3052,0.8925
17.6220,-0.3145,-0.3052,0.8925
17.6230,-0.3145,-0.3052,0.8925
17.6450,-0.2632,-0.3155,0.8686
17.6450,-0.2632,-0.3155,0.8686
17.6450,-0.2632,-0.3155,0.8686
17.6640,-0.2632,-0.3155,0.8686
17.6640,-0.2930,-0.3453,0.8659
17.6650,-0.2930,-0.3453,0.8659
17.6650,-0.2930,-0.3453,0.8659
17.6860,-0.3160,-0.3509,0.8725
17.6860,-0.3160,-0.3509,0.8725
17.6860,-0.3160,-0.3509,0.8725
17.6860,-0.3160,-0.3509,0.8725
17.6870,-0.3160,-0.3509,0.8725
17.7050,-0.2837,-0.3360,0.8778
17.7050,-0.2837,-0.3360,0.8778
17.7050,-0.2837,-0.3360,0.8778
17.7240,-0.3011,-0.3363,0.8681
17.7250,-0.3011,-0.3363,0.8681
17.7250,-0.3011,-0.3363,0.8681
17.7250,-0.3011,-0.3363,0.8681
17.7440,-0.3285,-0.3245,0.8891
17.7830,-0.3285,-0.3245,0.8891
17.7830,-0.3285,-0.3245,0.8891
17.7830,-0.3092,-0.3255,0.8945
17.7830,-0.3092,-0.3255,0.8945
17.7830,-0.3092,-0.3255,0.8945
17.7840,-0.3092,-0.3255,0.8945
17.7840,-0.3092,-0.3255,0.8945
17.7840,-0.2766,-0.3602,0.8593
17.7850,-0.2766,-0.3602,0.8593
17.7850,-0.2766,-0.3602,0.8593
17.8020,-0.2808,-0.3746,0.8551
17.8020,-0.2808,-0.3746,0.8551
17.8020,-0.2808,-0.3746,0.8551
17.8220,-0.3148,-0.3549,0.8842
17.8220,-0.3148,-0.3549,0.8842
17.8220,-0.3148,-0.3549,0.8842
17.8410,-0.2889,-0.3397,0.8737
17.8410,-0.2889,-0.3397,0.8737
17.8410,-0.2889,-0.3397,0.8737
17.8420,-0.2889,-0.3397,0.8737
17.8420,-0.2889,-0.3397,0.8737
17.8630,-0.2889,-0.3397,0.8737
17.8630,-0.2635,-0.3485,0.8686
17.8630,-0.2635,-0.3485,0.8686
17.8640,-0.2635,-0.3485,0.8686
17.8830,-0.2872,-0.3519,0.8573
17.8830,-0.2872,-0.3519,0.8573
17.8830,-0.2872,-0.3519,0.8573
17.9030,-0.3030,-0.3453,0.8524
17.9030,-0.3030,-0.3453,0.8524
17.9030,-0.3030,-0.3453,0.8524
17.9230,-0.3250,-0.3346,0.8480
17.9230,-0.3250,-0.3346,0.8480
17.9230,-0.3250,-0.3346,0.8480
17.9260,-0.3250,-0.3346,0.8480
17.9260,-0.3250,-0.3346,0.8480
17.9260,-0.3250,-0.3346,0.8480
17.9430,-0.3280,-0.3285,0.8292
17.9440,-0.3280,-0.3285,0.8292
17.9440,-0.3280,-0.3285,0.8292
17.9650,-0.2977,-0.3375,0.8182
17.9650,-0.2977,-0.3375,0.8182
17.9660,-0.2977,-0.3375,0.8182
17.9850,-0.2603,-0.3451,0.8395
17.9850,-0.2603,-0.3451,0.8395
17.9850,-0.2603,-0.3451,0.8395
18.0010,-0.3197,-0.3551,0.8510
18.0020,-0.3197,-0.3551,0.8510
18.0020,-0.3197,-0.3551,0.8510
18.0050,-0.3197,-0.3551,0.8510
18.0060,-0.3197,-0.3551,0.8510
18.0200,-0.3693,-0.3505,0.8620
18.0210,-0.3693,-0.3505,0.8620
18.0210,-0.3693,-0.3505,0.8620
18.0390,-0.3419,-0.3470,0.8727
18.0390,-0.3419,-0.3470,0.8727
18.0390,-0.3419,-0.3470,0.8727
18.0600,-0.3162,-0.3527,0.8449
18.0600,-0.3162,-0.3527,0.8449
18.0600,-0.3162,-0.3527,0.8449
18.0800,-0.3162,-0.3551,0.8412
18.0800,-0.3162,-0.3551,0.8412
18.0800,-0.3162,-0.3551,0.8412
18.0830,-0.3162,-0.3551,0.8412
18.0830,-0.3162,-0.3551,0.8412
18.0980,-0.3475,-0.3412,0.8458
18.0980,-0.3475,-0.3412,0.8458
18.0980,-0.3475,-0.3412,0.8458
18.1180,-0.3661,-0.3443,0.8862
18.1180,-0.3661,-0.3443,0.8862
18.1180,-0.3661,-0.3443,0.8862
18.1230,-0.3661,-0.3443,0.8862
18.1360,-0.3597,-0.3619,0.8683
18.1370,-0.3597,-0.3619,0.8683
18.1370,-0.3597,-0.3619,0.8683
18.1570,-0.3544,-0.3624,0.8336
18.1570,-0.3544,-0.3624,0.8336
18.1570,-0.3544,-0.3624,0.8336
18.1600,-0.3544,-0.3624,0.8336
18.1600,-0.3544,-0.3624,0.8336
18.1760,-0.3250,-0.3651,0.8920
18.1760,-0.3250,-0.3651,0.8920
18.1760,-0.3250,-0.3651,0.8920
18.1960,-0.3219,-0.3639,0.9216
18.1960,-0.3219,-0.3639,0.9216
18.1960,-0.3219,-0.3639,0.9216
18.2160,-0.3206,-0.3553,0.9685
18.2160,-0.3206,-0.3553,0.9685
18.2160,-0.3206,-0.3553,0.9685
