
time,AccelerometerX,AccelerometerY,AccelerometerZ
0.0220,-0.6938,-0.6965,-0.0890
0.0220,-0.6938,-0.6965,-0.0890
0.0220,-0.6938,-0.6965,-0.0890
0.0220,-0.6701,-0.6691,-0.1019
0.0220,-0.6701,-0.6691,-0.1019
0.0220,-0.6701,-0.6691,-0.1019
0.0220,-0.6779,-0.6752,-0.0948
0.0220,-0.6779,-0.6752,-0.0948
0.0220,-0.6779,-0.6752,-0.0948
0.0220,-0.6779,-0.6752,-0.0948
0.0230,-0.6779,-0.6752,-0.0948
0.0230,-0.6806,-0.6831,-0.0799
0.0230,-0.6806,-0.6831,-0.0799
0.0230,-0.6806,-0.6831,-0.0799
0.0720,-0.6880,-0.6677,-0.0660
0.0720,-0.6880,-0.6677,-0.0660
0.0720,-0.6880,-0.6677,-0.0660
0.0720,-0.6880,-0.6677,-0.0660
0.0730,-0.7205,-0.6708,-0.0550
0.0730,-0.7205,-0.6708,-0.0550
0.0730,-0.7205,-0.6708,-0.0550
0.1360,-0.7195,-0.6794,-0.0623
0.1360,-0.7195,-0.6794,-0.0623
0.1370,-0.7195,-0.6794,-0.0623
0.1370,-0.7195,-0.6794,-0.0623
0.1370,-0.7195,-0.6794,-0.0623
0.1370,-0.7056,-0.6816,-0.0672
0.1370,-0.7056,-0.6816,-0.0672
0.1370,-0.7056,-0.6816,-0.0672
0.1370,-0.7056,-0.6816,-0.0672
0.1370,-0.7141,-0.6860,-0.0587
0.1370,-0.7141,-0.6860,-0.0587
0.1380,-0.7141,-0.6860,-0.0587
0.1380,-0.6968,-0.6809,-0.0565
0.1380,-0.6968,-0.6809,-0.0565
0.1380,-0.6968,-0.6809,-0.0565
0.1570,-0.6941,-0.6618,-0.0662
0.1570,-0.6941,-0.6618,-0.0662
0.1570,-0.6941,-0.6618,-0.0662
0.1600,-0.6941,-0.6618,-0.0662
0.1600,-0.6941,-0.6618,-0.0662
0.1760,-0.7183,-0.6542,-0.0679
0.1760,-0.7183,-0.6542,-0.0679
0.1760,-0.7183,-0.6542,-0.0679
0.1960,-0.7124,-0.6713,-0.0557
0.1960,-0.7124,-0.6713,-0.0557
0.1960,-0.7124,-0.6713,-0.0557
0.2160,-0.7097,-0.6882,-0.0552
0.2160,-0.7097,-0.6882,-0.0552
0.2160,-0.7097,-0.6882,-0.0552
0.2360,-0.7192,-0.6816,-0.0569
0.2370,-0.7192,-0.6816,-0.0569
0.2370,-0.7192,-0.6816,-0.0569
0.2390,-0.7192,-0.6816,-0.0569
0.2390,-0.7192,-0.6816,-0.0569
0.2410,-0.7192,-0.6816,-0.0569
0.2550,-0.6950,-0.6723,-0.0555
0.2550,-0.6950,-0.6723,-0.0555
0.2550,-0.6950,-0.6723,-0.0555
0.2760,-0.6960,-0.6669,-0.0565
0.2760,-0.6960,-0.6669,-0.0565
0.2760,-0.6960,-0.6669,-0.0565
0.2960,-0.6955,-0.6718,-0.0569
0.2960,-0.6955,-0.6718,-0.0569
0.2960,-0.6955,-0.6718,-0.0569
0.3150,-0.7026,-0.6833,-0.0648
0.3150,-0.7026,-0.6833,-0.0648
0.3150,-0.7026,-0.6833,-0.0648
0.3180,-0.7026,-0.6833,-0.0648
0.3180,-0.7026,-0.6833,-0.0648
0.3350,-0.6926,-0.6892,-0.0650
0.3350,-0.6926,-0.6892,-0.0650
0.3350,-0.6926,-0.6892,-0.0650
0.3550,-0.7024,-0.6936,-0.0601
0.3550,-0.7024,-0.6936,-0.0601
0.3550,-0.7024,-0.6936,-0.0601
0.3750,-0.7131,-0.6840,-0.0403
0.3750,-0.7131,-0.6840,-0.0403
0.3750,-0.7131,-0.6840,-0.0403
0.3950,-0.7107,-0.6704,-0.0281
0.3950,-0.7107,-0.6704,-0.0281
0.3960,-0.7107,-0.6704,-0.0281
0.4000,-0.7107,-0.6704,-0.0281
0.4000,-0.7107,-0.6704,-0.0281
0.4150,-0.6999,-0.6774,-0.0415
0.4150,-0.6999,-0.6774,-0.0415
0.4150,-0.6999,-0.6774,-0.0415
0.4350,-0.6963,-0.6931,-0.0479
0.4360,-0.6963,-0.6931,-0.0479
0.4360,-0.6963,-0.6931,-0.0479
0.4360,-0.6963,-0.6931,-0.0479
0.4550,-0.7129,-0.6884,-0.0323
0.4550,-0.7129,-0.6884,-0.0323
0.4560,-0.7129,-0.6884,-0.0323
0.4740,-0.7004,-0.6760,-0.0257
0.4750,-0.7004,-0.6760,-0.0257
0.4750,-0.7004,-0.6760,-0.0257
0.4780,-0.7004,-0.6760,-0.0257
0.4780,-0.7004,-0.6760,-0.0257
0.4940,-0.6831,-0.6682,-0.0332
0.5310,-0.6831,-0.6682,-0.0332
0.5310,-0.6831,-0.6682,-0.0332
0.5320,-0.6699,-0.6836,-0.0411
0.5320,-0.6699,-0.6836,-0.0411
0.5320,-0.6699,-0.6836,-0.0411
0.5340,-0.6987,-0.7031,-0.0628
0.5350,-0.6987,-0.7031,-0.0628
0.5350,-0.6987,-0.7031,-0.0628
0.5550,-0.7144,-0.6784,-0.0486
0.5550,-0.7144,-0.6784,-0.0486
0.5550,-0.7144,-0.6784,-0.0486
0.5580,-0.7144,-0.6784,-0.0486
0.5580,-0.7144,-0.6784,-0.0486
0.5740,-0.7178,-0.6674,-0.0623
0.5750,-0.7178,-0.6674,-0.0623
0.5750,-0.7178,-0.6674,-0.0623
0.5940,-0.7119,-0.6836,-0.0645
0.5950,-0.7119,-0.6836,-0.0645
0.5950,-0.7119,-0.6836,-0.0645
0.6140,-0.7075,-0.6806,-0.0447
0.6140,-0.7075,-0.6806,-0.0447
0.6150,-0.7075,-0.6806,-0.0447
0.6340,-0.7109,-0.6638,-0.0362
0.6350,-0.7109,-0.6638,-0.0362
0.6350,-0.7109,-0.6638,-0.0362
0.6380,-0.7109,-0.6638,-0.0362
0.6380,-0.7109,-0.6638,-0.0362
0.6380,-0.7109,-0.6638,-0.0362
0.6540,-0.7183,-0.6699,-0.0569
0.6540,-0.7183,-0.6699,-0.0569
0.6540,-0.7183,-0.6699,-0.0569
0.6740,-0.7231,-0.6838,-0.0648
0.6740,-0.7231,-0.6838,-0.0648
0.6750,-0.7231,-0.6838,-0.0648
0.6940,-0.7173,-0.6845,-0.0525
0.6940,-0.7173,-0.6845,-0.0525
0.6940,-0.7173,-0.6845,-0.0525
0.7130,-0.7070,-0.6723,-0.0452
0.7140,-0.7070,-0.6723,-0.0452
0.7140,-0.7070,-0.6723,-0.0452
0.7170,-0.7070,-0.6723,-0.0452
0.7170,-0.7070,-0.6723,-0.0452
0.7340,-0.6950,-0.6726,-0.0469
0.7340,-0.6950,-0.6726,-0.0469
0.7340,-0.6950,-0.6726,-0.0469
0.7540,-0.6914,-0.6801,-0.0376
0.7540,-0.6914,-0.6801,-0.0376
0.7540,-0.6914,-0.6801,-0.0376
0.7730,-0.6919,-0.6760,-0.0472
0.7740,-0.6919,-0.6760,-0.0472
0.7740,-0.6919,-0.6760,-0.0472
0.7930,-0.6926,-0.6752,-0.0555
0.7930,-0.6926,-0.6752,-0.0555
0.7930,-0.6926,-0.6752,-0.0555
0.7960,-0.6926,-0.6752,-0.0555
0.7960,-0.6926,-0.6752,-0.0555
0.8130,-0.7034,-0.6850,-0.0506
0.8130,-0.7034,-0.6850,-0.0506
0.8130,-0.7034,-0.6850,-0.0506
0.8330,-0.7214,-0.6767,-0.0359
0.8330,-0.7214,-0.6767,-0.0359
0.8330,-0.7214,-0.6767,-0.0359
0.8340,-0.7214,-0.6767,-0.0359
0.8520,-0.7087,-0.6757,-0.0347
0.8520,-0.7087,-0.6757,-0.0347
0.8530,-0.7087,-0.6757,-0.0347
0.8720,-0.7046,-0.6999,-0.0418
0.8720,-0.7046,-0.6999,-0.0418
0.8720,-0.7046,-0.6999,-0.0418
0.8750,-0.7046,-0.6999,-0.0418
0.8750,-0.7046,-0.6999,-0.0418
0.8910,-0.6953,-0.6987,-0.0445
0.8910,-0.6953,-0.6987,-0.0445
0.8910,-0.6953,-0.6987,-0.0445
0.9140,-0.6936,-0.6848,-0.0401
0.9140,-0.6936,-0.6848,-0.0401
0.9150,-0.6936,-0.6848,-0.0401
0.9310,-0.6999,-0.6770,-0.0425
0.9310,-0.6999,-0.6770,-0.0425
0.9320,-0.6999,-0.6770,-0.0425
0.9510,-0.7019,-0.6865,-0.0511
0.9510,-0.7019,-0.6865,-0.0511
0.9510,-0.7019,-0.6865,-0.0511
0.9540,-0.7019,-0.6865,-0.0511
0.9550,-0.7019,-0.6865,-0.0511
0.9710,-0.7007,-0.6904,-0.0565
0.9710,-0.7007,-0.6904,-0.0565
0.9710,-0.7007,-0.6904,-0.0565
0.9910,-0.7156,-0.6782,-0.0467
0.9910,-0.7156,-0.6782,-0.0467
0.9910,-0.7156,-0.6782,-0.0467
1.0120,-0.7283,-0.6762,-0.0425
1.0120,-0.7283,-0.6762,-0.0425
1.0120,-0.7283,-0.6762,-0.0425
1.0310,-0.7134,-0.6933,-0.0379
1.0310,-0.7134,-0.6933,-0.0379
1.0310,-0.7134,-0.6933,-0.0379
1.0350,-0.7134,-0.6933,-0.0379
1.0350,-0.7134,-0.6933,-0.0379
1.0360,-0.7134,-0.6933,-0.0379
1.0810,-0.6936,-0.6919,-0.0362
1.0820,-0.6936,-0.6919,-0.0362
1.0820,-0.6936,-0.6919,-0.0362
1.0820,-0.6963,-0.6814,-0.0301
1.0820,-0.6963,-0.6814,-0.0301
1.0820,-0.6963,-0.6814,-0.0301
1.0910,-0.7046,-0.6779,-0.0291
1.0910,-0.7046,-0.6779,-0.0291
1.0910,-0.7046,-0.6779,-0.0291
1.1120,-0.7197,-0.6804,-0.0276
1.1120,-0.7197,-0.6804,-0.0276
1.1120,-0.7197,-0.6804,-0.0276
1.1150,-0.7197,-0.6804,-0.0276
1.1150,-0.7197,-0.6804,-0.0276
1.1310,-0.7385,-0.6926,-0.0508
1.1310,-0.7385,-0.6926,-0.0508
1.1320,-0.7385,-0.6926,-0.0508
1.1520,-0.6963,-0.6975,-0.0633
1.1520,-0.6963,-0.6975,-0.0633
1.1520,-0.6963,-0.6975,-0.0633
1.1710,-0.6750,-0.6884,-0.0626
1.1710,-0.6750,-0.6884,-0.0626
1.1710,-0.6750,-0.6884,-0.0626
1.1900,-0.7151,-0.6750,-0.0450
1.1910,-0.7151,-0.6750,-0.0450
1.1910,-0.7151,-0.6750,-0.0450
1.1930,-0.7151,-0.6750,-0.0450
1.1930,-0.7151,-0.6750,-0.0450
1.2100,-0.7031,-0.6784,-0.0440
1.2100,-0.7031,-0.6784,-0.0440
1.2100,-0.7031,-0.6784,-0.0440
1.2300,-0.6838,-0.6840,-0.0320
1.2310,-0.6838,-0.6840,-0.0320
1.2310,-0.6838,-0.6840,-0.0320
1.2310,-0.6838,-0.6840,-0.0320
1.2500,-0.6667,-0.6774,-0.0291
1.2500,-0.6667,-0.6774,-0.0291
1.2500,-0.6667,-0.6774,-0.0291
1.2700,-0.6660,-0.6794,-0.0433
1.2710,-0.6660,-0.6794,-0.0433
1.2710,-0.6660,-0.6794,-0.0433
1.2730,-0.6660,-0.6794,-0.0433
1.2740,-0.6660,-0.6794,-0.0433
1.2900,-0.6796,-0.6924,-0.0403
1.2900,-0.6796,-0.6924,-0.0403
1.2910,-0.6796,-0.6924,-0.0403
1.2910,-0.6796,-0.6924,-0.0403
1.3100,-0.7034,-0.6818,-0.0406
1.3110,-0.7034,-0.6818,-0.0406
1.3110,-0.7034,-0.6818,-0.0406
1.3310,-0.7126,-0.6682,-0.0376
1.3310,-0.7126,-0.6682,-0.0376
1.3320,-0.7126,-0.6682,-0.0376
1.3510,-0.7080,-0.6740,-0.0330
1.3520,-0.7080,-0.6740,-0.0330
1.3520,-0.7080,-0.6740,-0.0330
1.3560,-0.7080,-0.6740,-0.0330
1.3570,-0.7080,-0.6740,-0.0330
1.3700,-0.7156,-0.6831,-0.0308
1.3710,-0.7156,-0.6831,-0.0308
1.3720,-0.7156,-0.6831,-0.0308
1.3930,-0.7146,-0.6916,-0.0327
1.3930,-0.7146,-0.6916,-0.0327
1.3940,-0.7146,-0.6916,-0.0327
1.4110,-0.6904,-0.6914,-0.0359
1.4110,-0.6904,-0.6914,-0.0359
1.4130,-0.6904,-0.6914,-0.0359
1.4360,-0.6884,-0.6823,-0.0408
1.4370,-0.6884,-0.6823,-0.0408
1.4380,-0.6884,-0.6823,-0.0408
1.4390,-0.6884,-0.6823,-0.0408
1.4390,-0.6884,-0.6823,-0.0408
1.4400,-0.6884,-0.6823,-0.0408
1.4500,-0.7119,-0.6782,-0.0420
1.4500,-0.7119,-0.6782,-0.0420
1.4510,-0.7119,-0.6782,-0.0420
1.4740,-0.7144,-0.6823,-0.0428
1.4750,-0.7144,-0.6823,-0.0428
1.4750,-0.7144,-0.6823,-0.0428
1.4900,-0.7004,-0.6875,-0.0347
1.4900,-0.7004,-0.6875,-0.0347
1.4910,-0.7004,-0.6875,-0.0347
1.5100,-0.6867,-0.6814,-0.0411
1.5110,-0.6867,-0.6814,-0.0411
1.5120,-0.6867,-0.6814,-0.0411
1.5120,-0.6867,-0.6814,-0.0411
1.5130,-0.6867,-0.6814,-0.0411
1.5320,-0.6862,-0.6779,-0.0499
1.5320,-0.6862,-0.6779,-0.0499
1.5330,-0.6862,-0.6779,-0.0499
1.5510,-0.7046,-0.6836,-0.0364
1.5520,-0.7046,-0.6836,-0.0364
1.5530,-0.7046,-0.6836,-0.0364
1.5710,-0.7046,-0.6777,-0.0354
1.5720,-0.7046,-0.6777,-0.0354
1.5720,-0.7046,-0.6777,-0.0354
1.5900,-0.7046,-0.6711,-0.0447
1.5910,-0.7046,-0.6711,-0.0447
1.5920,-0.7046,-0.6711,-0.0447
1.5920,-0.7046,-0.6711,-0.0447
1.6620,-0.7046,-0.6711,-0.0447
1.6620,-0.7166,-0.6828,-0.0411
1.6620,-0.7166,-0.6828,-0.0411
1.6620,-0.7166,-0.6828,-0.0411
1.6620,-0.7156,-0.6850,-0.0433
1.6620,-0.7156,-0.6850,-0.0433
1.6620,-0.7156,-0.6850,-0.0433
1.6630,-0.7156,-0.6850,-0.0433
1.6630,-0.7029,-0.6840,-0.0440
1.6630,-0.7029,-0.6840,-0.0440
1.6630,-0.7029,-0.6840,-0.0440
1.6670,-0.6994,-0.6831,-0.0367
1.6680,-0.6994,-0.6831,-0.0367
1.6680,-0.6994,-0.6831,-0.0367
1.6710,-0.6994,-0.6831,-0.0367
1.6710,-0.6994,-0.6831,-0.0367
1.6870,-0.7046,-0.6818,-0.0376
1.6870,-0.7046,-0.6818,-0.0376
1.6870,-0.7046,-0.6818,-0.0376
1.7080,-0.7004,-0.6845,-0.0374
1.7090,-0.7004,-0.6845,-0.0374
1.7090,-0.7004,-0.6845,-0.0374
1.7290,-0.7034,-0.6882,-0.0369
1.7300,-0.7034,-0.6882,-0.0369
1.7300,-0.7034,-0.6882,-0.0369
1.7500,-0.7004,-0.6860,-0.0318
1.7510,-0.7004,-0.6860,-0.0318
1.7510,-0.7004,-0.6860,-0.0318
1.7520,-0.7004,-0.6860,-0.0318
1.7530,-0.7004,-0.6860,-0.0318
1.7730,-0.6897,-0.6836,-0.0345
1.7730,-0.6897,-0.6836,-0.0345
1.7740,-0.6897,-0.6836,-0.0345
1.7920,-0.7004,-0.6860,-0.0367
1.7920,-0.7004,-0.6860,-0.0367
1.7930,-0.7004,-0.6860,-0.0367
1.8090,-0.7029,-0.6845,-0.0384
1.8100,-0.7029,-0.6845,-0.0384
1.8100,-0.7029,-0.6845,-0.0384
1.8310,-0.6963,-0.6828,-0.0393
1.8340,-0.6963,-0.6828,-0.0393
1.8350,-0.6963,-0.6828,-0.0393
1.8350,-0.6963,-0.6828,-0.0393
1.8360,-0.6963,-0.6828,-0.0393
1.8360,-0.6963,-0.6828,-0.0393
1.8510,-0.7087,-0.6728,-0.0342
1.8520,-0.7087,-0.6728,-0.0342
1.8520,-0.7087,-0.6728,-0.0342
1.8690,-0.7095,-0.6730,-0.0415
1.8700,-0.7095,-0.6730,-0.0415
1.8730,-0.7095,-0.6730,-0.0415
1.8900,-0.7036,-0.6814,-0.0523
1.8900,-0.7036,-0.6814,-0.0523
1.8910,-0.7036,-0.6814,-0.0523
1.9160,-0.7139,-0.6806,-0.0323
1.9170,-0.7139,-0.6806,-0.0323
1.9170,-0.7139,-0.6806,-0.0323
1.9180,-0.7139,-0.6806,-0.0323
1.9180,-0.7139,-0.6806,-0.0323
1.9290,-0.7056,-0.6770,-0.0242
1.9300,-0.7056,-0.6770,-0.0242
1.9310,-0.7056,-0.6770,-0.0242
1.9460,-0.6860,-0.6860,-0.0430
1.9480,-0.6860,-0.6860,-0.0430
1.9490,-0.6860,-0.6860,-0.0430
1.9670,-0.6877,-0.6853,-0.0577
1.9670,-0.6877,-0.6853,-0.0577
1.9670,-0.6877,-0.6853,-0.0577
1.9870,-0.6914,-0.6838,-0.0459
1.9870,-0.6914,-0.6838,-0.0459
1.9880,-0.6914,-0.6838,-0.0459
1.9910,-0.6914,-0.6838,-0.0459
1.9920,-0.6914,-0.6838,-0.0459
2.0070,-0.6916,-0.6843,-0.0303
2.0080,-0.6916,-0.6843,-0.0303
2.0080,-0.6916,-0.6843,-0.0303
2.0280,-0.7058,-0.6789,-0.0242
2.0280,-0.7058,-0.6789,-0.0242
2.0290,-0.7058,-0.6789,-0.0242
2.0290,-0.7058,-0.6789,-0.0242
2.0470,-0.7178,-0.6748,-0.0362
2.0480,-0.7178,-0.6748,-0.0362
2.0490,-0.7178,-0.6748,-0.0362
2.0670,-0.6953,-0.6899,-0.0437
2.0670,-0.6953,-0.6899,-0.0437
2.0670,-0.6953,-0.6899,-0.0437
2.0690,-0.6953,-0.6899,-0.0437
2.0690,-0.6953,-0.6899,-0.0437
2.0860,-0.6943,-0.6887,-0.0411
2.0870,-0.6943,-0.6887,-0.0411
2.0880,-0.6943,-0.6887,-0.0411
2.1060,-0.7168,-0.6735,-0.0401
2.1060,-0.7168,-0.6735,-0.0401
2.1060,-0.7168,-0.6735,-0.0401
2.1250,-0.7153,-0.6833,-0.0376
2.1250,-0.7153,-0.6833,-0.0376
2.1260,-0.7153,-0.6833,-0.0376
2.1450,-0.7034,-0.6882,-0.0472
2.1450,-0.7034,-0.6882,-0.0472
2.1450,-0.7034,-0.6882,-0.0472
2.2150,-0.7034,-0.6882,-0.0472
2.2150,-0.7034,-0.6882,-0.0472
2.2150,-0.7080,-0.6757,-0.0298
2.2150,-0.7080,-0.6757,-0.0298
2.2150,-0.7080,-0.6757,-0.0298
2.2150,-0.7031,-0.6718,-0.0230
2.2160,-0.7031,-0.6718,-0.0230
2.2160,-0.7031,-0.6718,-0.0230
2.2160,-0.7014,-0.6840,-0.0367
2.2160,-0.7014,-0.6840,-0.0367
2.2160,-0.7014,-0.6840,-0.0367
2.2240,-0.7107,-0.6870,-0.0330
2.2240,-0.7107,-0.6870,-0.0330
2.2240,-0.7107,-0.6870,-0.0330
2.2270,-0.7107,-0.6870,-0.0330
2.2280,-0.7107,-0.6870,-0.0330
2.2280,-0.7107,-0.6870,-0.0330
2.2450,-0.7058,-0.6787,-0.0327
2.2450,-0.7058,-0.6787,-0.0327
2.2450,-0.7058,-0.6787,-0.0327
2.2640,-0.7007,-0.6796,-0.0437
2.2650,-0.7007,-0.6796,-0.0437
2.2650,-0.7007,-0.6796,-0.0437
2.2860,-0.7082,-0.6828,-0.0415
2.2860,-0.7082,-0.6828,-0.0415
2.2870,-0.7082,-0.6828,-0.0415
2.3060,-0.6985,-0.6823,-0.0318
2.3060,-0.6985,-0.6823,-0.0318
2.3070,-0.6985,-0.6823,-0.0318
2.3070,-0.6985,-0.6823,-0.0318
2.3100,-0.6985,-0.6823,-0.0318
2.3260,-0.6892,-0.6814,-0.0310
2.3270,-0.6892,-0.6814,-0.0310
2.3280,-0.6892,-0.6814,-0.0310
2.3450,-0.6985,-0.6843,-0.0442
2.3460,-0.6985,-0.6843,-0.0442
2.3470,-0.6985,-0.6843,-0.0442
2.3670,-0.7056,-0.6906,-0.0354
2.3680,-0.7056,-0.6906,-0.0354
2.3690,-0.7056,-0.6906,-0.0354
2.3870,-0.7024,-0.6884,-0.0291
2.3880,-0.7024,-0.6884,-0.0291
2.3890,-0.7024,-0.6884,-0.0291
2.3890,-0.7024,-0.6884,-0.0291
2.3900,-0.7024,-0.6884,-0.0291
2.4080,-0.6987,-0.6872,-0.0330
2.4090,-0.6987,-0.6872,-0.0330
2.4090,-0.6987,-0.6872,-0.0330
2.4270,-0.7021,-0.6836,-0.0364
2.4270,-0.7021,-0.6836,-0.0364
2.4280,-0.7021,-0.6836,-0.0364
2.4280,-0.7021,-0.6836,-0.0364
2.4460,-0.7021,-0.6840,-0.0433
2.4470,-0.7021,-0.6840,-0.0433
2.4480,-0.7021,-0.6840,-0.0433
2.4670,-0.7060,-0.6870,-0.0318
2.4690,-0.7060,-0.6870,-0.0318
2.4700,-0.7060,-0.6870,-0.0318
2.4720,-0.7060,-0.6870,-0.0318
2.4730,-0.7060,-0.6870,-0.0318
2.4900,-0.6987,-0.6779,-0.0288
2.4930,-0.6987,-0.6779,-0.0288
2.4940,-0.6987,-0.6779,-0.0288
2.5120,-0.6926,-0.6767,-0.0371
2.5140,-0.6926,-0.6767,-0.0371
2.5140,-0.6926,-0.6767,-0.0371
2.5300,-0.7041,-0.6840,-0.0484
2.5300,-0.7041,-0.6840,-0.0484
2.5310,-0.7041,-0.6840,-0.0484
2.5480,-0.6985,-0.6850,-0.0406
2.5480,-0.6985,-0.6850,-0.0406
2.5490,-0.6985,-0.6850,-0.0406
2.5490,-0.6985,-0.6850,-0.0406
2.5500,-0.6985,-0.6850,-0.0406
2.5630,-0.6992,-0.6804,-0.0335
2.5640,-0.6992,-0.6804,-0.0335
2.5640,-0.6992,-0.6804,-0.0335
2.5870,-0.7031,-0.6799,-0.0374
2.5910,-0.7031,-0.6799,-0.0374
2.5920,-0.7031,-0.6799,-0.0374
2.6080,-0.6992,-0.6875,-0.0362
2.6110,-0.6992,-0.6875,-0.0362
2.6130,-0.6992,-0.6875,-0.0362
2.6290,-0.6990,-0.6894,-0.0327
2.6300,-0.6990,-0.6894,-0.0327
2.6300,-0.6990,-0.6894,-0.0327
2.6310,-0.6990,-0.6894,-0.0327
2.6310,-0.6990,-0.6894,-0.0327
2.6320,-0.6990,-0.6894,-0.0327
2.6510,-0.6963,-0.6821,-0.0398
2.6510,-0.6963,-0.6821,-0.0398
2.6520,-0.6963,-0.6821,-0.0398
2.6650,-0.7002,-0.6845,-0.0501
2.6660,-0.7002,-0.6845,-0.0501
2.6660,-0.7002,-0.6845,-0.0501
2.6830,-0.7109,-0.6899,-0.0423
2.6840,-0.7109,-0.6899,-0.0423
2.6850,-0.7109,-0.6899,-0.0423
2.7030,-0.7043,-0.6787,-0.0340
2.7030,-0.7043,-0.6787,-0.0340
2.7820,-0.7043,-0.6787,-0.0340
2.7820,-0.7043,-0.6787,-0.0340
2.7830,-0.7043,-0.6787,-0.0340
2.7830,-0.6926,-0.6748,-0.0364
2.7830,-0.6926,-0.6748,-0.0364
2.7830,-0.6926,-0.6748,-0.0364
2.7830,-0.6938,-0.6804,-0.0374
2.7830,-0.6938,-0.6804,-0.0374
2.7840,-0.6938,-0.6804,-0.0374
2.7840,-0.6950,-0.6860,-0.0354
2.7840,-0.6950,-0.6860,-0.0354
2.7840,-0.6950,-0.6860,-0.0354
2.7840,-0.7007,-0.6855,-0.0345
2.7850,-0.7007,-0.6855,-0.0345
2.7850,-0.7007,-0.6855,-0.0345
2.7850,-0.7007,-0.6855,-0.0345
2.7850,-0.7007,-0.6855,-0.0345
2.8040,-0.7104,-0.6828,-0.0393
2.8040,-0.7104,-0.6828,-0.0393
2.8050,-0.7104,-0.6828,-0.0393
2.8220,-0.7124,-0.6840,-0.0411
2.8220,-0.7124,-0.6840,-0.0411
2.8230,-0.7124,-0.6840,-0.0411
2.8230,-0.7124,-0.6840,-0.0411
2.8410,-0.6992,-0.6889,-0.0342
2.8420,-0.6992,-0.6889,-0.0342
2.8420,-0.6992,-0.6889,-0.0342
2.8610,-0.6990,-0.6806,-0.0347
2.8610,-0.6990,-0.6806,-0.0347
2.8610,-0.6990,-0.6806,-0.0347
2.8630,-0.6990,-0.6806,-0.0347
2.8630,-0.6990,-0.6806,-0.0347
2.8830,-0.6990,-0.6806,-0.0347
2.8830,-0.6994,-0.6831,-0.0386
2.8840,-0.6994,-0.6831,-0.0386
2.8840,-0.6994,-0.6831,-0.0386
2.9020,-0.7036,-0.6897,-0.0340
2.9020,-0.7036,-0.6897,-0.0340
2.9020,-0.7036,-0.6897,-0.0340
2.9230,-0.7026,-0.6906,-0.0305
2.9230,-0.7026,-0.6906,-0.0305
2.9230,-0.7026,-0.6906,-0.0305
2.9430,-0.6931,-0.6894,-0.0325
2.9450,-0.6931,-0.6894,-0.0325
2.9460,-0.6931,-0.6894,-0.0325
2.9460,-0.6931,-0.6894,-0.0325
2.9470,-0.6931,-0.6894,-0.0325
2.9660,-0.6958,-0.6875,-0.0393
2.9660,-0.6958,-0.6875,-0.0393
2.9660,-0.6958,-0.6875,-0.0393
2.9890,-0.6977,-0.6865,-0.0384
2.9890,-0.6977,-0.6865,-0.0384
2.9900,-0.6977,-0.6865,-0.0384
3.0020,-0.6906,-0.6865,-0.0362
3.0030,-0.6906,-0.6865,-0.0362
3.0030,-0.6906,-0.6865,-0.0362
3.0210,-0.6955,-0.6836,-0.0315
3.0210,-0.6955,-0.6836,-0.0315
3.0220,-0.6955,-0.6836,-0.0315
3.0220,-0.6955,-0.6836,-0.0315
3.0230,-0.6955,-0.6836,-0.0315
3.0230,-0.6955,-0.6836,-0.0315
3.0420,-0.7031,-0.6848,-0.0386
3.0430,-0.7031,-0.6848,-0.0386
3.0430,-0.7031,-0.6848,-0.0386
3.0610,-0.6994,-0.6921,-0.0442
3.0610,-0.6994,-0.6921,-0.0442
3.0620,-0.6994,-0.6921,-0.0442
3.0830,-0.6948,-0.6862,-0.0359
3.0840,-0.6948,-0.6862,-0.0359
3.0840,-0.6948,-0.6862,-0.0359
3.1030,-0.7029,-0.6789,-0.0323
3.1030,-0.7029,-0.6789,-0.0323
3.1040,-0.7029,-0.6789,-0.0323
3.1050,-0.7029,-0.6789,-0.0323
3.1080,-0.7029,-0.6789,-0.0323
3.1250,-0.6968,-0.6858,-0.0411
3.1250,-0.6968,-0.6858,-0.0411
3.1250,-0.6968,-0.6858,-0.0411
3.1420,-0.6955,-0.6941,-0.0396
3.1420,-0.6955,-0.6941,-0.0396
3.1430,-0.6955,-0.6941,-0.0396
3.1600,-0.6938,-0.6870,-0.0332
3.1610,-0.6938,-0.6870,-0.0332
3.1610,-0.6938,-0.6870,-0.0332
3.1810,-0.6953,-0.6836,-0.0362
3.1820,-0.6953,-0.6836,-0.0362
3.1820,-0.6953,-0.6836,-0.0362
3.1820,-0.6953,-0.6836,-0.0362
3.1830,-0.6953,-0.6836,-0.0362
3.2020,-0.6972,-0.6870,-0.0440
3.2030,-0.6972,-0.6870,-0.0440
3.2030,-0.6972,-0.6870,-0.0440
3.2210,-0.7012,-0.6909,-0.0359
3.2220,-0.7012,-0.6909,-0.0359
3.2220,-0.7012,-0.6909,-0.0359
3.2230,-0.7012,-0.6909,-0.0359
3.2430,-0.6997,-0.6855,-0.0305
3.2440,-0.6997,-0.6855,-0.0305
3.2460,-0.6997,-0.6855,-0.0305
3.3250,-0.6938,-0.6838,-0.0330
3.3250,-0.6938,-0.6838,-0.0330
3.3250,-0.6938,-0.6838,-0.0330
3.3250,-0.6938,-0.6838,-0.0330
3.3260,-0.6938,-0.6838,-0.0330
3.3260,-0.6933,-0.6906,-0.0437
3.3260,-0.6933,-0.6906,-0.0437
3.3260,-0.6933,-0.6906,-0.0437
3.3260,-0.6955,-0.6928,-0.0305
3.3260,-0.6955,-0.6928,-0.0305
3.3270,-0.6955,-0.6928,-0.0305
3.3270,-0.6968,-0.6838,-0.0249
3.3270,-0.6968,-0.6838,-0.0249
3.3270,-0.6968,-0.6838,-0.0249
3.3380,-0.6960,-0.6853,-0.0420
3.3380,-0.6960,-0.6853,-0.0420
3.3380,-0.6960,-0.6853,-0.0420
3.3400,-0.6960,-0.6853,-0.0420
3.3400,-0.6960,-0.6853,-0.0420
3.3590,-0.6985,-0.6906,-0.0415
3.3590,-0.6985,-0.6906,-0.0415
3.3590,-0.6985,-0.6906,-0.0415
3.3800,-0.6990,-0.6840,-0.0308
3.3810,-0.6990,-0.6840,-0.0308
3.3810,-0.6990,-0.6840,-0.0308
3.3970,-0.6919,-0.6816,-0.0345
3.3970,-0.6919,-0.6816,-0.0345
3.3980,-0.6919,-0.6816,-0.0345
3.4170,-0.6919,-0.6816,-0.0345
3.4170,-0.7021,-0.6848,-0.0283
3.4180,-0.7021,-0.6848,-0.0283
3.4180,-0.7021,-0.6848,-0.0283
3.4190,-0.7021,-0.6848,-0.0283
3.4190,-0.7021,-0.6848,-0.0283
3.4400,-0.6860,-0.6836,-0.0357
3.4410,-0.6860,-0.6836,-0.0357
3.4410,-0.6860,-0.6836,-0.0357
3.4590,-0.6853,-0.6840,-0.0403
3.4590,-0.6853,-0.6840,-0.0403
3.4590,-0.6853,-0.6840,-0.0403
3.4780,-0.6870,-0.6906,-0.0479
3.4790,-0.6870,-0.6906,-0.0479
3.4790,-0.6870,-0.6906,-0.0479
3.4980,-0.6919,-0.6997,-0.0484
3.4990,-0.6919,-0.6997,-0.0484
3.5000,-0.6919,-0.6997,-0.0484
3.5000,-0.6919,-0.6997,-0.0484
3.5010,-0.6919,-0.6997,-0.0484
3.5190,-0.7170,-0.6884,-0.0252
3.5230,-0.7170,-0.6884,-0.0252
3.5240,-0.7170,-0.6884,-0.0252
3.5450,-0.7117,-0.6706,-0.0364
3.5460,-0.7117,-0.6706,-0.0364
3.5460,-0.7117,-0.6706,-0.0364
3.5560,-0.7019,-0.6855,-0.0501
3.5570,-0.7019,-0.6855,-0.0501
3.5580,-0.7019,-0.6855,-0.0501
3.5770,-0.7019,-0.6919,-0.0298
3.5780,-0.7019,-0.6919,-0.0298
3.5780,-0.7019,-0.6919,-0.0298
3.5780,-0.7019,-0.6919,-0.0298
3.5790,-0.7019,-0.6919,-0.0298
3.5980,-0.6897,-0.6794,-0.0257
3.5990,-0.6897,-0.6794,-0.0257
3.6000,-0.6897,-0.6794,-0.0257
3.6160,-0.6897,-0.6794,-0.0257
3.6160,-0.6848,-0.6855,-0.0381
3.6170,-0.6848,-0.6855,-0.0381
3.6170,-0.6848,-0.6855,-0.0381
3.6360,-0.6994,-0.6972,-0.0435
3.6360,-0.6994,-0.6972,-0.0435
3.6370,-0.6994,-0.6972,-0.0435
3.6560,-0.7117,-0.6931,-0.0411
3.6560,-0.7117,-0.6931,-0.0411
3.6580,-0.7117,-0.6931,-0.0411
3.6580,-0.7117,-0.6931,-0.0411
3.6580,-0.7117,-0.6931,-0.0411
3.6770,-0.7156,-0.6777,-0.0242
3.6780,-0.7156,-0.6777,-0.0242
3.6780,-0.7156,-0.6777,-0.0242
3.6990,-0.7021,-0.6777,-0.0213
3.6990,-0.7021,-0.6777,-0.0213
3.7000,-0.7021,-0.6777,-0.0213
3.7160,-0.6963,-0.6867,-0.0296
3.7170,-0.6963,-0.6867,-0.0296
3.7170,-0.6963,-0.6867,-0.0296
3.7350,-0.7119,-0.6928,-0.0330
3.7360,-0.7119,-0.6928,-0.0330
3.7360,-0.7119,-0.6928,-0.0330
3.7380,-0.7119,-0.6928,-0.0330
3.7380,-0.7119,-0.6928,-0.0330
3.7570,-0.7024,-0.6865,-0.0406
3.7580,-0.7024,-0.6865,-0.0406
3.7580,-0.7024,-0.6865,-0.0406
3.7800,-0.7112,-0.6792,-0.0525
3.7800,-0.7112,-0.6792,-0.0525
3.7810,-0.7112,-0.6792,-0.0525
3.7990,-0.7207,-0.6701,-0.0437
3.7990,-0.7207,-0.6701,-0.0437
3.7990,-0.7207,-0.6701,-0.0437
3.8790,-0.7207,-0.6701,-0.0437
3.8800,-0.6948,-0.6755,-0.0376
3.8800,-0.6948,-0.6755,-0.0376
3.8800,-0.6948,-0.6755,-0.0376
3.8800,-0.6948,-0.6755,-0.0376
3.8800,-0.6948,-0.6755,-0.0376
3.8810,-0.6858,-0.6821,-0.0264
3.8810,-0.6858,-0.6821,-0.0264
3.8810,-0.6858,-0.6821,-0.0264
3.8810,-0.6870,-0.6762,-0.0286
3.8820,-0.6870,-0.6762,-0.0286
3.8820,-0.6870,-0.6762,-0.0286
3.8820,-0.6840,-0.6858,-0.0521
3.8820,-0.6840,-0.6858,-0.0521
3.8820,-0.6840,-0.6858,-0.0521
3.8930,-0.7009,-0.6955,-0.0459
3.8940,-0.7009,-0.6955,-0.0459
3.8940,-0.7009,-0.6955,-0.0459
3.8960,-0.7009,-0.6955,-0.0459
3.8960,-0.7009,-0.6955,-0.0459
3.9150,-0.7295,-0.6784,-0.0198
3.9150,-0.7295,-0.6784,-0.0198
3.9160,-0.7295,-0.6784,-0.0198
3.9340,-0.7122,-0.6682,-0.0218
3.9340,-0.7122,-0.6682,-0.0218
3.9350,-0.7122,-0.6682,-0.0218
3.9540,-0.7107,-0.6789,-0.0330
3.9540,-0.7107,-0.6789,-0.0330
3.9540,-0.7107,-0.6789,-0.0330
3.9750,-0.7063,-0.6848,-0.0425
3.9750,-0.7063,-0.6848,-0.0425
3.9760,-0.7063,-0.6848,-0.0425
3.9780,-0.7063,-0.6848,-0.0425
3.9780,-0.7063,-0.6848,-0.0425
3.9950,-0.6972,-0.6755,-0.0445
3.9950,-0.6972,-0.6755,-0.0445
3.9960,-0.6972,-0.6755,-0.0445
4.0130,-0.6972,-0.6755,-0.0445
4.0160,-0.7085,-0.6716,-0.0310
4.0160,-0.7085,-0.6716,-0.0310
4.0170,-0.7085,-0.6716,-0.0310
4.0330,-0.7019,-0.6716,-0.0281
4.0340,-0.7019,-0.6716,-0.0281
4.0340,-0.7019,-0.6716,-0.0281
4.0550,-0.6924,-0.6814,-0.0364
4.0560,-0.6924,-0.6814,-0.0364
4.0560,-0.6924,-0.6814,-0.0364
4.0570,-0.6924,-0.6814,-0.0364
4.0570,-0.6924,-0.6814,-0.0364
4.0730,-0.6924,-0.6814,-0.0364
4.0750,-0.7009,-0.6801,-0.0396
4.0750,-0.7009,-0.6801,-0.0396
4.0760,-0.7009,-0.6801,-0.0396
4.0930,-0.7058,-0.6713,-0.0332
4.0940,-0.7058,-0.6713,-0.0332
4.0940,-0.7058,-0.6713,-0.0332
4.1130,-0.7051,-0.6784,-0.0393
4.1130,-0.7051,-0.6784,-0.0393
4.1140,-0.7051,-0.6784,-0.0393
4.1320,-0.6982,-0.6865,-0.0516
4.1330,-0.6982,-0.6865,-0.0516
4.1330,-0.6982,-0.6865,-0.0516
4.1340,-0.6982,-0.6865,-0.0516
4.1340,-0.6982,-0.6865,-0.0516
4.1540,-0.7119,-0.6777,-0.0376
4.1540,-0.7119,-0.6777,-0.0376
4.1540,-0.7119,-0.6777,-0.0376
4.1730,-0.7175,-0.6603,-0.0320
4.1730,-0.7175,-0.6603,-0.0320
4.1740,-0.7175,-0.6603,-0.0320
4.1930,-0.7156,-0.6682,-0.0408
4.1930,-0.7156,-0.6682,-0.0408
4.1930,-0.7156,-0.6682,-0.0408
4.2110,-0.7156,-0.6682,-0.0408
4.2140,-0.7136,-0.6867,-0.0435
4.2150,-0.7136,-0.6867,-0.0435
4.2150,-0.7136,-0.6867,-0.0435
4.2150,-0.7136,-0.6867,-0.0435
4.2150,-0.7136,-0.6867,-0.0435
4.2340,-0.7136,-0.6845,-0.0271
4.2340,-0.7136,-0.6845,-0.0271
4.2350,-0.7136,-0.6845,-0.0271
4.2530,-0.7158,-0.6814,-0.0315
4.2530,-0.7158,-0.6814,-0.0315
4.2530,-0.7158,-0.6814,-0.0315
4.2730,-0.7082,-0.6840,-0.0413
4.2730,-0.7082,-0.6840,-0.0413
4.2730,-0.7082,-0.6840,-0.0413
4.2930,-0.7092,-0.6735,-0.0303
4.2930,-0.7092,-0.6735,-0.0303
4.2940,-0.7092,-0.6735,-0.0303
4.2940,-0.7092,-0.6735,-0.0303
4.2940,-0.7092,-0.6735,-0.0303
4.3130,-0.7068,-0.6682,-0.0203
4.3130,-0.7068,-0.6682,-0.0203
4.3140,-0.7068,-0.6682,-0.0203
4.3320,-0.7019,-0.6708,-0.0354
4.3320,-0.7019,-0.6708,-0.0354
4.3320,-0.7019,-0.6708,-0.0354
4.3520,-0.6958,-0.6787,-0.0533
4.3980,-0.6958,-0.6787,-0.0533
4.3980,-0.6958,-0.6787,-0.0533
4.3980,-0.7158,-0.6845,-0.0349
4.3980,-0.7158,-0.6845,-0.0349
4.3980,-0.7158,-0.6845,-0.0349
4.3980,-0.7158,-0.6845,-0.0349
4.3980,-0.7158,-0.6845,-0.0349
4.3990,-0.7175,-0.6850,-0.0291
4.3990,-0.7175,-0.6850,-0.0291
4.4000,-0.7175,-0.6850,-0.0291
4.4100,-0.7175,-0.6850,-0.0291
4.4110,-0.6992,-0.6916,-0.0345
4.4110,-0.6992,-0.6916,-0.0345
4.4110,-0.6992,-0.6916,-0.0345
4.4300,-0.7034,-0.7034,-0.0340
4.4310,-0.7034,-0.7034,-0.0340
4.4310,-0.7034,-0.7034,-0.0340
4.4500,-0.7095,-0.6911,-0.0161
4.4510,-0.7095,-0.6911,-0.0161
4.4510,-0.7095,-0.6911,-0.0161
4.4530,-0.7095,-0.6911,-0.0161
4.4530,-0.7095,-0.6911,-0.0161
4.4710,-0.7053,-0.6730,-0.0320
4.4710,-0.7053,-0.6730,-0.0320
4.4710,-0.7053,-0.6730,-0.0320
4.4900,-0.6958,-0.6777,-0.0513
4.4900,-0.6958,-0.6777,-0.0513
4.4900,-0.6958,-0.6777,-0.0513
4.5100,-0.7031,-0.6862,-0.0474
4.5100,-0.7031,-0.6862,-0.0474
4.5100,-0.7031,-0.6862,-0.0474
4.5300,-0.7087,-0.6713,-0.0276
4.5300,-0.7087,-0.6713,-0.0276
4.5300,-0.7087,-0.6713,-0.0276
4.5310,-0.7087,-0.6713,-0.0276
4.5320,-0.7087,-0.6713,-0.0276
4.5500,-0.7070,-0.6657,-0.0257
4.5500,-0.7070,-0.6657,-0.0257
4.5500,-0.7070,-0.6657,-0.0257
4.5700,-0.6875,-0.6914,-0.0342
4.5700,-0.6875,-0.6914,-0.0342
4.5700,-0.6875,-0.6914,-0.0342
4.5900,-0.6853,-0.7004,-0.0208
4.5900,-0.6853,-0.7004,-0.0208
4.5900,-0.6853,-0.7004,-0.0208
4.6070,-0.6853,-0.7004,-0.0208
4.6090,-0.7268,-0.6726,-0.0059
4.6100,-0.7268,-0.6726,-0.0059
4.6100,-0.7268,-0.6726,-0.0059
4.6130,-0.7268,-0.6726,-0.0059
4.6130,-0.7268,-0.6726,-0.0059
4.6320,-0.7552,-0.6762,-0.0252
4.6320,-0.7552,-0.6762,-0.0252
4.6320,-0.7552,-0.6762,-0.0252
4.6490,-0.7429,-0.6933,-0.0467
4.6490,-0.7429,-0.6933,-0.0467
4.6490,-0.7429,-0.6933,-0.0467
4.6680,-0.7319,-0.6774,-0.0584
4.6680,-0.7319,-0.6774,-0.0584
4.6690,-0.7319,-0.6774,-0.0584
4.6890,-0.6946,-0.6640,-0.0518
4.6890,-0.6946,-0.6640,-0.0518
4.6890,-0.6946,-0.6640,-0.0518
4.6910,-0.6946,-0.6640,-0.0518
4.6910,-0.6946,-0.6640,-0.0518
4.7100,-0.6660,-0.6662,-0.0357
4.7110,-0.6660,-0.6662,-0.0357
4.7110,-0.6660,-0.6662,-0.0357
4.7280,-0.6689,-0.6713,-0.0305
4.7280,-0.6689,-0.6713,-0.0305
4.7290,-0.6689,-0.6713,-0.0305
4.7480,-0.7002,-0.6838,-0.0095
4.7490,-0.7002,-0.6838,-0.0095
4.7490,-0.7002,-0.6838,-0.0095
4.7680,-0.7131,-0.6850,-0.0130
4.7680,-0.7131,-0.6850,-0.0130
4.7680,-0.7131,-0.6850,-0.0130
4.7700,-0.7131,-0.6850,-0.0130
4.7700,-0.7131,-0.6850,-0.0130
4.7910,-0.7095,-0.6867,-0.0335
4.7910,-0.7095,-0.6867,-0.0335
4.7920,-0.7095,-0.6867,-0.0335
4.8060,-0.7095,-0.6867,-0.0335
4.8090,-0.6914,-0.6850,-0.0472
4.8090,-0.6914,-0.6850,-0.0472
4.8090,-0.6914,-0.6850,-0.0472
4.8300,-0.7046,-0.6704,-0.0354
4.8300,-0.7046,-0.6704,-0.0354
4.8310,-0.7046,-0.6704,-0.0354
4.8500,-0.6968,-0.6643,-0.0320
4.8500,-0.6968,-0.6643,-0.0320
4.8500,-0.6968,-0.6643,-0.0320
4.8500,-0.6968,-0.6643,-0.0320
4.8510,-0.6968,-0.6643,-0.0320
4.8680,-0.6818,-0.6728,-0.0288
4.8690,-0.6818,-0.6728,-0.0288
4.8690,-0.6818,-0.6728,-0.0288
4.8870,-0.6968,-0.6716,-0.0264
4.8880,-0.6968,-0.6716,-0.0264
4.8880,-0.6968,-0.6716,-0.0264
4.9330,-0.7136,-0.6682,-0.0318
4.9330,-0.7136,-0.6682,-0.0318
4.9330,-0.7136,-0.6682,-0.0318
4.9330,-0.7234,-0.6657,-0.0323
4.9340,-0.7234,-0.6657,-0.0323
4.9340,-0.7234,-0.6657,-0.0323
4.9340,-0.7234,-0.6657,-0.0323
4.9340,-0.7234,-0.6657,-0.0323
4.9490,-0.7273,-0.6599,-0.0371
4.9490,-0.7273,-0.6599,-0.0371
4.9490,-0.7273,-0.6599,-0.0371
4.9670,-0.7322,-0.6630,-0.0401
4.9670,-0.7322,-0.6630,-0.0401
4.9670,-0.7322,-0.6630,-0.0401
4.9880,-0.7188,-0.6682,-0.0193
4.9880,-0.7188,-0.6682,-0.0193
4.9880,-0.7188,-0.6682,-0.0193
5.0060,-0.7188,-0.6682,-0.0193
5.0080,-0.7170,-0.6679,-0.0181
5.0090,-0.7170,-0.6679,-0.0181
5.0090,-0.7170,-0.6679,-0.0181
5.0090,-0.7170,-0.6679,-0.0181
5.0090,-0.7170,-0.6679,-0.0181
5.0280,-0.6977,-0.6792,-0.0269
5.0290,-0.6977,-0.6792,-0.0269
5.0290,-0.6977,-0.6792,-0.0269
5.0480,-0.6982,-0.6833,-0.0335
5.0480,-0.6982,-0.6833,-0.0335
5.0480,-0.6982,-0.6833,-0.0335
5.0690,-0.7200,-0.6799,-0.0459
5.0690,-0.7200,-0.6799,-0.0459
5.0700,-0.7200,-0.6799,-0.0459
5.0880,-0.7263,-0.6718,-0.0354
5.0880,-0.7263,-0.6718,-0.0354
5.0880,-0.7263,-0.6718,-0.0354
5.0890,-0.7263,-0.6718,-0.0354
5.0890,-0.7263,-0.6718,-0.0354
5.1080,-0.7251,-0.6640,-0.0230
5.1080,-0.7251,-0.6640,-0.0230
5.1080,-0.7251,-0.6640,-0.0230
5.1300,-0.7112,-0.6733,-0.0235
5.1300,-0.7112,-0.6733,-0.0235
5.1300,-0.7112,-0.6733,-0.0235
5.1470,-0.7131,-0.6750,-0.0354
5.1480,-0.7131,-0.6750,-0.0354
5.1480,-0.7131,-0.6750,-0.0354
5.1690,-0.7170,-0.6647,-0.0401
5.1690,-0.7170,-0.6647,-0.0401
5.1690,-0.7170,-0.6647,-0.0401
5.1690,-0.7170,-0.6647,-0.0401
5.1690,-0.7170,-0.6647,-0.0401
5.1890,-0.7188,-0.6691,-0.0464
5.1900,-0.7188,-0.6691,-0.0464
5.1900,-0.7188,-0.6691,-0.0464
5.2060,-0.7188,-0.6691,-0.0464
5.2060,-0.7219,-0.6760,-0.0413
5.2060,-0.7219,-0.6760,-0.0413
5.2060,-0.7219,-0.6760,-0.0413
5.2270,-0.7070,-0.6647,-0.0455
5.2270,-0.7070,-0.6647,-0.0455
5.2270,-0.7070,-0.6647,-0.0455
5.2480,-0.7136,-0.6569,-0.0318
5.2490,-0.7136,-0.6569,-0.0318
5.2490,-0.7136,-0.6569,-0.0318
5.2490,-0.7136,-0.6569,-0.0318
5.2490,-0.7136,-0.6569,-0.0318
5.2690,-0.7337,-0.6511,-0.0213
5.2690,-0.7337,-0.6511,-0.0213
5.2700,-0.7337,-0.6511,-0.0213
5.2880,-0.7278,-0.6711,-0.0301
5.2890,-0.7278,-0.6711,-0.0301
5.2890,-0.7278,-0.6711,-0.0301
5.3070,-0.6980,-0.6936,-0.0457
5.3080,-0.6980,-0.6936,-0.0457
5.3080,-0.6980,-0.6936,-0.0457
5.3260,-0.7224,-0.6887,-0.0484
5.3270,-0.7224,-0.6887,-0.0484
5.3270,-0.7224,-0.6887,-0.0484
5.3270,-0.7224,-0.6887,-0.0484
5.3270,-0.7224,-0.6887,-0.0484
5.3490,-0.7451,-0.6577,-0.0371
5.3490,-0.7451,-0.6577,-0.0371
5.3490,-0.7451,-0.6577,-0.0371
5.3690,-0.7170,-0.6523,-0.0389
5.3690,-0.7170,-0.6523,-0.0389
5.3690,-0.7170,-0.6523,-0.0389
5.3880,-0.6950,-0.6618,-0.0435
5.3890,-0.6950,-0.6618,-0.0435
5.3890,-0.6950,-0.6618,-0.0435
5.4060,-0.6950,-0.6618,-0.0435
5.4090,-0.6897,-0.6613,-0.0359
5.4090,-0.6897,-0.6613,-0.0359
5.4100,-0.6897,-0.6613,-0.0359
5.4100,-0.6897,-0.6613,-0.0359
5.4100,-0.6897,-0.6613,-0.0359
5.4280,-0.7065,-0.6601,-0.0205
5.4280,-0.7065,-0.6601,-0.0205
5.4290,-0.7065,-0.6601,-0.0205
5.4460,-0.7290,-0.6694,-0.0210
5.4460,-0.7290,-0.6694,-0.0210
5.4960,-0.7290,-0.6694,-0.0210
5.4960,-0.7263,-0.6818,-0.0349
5.4960,-0.7263,-0.6818,-0.0349
5.4960,-0.7263,-0.6818,-0.0349
5.4960,-0.7134,-0.6789,-0.0374
5.4960,-0.7134,-0.6789,-0.0374
5.4970,-0.7134,-0.6789,-0.0374
5.4970,-0.7134,-0.6789,-0.0374
5.4970,-0.7134,-0.6789,-0.0374
5.5060,-0.7246,-0.6647,-0.0318
5.5060,-0.7246,-0.6647,-0.0318
5.5060,-0.7246,-0.6647,-0.0318
5.5250,-0.7224,-0.6584,-0.0369
5.5250,-0.7224,-0.6584,-0.0369
5.5250,-0.7224,-0.6584,-0.0369
5.5470,-0.7183,-0.6633,-0.0450
5.5480,-0.7183,-0.6633,-0.0450
5.5480,-0.7183,-0.6633,-0.0450
5.5640,-0.7129,-0.6733,-0.0423
5.5650,-0.7129,-0.6733,-0.0423
5.5650,-0.7129,-0.6733,-0.0423
5.5660,-0.7129,-0.6733,-0.0423
5.5670,-0.7129,-0.6733,-0.0423
5.5870,-0.7175,-0.6723,-0.0310
5.5870,-0.7175,-0.6723,-0.0310
5.5870,-0.7175,-0.6723,-0.0310
5.6050,-0.7175,-0.6723,-0.0310
5.6080,-0.7134,-0.6638,-0.0325
5.6080,-0.7134,-0.6638,-0.0325
5.6090,-0.7134,-0.6638,-0.0325
5.6260,-0.7095,-0.6640,-0.0288
5.6270,-0.7095,-0.6640,-0.0288
5.6270,-0.7095,-0.6640,-0.0288
5.6460,-0.7107,-0.6704,-0.0345
5.6470,-0.7107,-0.6704,-0.0345
5.6470,-0.7107,-0.6704,-0.0345
5.6470,-0.7107,-0.6704,-0.0345
5.6470,-0.7107,-0.6704,-0.0345
5.6690,-0.7102,-0.6733,-0.0457
5.6690,-0.7102,-0.6733,-0.0457
5.6690,-0.7102,-0.6733,-0.0457
5.6860,-0.7126,-0.6743,-0.0191
5.6860,-0.7126,-0.6743,-0.0191
5.6860,-0.7126,-0.6743,-0.0191
5.7050,-0.7163,-0.6696,-0.0313
5.7060,-0.7163,-0.6696,-0.0313
5.7060,-0.7163,-0.6696,-0.0313
5.7250,-0.7139,-0.6721,-0.0379
5.7250,-0.7139,-0.6721,-0.0379
5.7260,-0.7139,-0.6721,-0.0379
5.7290,-0.7139,-0.6721,-0.0379
5.7290,-0.7139,-0.6721,-0.0379
5.7460,-0.7080,-0.6757,-0.0376
5.7460,-0.7080,-0.6757,-0.0376
5.7460,-0.7080,-0.6757,-0.0376
5.7640,-0.7009,-0.6704,-0.0349
5.7640,-0.7009,-0.6704,-0.0349
5.7650,-0.7009,-0.6704,-0.0349
5.7840,-0.7178,-0.6728,-0.0327
5.7850,-0.7178,-0.6728,-0.0327
5.7850,-0.7178,-0.6728,-0.0327
5.8020,-0.7178,-0.6728,-0.0327
5.8020,-0.7256,-0.6772,-0.0369
5.8030,-0.7256,-0.6772,-0.0369
5.8030,-0.7256,-0.6772,-0.0369
5.8070,-0.7256,-0.6772,-0.0369
5.8070,-0.7256,-0.6772,-0.0369
5.8280,-0.7344,-0.6745,-0.0420
5.8280,-0.7344,-0.6745,-0.0420
5.8280,-0.7344,-0.6745,-0.0420
5.8460,-0.7312,-0.6657,-0.0442
5.8460,-0.7312,-0.6657,-0.0442
5.8470,-0.7312,-0.6657,-0.0442
5.8650,-0.7163,-0.6608,-0.0396
5.8650,-0.7163,-0.6608,-0.0396
5.8650,-0.7163,-0.6608,-0.0396
5.8850,-0.7209,-0.6652,-0.0374
5.8850,-0.7209,-0.6652,-0.0374
5.8860,-0.7209,-0.6652,-0.0374
5.8880,-0.7209,-0.6652,-0.0374
5.8880,-0.7209,-0.6652,-0.0374
5.9050,-0.7173,-0.6699,-0.0271
5.9050,-0.7173,-0.6699,-0.0271
5.9050,-0.7173,-0.6699,-0.0271
5.9260,-0.7280,-0.6638,-0.0088
5.9260,-0.7280,-0.6638,-0.0088
5.9260,-0.7280,-0.6638,-0.0088
5.9480,-0.7581,-0.6728,-0.0156
5.9480,-0.7581,-0.6728,-0.0156
5.9480,-0.7581,-0.6728,-0.0156
5.9650,-0.7234,-0.6777,-0.0452
5.9650,-0.7234,-0.6777,-0.0452
5.9650,-0.7234,-0.6777,-0.0452
5.9710,-0.7234,-0.6777,-0.0452
5.9710,-0.7234,-0.6777,-0.0452
5.9850,-0.7122,-0.6650,-0.0545
5.9850,-0.7122,-0.6650,-0.0545
5.9850,-0.7122,-0.6650,-0.0545
6.0040,-0.7122,-0.6650,-0.0545
6.0060,-0.7227,-0.6557,-0.0579
6.0550,-0.7227,-0.6557,-0.0579
6.0560,-0.7227,-0.6557,-0.0579
6.0560,-0.7195,-0.6677,-0.0406
6.0560,-0.7195,-0.6677,-0.0406
6.0560,-0.7195,-0.6677,-0.0406
6.0560,-0.7112,-0.6735,-0.0369
6.0560,-0.7112,-0.6735,-0.0369
6.0560,-0.7112,-0.6735,-0.0369
6.0560,-0.7112,-0.6735,-0.0369
6.0560,-0.7112,-0.6735,-0.0369
6.0650,-0.6963,-0.6704,-0.0298
6.0650,-0.6963,-0.6704,-0.0298
6.0650,-0.6963,-0.6704,-0.0298
6.0830,-0.6946,-0.6640,-0.0318
6.0830,-0.6946,-0.6640,-0.0318
6.0830,-0.6946,-0.6640,-0.0318
6.1050,-0.7153,-0.6550,-0.0335
6.1050,-0.7153,-0.6550,-0.0335
6.1050,-0.7153,-0.6550,-0.0335
6.1220,-0.7197,-0.6723,-0.0301
6.1220,-0.7197,-0.6723,-0.0301
6.1230,-0.7197,-0.6723,-0.0301
6.1250,-0.7197,-0.6723,-0.0301
6.1250,-0.7197,-0.6723,-0.0301
6.1420,-0.7246,-0.6865,-0.0325
6.1420,-0.7246,-0.6865,-0.0325
6.1420,-0.7246,-0.6865,-0.0325
6.1630,-0.7156,-0.6721,-0.0420
6.1630,-0.7156,-0.6721,-0.0420
6.1640,-0.7156,-0.6721,-0.0420
6.1820,-0.7180,-0.6623,-0.0415
6.1820,-0.7180,-0.6623,-0.0415
6.1820,-0.7180,-0.6623,-0.0415
6.1990,-0.7180,-0.6623,-0.0415
6.2010,-0.7205,-0.6601,-0.0376
6.2010,-0.7205,-0.6601,-0.0376
6.2020,-0.7205,-0.6601,-0.0376
6.2040,-0.7205,-0.6601,-0.0376
6.2040,-0.7205,-0.6601,-0.0376
6.2210,-0.7139,-0.6596,-0.0293
6.2220,-0.7139,-0.6596,-0.0293
6.2220,-0.7139,-0.6596,-0.0293
6.2420,-0.7258,-0.6677,-0.0396
6.2420,-0.7258,-0.6677,-0.0396
6.2430,-0.7258,-0.6677,-0.0396
6.2620,-0.7363,-0.6726,-0.0381
6.2620,-0.7363,-0.6726,-0.0381
6.2630,-0.7363,-0.6726,-0.0381
6.2830,-0.7244,-0.6647,-0.0301
6.2830,-0.7244,-0.6647,-0.0301
6.2830,-0.7244,-0.6647,-0.0301
6.2830,-0.7244,-0.6647,-0.0301
6.2830,-0.7244,-0.6647,-0.0301
6.3050,-0.7080,-0.6545,-0.0301
6.3050,-0.7080,-0.6545,-0.0301
6.3060,-0.7080,-0.6545,-0.0301
6.3240,-0.6980,-0.6489,-0.0362
6.3240,-0.6980,-0.6489,-0.0362
6.3250,-0.6980,-0.6489,-0.0362
6.3430,-0.7104,-0.6623,-0.0433
6.3430,-0.7104,-0.6623,-0.0433
6.3430,-0.7104,-0.6623,-0.0433
6.3640,-0.7361,-0.6787,-0.0330
6.3640,-0.7361,-0.6787,-0.0330
6.3640,-0.7361,-0.6787,-0.0330
6.3640,-0.7361,-0.6787,-0.0330
6.3650,-0.7361,-0.6787,-0.0330
6.3820,-0.7097,-0.6708,-0.0340
6.3820,-0.7097,-0.6708,-0.0340
6.3830,-0.7097,-0.6708,-0.0340
6.3970,-0.7097,-0.6708,-0.0340
6.4020,-0.6882,-0.6577,-0.0381
6.4030,-0.6882,-0.6577,-0.0381
6.4030,-0.6882,-0.6577,-0.0381
6.4220,-0.7009,-0.6655,-0.0367
6.4220,-0.7009,-0.6655,-0.0367
6.4220,-0.7009,-0.6655,-0.0367
6.4420,-0.7144,-0.6691,-0.0354
6.4420,-0.7144,-0.6691,-0.0354
6.4420,-0.7144,-0.6691,-0.0354
6.4430,-0.7144,-0.6691,-0.0354
6.4430,-0.7144,-0.6691,-0.0354
6.4620,-0.7212,-0.6662,-0.0310
6.4620,-0.7212,-0.6662,-0.0310
6.4620,-0.7212,-0.6662,-0.0310
6.4810,-0.7285,-0.6689,-0.0291
6.4810,-0.7285,-0.6689,-0.0291
6.4810,-0.7285,-0.6689,-0.0291
6.5020,-0.7268,-0.6687,-0.0313
6.5020,-0.7268,-0.6687,-0.0313
6.5020,-0.7268,-0.6687,-0.0313
6.5210,-0.7222,-0.6623,-0.0413
6.5210,-0.7222,-0.6623,-0.0413
6.5210,-0.7222,-0.6623,-0.0413
6.5240,-0.7222,-0.6623,-0.0413
6.5240,-0.7222,-0.6623,-0.0413
6.5430,-0.7263,-0.6650,-0.0425
6.5430,-0.7263,-0.6650,-0.0425
6.5430,-0.7263,-0.6650,-0.0425
6.5620,-0.7139,-0.6716,-0.0418
6.6070,-0.7139,-0.6716,-0.0418
6.6080,-0.7139,-0.6716,-0.0418
6.6080,-0.7205,-0.6628,-0.0252
6.6080,-0.7205,-0.6628,-0.0252
6.6080,-0.7205,-0.6628,-0.0252
6.6080,-0.7205,-0.6628,-0.0252
6.6080,-0.7493,-0.6523,-0.0174
6.6080,-0.7493,-0.6523,-0.0174
6.6080,-0.7493,-0.6523,-0.0174
6.6090,-0.7493,-0.6523,-0.0174
6.6090,-0.7493,-0.6523,-0.0174
6.6190,-0.7574,-0.6687,-0.0240
6.6190,-0.7574,-0.6687,-0.0240
6.6190,-0.7574,-0.6687,-0.0240
6.6440,-0.7249,-0.6806,-0.0423
6.6440,-0.7249,-0.6806,-0.0423
6.6440,-0.7249,-0.6806,-0.0423
6.6590,-0.7131,-0.6806,-0.0523
6.6590,-0.7131,-0.6806,-0.0523
6.6590,-0.7131,-0.6806,-0.0523
6.6790,-0.7341,-0.6689,-0.0437
6.6790,-0.7341,-0.6689,-0.0437
6.6790,-0.7341,-0.6689,-0.0437
6.6820,-0.7341,-0.6689,-0.0437
6.6820,-0.7341,-0.6689,-0.0437
6.7000,-0.7209,-0.6611,-0.0261
6.7000,-0.7209,-0.6611,-0.0261
6.7000,-0.7209,-0.6611,-0.0261
6.7210,-0.6985,-0.6625,-0.0376
6.7210,-0.6985,-0.6625,-0.0376
6.7210,-0.6985,-0.6625,-0.0376
6.7380,-0.6941,-0.6581,-0.0425
6.7390,-0.6941,-0.6581,-0.0425
6.7390,-0.6941,-0.6581,-0.0425
6.7590,-0.6982,-0.6550,-0.0227
6.7590,-0.6982,-0.6550,-0.0227
6.7590,-0.6982,-0.6550,-0.0227
6.7620,-0.6982,-0.6550,-0.0227
6.7620,-0.6982,-0.6550,-0.0227
6.7790,-0.7090,-0.6677,-0.0125
6.7800,-0.7090,-0.6677,-0.0125
6.7800,-0.7090,-0.6677,-0.0125
6.7950,-0.7090,-0.6677,-0.0125
6.7990,-0.6928,-0.6699,-0.0330
6.7990,-0.6928,-0.6699,-0.0330
6.7990,-0.6928,-0.6699,-0.0330
6.8180,-0.7038,-0.6623,-0.0469
6.8180,-0.7038,-0.6623,-0.0469
6.8180,-0.7038,-0.6623,-0.0469
6.8380,-0.7417,-0.6665,-0.0442
6.8380,-0.7417,-0.6665,-0.0442
6.8380,-0.7417,-0.6665,-0.0442
6.8380,-0.7417,-0.6665,-0.0442
6.8390,-0.7417,-0.6665,-0.0442
6.8580,-0.7366,-0.6618,-0.0271
6.8580,-0.7366,-0.6618,-0.0271
6.8580,-0.7366,-0.6618,-0.0271
6.8780,-0.7253,-0.6513,-0.0330
6.8780,-0.7253,-0.6513,-0.0330
6.8790,-0.7253,-0.6513,-0.0330
6.8970,-0.7285,-0.6567,-0.0396
6.8970,-0.7285,-0.6567,-0.0396
6.8970,-0.7285,-0.6567,-0.0396
6.9180,-0.7275,-0.6613,-0.0318
6.9180,-0.7275,-0.6613,-0.0318
6.9190,-0.7275,-0.6613,-0.0318
6.9210,-0.7275,-0.6613,-0.0318
6.9210,-0.7275,-0.6613,-0.0318
6.9380,-0.7168,-0.6589,-0.0352
6.9380,-0.7168,-0.6589,-0.0352
6.9380,-0.7168,-0.6589,-0.0352
6.9610,-0.7251,-0.6628,-0.0367
6.9610,-0.7251,-0.6628,-0.0367
6.9610,-0.7251,-0.6628,-0.0367
6.9760,-0.7271,-0.6682,-0.0445
6.9770,-0.7271,-0.6682,-0.0445
6.9770,-0.7271,-0.6682,-0.0445
6.9950,-0.7271,-0.6682,-0.0445
6.9980,-0.7195,-0.6677,-0.0327
6.9980,-0.7195,-0.6677,-0.0327
6.9990,-0.7195,-0.6677,-0.0327
6.9990,-0.7195,-0.6677,-0.0327
6.9990,-0.7195,-0.6677,-0.0327
7.0170,-0.7324,-0.6559,-0.0213
7.0170,-0.7324,-0.6559,-0.0213
7.0180,-0.7324,-0.6559,-0.0213
7.0390,-0.7100,-0.6579,-0.0323
7.0390,-0.7100,-0.6579,-0.0323
7.0390,-0.7100,-0.6579,-0.0323
7.0560,-0.7031,-0.6772,-0.0342
7.0560,-0.7031,-0.6772,-0.0342
7.0570,-0.7031,-0.6772,-0.0342
7.0770,-0.6977,-0.6787,-0.0244
7.0780,-0.6977,-0.6787,-0.0244
7.0780,-0.6977,-0.6787,-0.0244
7.0780,-0.6977,-0.6787,-0.0244
7.0780,-0.6977,-0.6787,-0.0244
7.0960,-0.7156,-0.6667,-0.0291
7.0970,-0.7156,-0.6667,-0.0291
7.0970,-0.7156,-0.6667,-0.0291
7.1490,-0.7288,-0.6740,-0.0386
7.1490,-0.7288,-0.6740,-0.0386
7.1490,-0.7288,-0.6740,-0.0386
7.1490,-0.7344,-0.6718,-0.0327
7.1500,-0.7344,-0.6718,-0.0327
7.1500,-0.7344,-0.6718,-0.0327
7.1550,-0.7324,-0.6623,-0.0384
7.1550,-0.7324,-0.6623,-0.0384
7.1550,-0.7324,-0.6623,-0.0384
7.1550,-0.7324,-0.6623,-0.0384
7.1550,-0.7324,-0.6623,-0.0384
7.1740,-0.7241,-0.6603,-0.0401
7.1740,-0.7241,-0.6603,-0.0401
7.1740,-0.7241,-0.6603,-0.0401
7.1900,-0.7241,-0.6603,-0.0401
7.1960,-0.7100,-0.6616,-0.0430
7.1970,-0.7100,-0.6616,-0.0430
7.1970,-0.7100,-0.6616,-0.0430
7.2140,-0.7161,-0.6603,-0.0413
7.2150,-0.7161,-0.6603,-0.0413
7.2150,-0.7161,-0.6603,-0.0413
7.2350,-0.7219,-0.6679,-0.0347
7.2350,-0.7219,-0.6679,-0.0347
7.2350,-0.7219,-0.6679,-0.0347
7.2360,-0.7219,-0.6679,-0.0347
7.2360,-0.7219,-0.6679,-0.0347
7.2580,-0.7080,-0.6723,-0.0310
7.2580,-0.7080,-0.6723,-0.0310
7.2580,-0.7080,-0.6723,-0.0310
7.2770,-0.7148,-0.6652,-0.0357
7.2770,-0.7148,-0.6652,-0.0357
7.2770,-0.7148,-0.6652,-0.0357
7.2950,-0.7324,-0.6665,-0.0335
7.2950,-0.7324,-0.6665,-0.0335
7.2960,-0.7324,-0.6665,-0.0335
7.3150,-0.7249,-0.6655,-0.0323
7.3150,-0.7249,-0.6655,-0.0323
7.3150,-0.7249,-0.6655,-0.0323
7.3150,-0.7249,-0.6655,-0.0323
7.3160,-0.7249,-0.6655,-0.0323
7.3360,-0.7107,-0.6603,-0.0310
7.3360,-0.7107,-0.6603,-0.0310
7.3360,-0.7107,-0.6603,-0.0310
7.3570,-0.7229,-0.6667,-0.0325
7.3570,-0.7229,-0.6667,-0.0325
7.3570,-0.7229,-0.6667,-0.0325
7.3750,-0.7285,-0.6694,-0.0420
7.3750,-0.7285,-0.6694,-0.0420
7.3750,-0.7285,-0.6694,-0.0420
7.3910,-0.7285,-0.6694,-0.0420
7.3940,-0.7251,-0.6760,-0.0415
7.3950,-0.7251,-0.6760,-0.0415
7.3950,-0.7251,-0.6760,-0.0415
7.3950,-0.7251,-0.6760,-0.0415
7.3950,-0.7251,-0.6760,-0.0415
7.4140,-0.7305,-0.6699,-0.0472
7.4140,-0.7305,-0.6699,-0.0472
7.4140,-0.7305,-0.6699,-0.0472
7.4350,-0.7407,-0.6640,-0.0389
7.4350,-0.7407,-0.6640,-0.0389
7.4350,-0.7407,-0.6640,-0.0389
7.4550,-0.7222,-0.6667,-0.0359
7.4550,-0.7222,-0.6667,-0.0359
7.4550,-0.7222,-0.6667,-0.0359
7.4750,-0.7070,-0.6662,-0.0301
7.4760,-0.7070,-0.6662,-0.0301
7.4760,-0.7070,-0.6662,-0.0301
7.4760,-0.7070,-0.6662,-0.0301
7.4760,-0.7070,-0.6662,-0.0301
7.4940,-0.6975,-0.6618,-0.0332
7.4940,-0.6975,-0.6618,-0.0332
7.4940,-0.6975,-0.6618,-0.0332
7.5150,-0.6936,-0.6691,-0.0440
7.5150,-0.6936,-0.6691,-0.0440
7.5150,-0.6936,-0.6691,-0.0440
7.5340,-0.7139,-0.6806,-0.0342
7.5340,-0.7139,-0.6806,-0.0342
7.5350,-0.7139,-0.6806,-0.0342
7.5540,-0.7183,-0.6713,-0.0237
7.5540,-0.7183,-0.6713,-0.0237
7.5540,-0.7183,-0.6713,-0.0237
7.5550,-0.7183,-0.6713,-0.0237
7.5550,-0.7183,-0.6713,-0.0237
7.5740,-0.7214,-0.6589,-0.0293
7.5740,-0.7214,-0.6589,-0.0293
7.5750,-0.7214,-0.6589,-0.0293
7.5930,-0.7214,-0.6589,-0.0293
7.5950,-0.7322,-0.6645,-0.0349
7.5960,-0.7322,-0.6645,-0.0349
7.5960,-0.7322,-0.6645,-0.0349
7.6130,-0.7043,-0.6735,-0.0411
7.6130,-0.7043,-0.6735,-0.0411
7.6140,-0.7043,-0.6735,-0.0411
7.6340,-0.7109,-0.6623,-0.0440
7.6340,-0.7109,-0.6623,-0.0440
7.6350,-0.7109,-0.6623,-0.0440
7.6350,-0.7109,-0.6623,-0.0440
7.6360,-0.7109,-0.6623,-0.0440
7.6540,-0.7139,-0.6562,-0.0418
7.6540,-0.7139,-0.6562,-0.0418
7.7020,-0.7139,-0.6562,-0.0418
7.7030,-0.7153,-0.6696,-0.0450
7.7030,-0.7153,-0.6696,-0.0450
7.7030,-0.7153,-0.6696,-0.0450
7.7030,-0.7332,-0.6755,-0.0401
7.7030,-0.7332,-0.6755,-0.0401
7.7030,-0.7332,-0.6755,-0.0401
7.7160,-0.7134,-0.6704,-0.0337
7.7170,-0.7134,-0.6704,-0.0337
7.7170,-0.7134,-0.6704,-0.0337
7.7170,-0.7134,-0.6704,-0.0337
7.7180,-0.7134,-0.6704,-0.0337
7.7310,-0.7082,-0.6569,-0.0349
7.7310,-0.7082,-0.6569,-0.0349
7.7310,-0.7082,-0.6569,-0.0349
7.7520,-0.7078,-0.6591,-0.0389
7.7520,-0.7078,-0.6591,-0.0389
7.7520,-0.7078,-0.6591,-0.0389
7.7710,-0.7263,-0.6748,-0.0362
7.7710,-0.7263,-0.6748,-0.0362
7.7710,-0.7263,-0.6748,-0.0362
7.7880,-0.7263,-0.6748,-0.0362
7.7930,-0.7339,-0.6772,-0.0308
7.7930,-0.7339,-0.6772,-0.0308
7.7930,-0.7339,-0.6772,-0.0308
7.7930,-0.7339,-0.6772,-0.0308
7.7930,-0.7339,-0.6772,-0.0308
7.8120,-0.7239,-0.6621,-0.0310
7.8120,-0.7239,-0.6621,-0.0310
7.8120,-0.7239,-0.6621,-0.0310
7.8330,-0.7102,-0.6621,-0.0244
7.8330,-0.7102,-0.6621,-0.0244
7.8340,-0.7102,-0.6621,-0.0244
7.8510,-0.6977,-0.6706,-0.0349
7.8510,-0.6977,-0.6706,-0.0349
7.8520,-0.6977,-0.6706,-0.0349
7.8720,-0.7092,-0.6743,-0.0472
7.8720,-0.7092,-0.6743,-0.0472
7.8720,-0.7092,-0.6743,-0.0472
7.8730,-0.7092,-0.6743,-0.0472
7.8730,-0.7092,-0.6743,-0.0472
7.8930,-0.7183,-0.6748,-0.0398
7.8930,-0.7183,-0.6748,-0.0398
7.8930,-0.7183,-0.6748,-0.0398
7.9130,-0.7268,-0.6672,-0.0281
7.9130,-0.7268,-0.6672,-0.0281
7.9130,-0.7268,-0.6672,-0.0281
7.9330,-0.7209,-0.6647,-0.0183
7.9330,-0.7209,-0.6647,-0.0183
7.9340,-0.7209,-0.6647,-0.0183
7.9520,-0.7004,-0.6730,-0.0425
7.9520,-0.7004,-0.6730,-0.0425
7.9520,-0.7004,-0.6730,-0.0425
7.9520,-0.7004,-0.6730,-0.0425
7.9520,-0.7004,-0.6730,-0.0425
7.9720,-0.6994,-0.6767,-0.0389
7.9720,-0.6994,-0.6767,-0.0389
7.9720,-0.6994,-0.6767,-0.0389
7.9880,-0.6994,-0.6767,-0.0389
7.9910,-0.7112,-0.6696,-0.0320
7.9920,-0.7112,-0.6696,-0.0320
7.9920,-0.7112,-0.6696,-0.0320
8.0110,-0.7075,-0.6687,-0.0423
8.0110,-0.7075,-0.6687,-0.0423
8.0120,-0.7075,-0.6687,-0.0423
8.0300,-0.7122,-0.6765,-0.0557
8.0310,-0.7122,-0.6765,-0.0557
8.0310,-0.7122,-0.6765,-0.0557
8.0310,-0.7122,-0.6765,-0.0557
8.0310,-0.7122,-0.6765,-0.0557
8.0490,-0.7244,-0.6743,-0.0379
8.0500,-0.7244,-0.6743,-0.0379
8.0500,-0.7244,-0.6743,-0.0379
8.0710,-0.7200,-0.6643,-0.0247
8.0710,-0.7200,-0.6643,-0.0247
8.0710,-0.7200,-0.6643,-0.0247
8.0910,-0.7041,-0.6696,-0.0330
8.0920,-0.7041,-0.6696,-0.0330
8.0920,-0.7041,-0.6696,-0.0330
8.1120,-0.7058,-0.6840,-0.0391
8.1120,-0.7058,-0.6840,-0.0391
8.1150,-0.7058,-0.6840,-0.0391
8.1160,-0.7058,-0.6840,-0.0391
8.1160,-0.7058,-0.6840,-0.0391
8.1290,-0.7268,-0.6794,-0.0327
8.1300,-0.7268,-0.6794,-0.0327
8.1310,-0.7268,-0.6794,-0.0327
8.1530,-0.7278,-0.6657,-0.0237
8.1540,-0.7278,-0.6657,-0.0237
8.1550,-0.7278,-0.6657,-0.0237
8.1700,-0.7192,-0.6574,-0.0381
8.1710,-0.7192,-0.6574,-0.0381
8.1720,-0.7192,-0.6574,-0.0381
8.1860,-0.7192,-0.6574,-0.0381
8.1900,-0.7163,-0.6748,-0.0384
8.1910,-0.7163,-0.6748,-0.0384
8.1920,-0.7163,-0.6748,-0.0384
8.1920,-0.7163,-0.6748,-0.0384
8.1930,-0.7163,-0.6748,-0.0384
8.2120,-0.7224,-0.6826,-0.0347
8.2900,-0.7224,-0.6826,-0.0347
8.2910,-0.7224,-0.6826,-0.0347
8.2910,-0.7258,-0.6743,-0.0359
8.2910,-0.7258,-0.6743,-0.0359
8.2920,-0.7258,-0.6743,-0.0359
8.2920,-0.7095,-0.6723,-0.0418
8.2920,-0.7095,-0.6723,-0.0418
8.2920,-0.7095,-0.6723,-0.0418
8.2920,-0.7070,-0.6713,-0.0440
8.2920,-0.7070,-0.6713,-0.0440
8.2930,-0.7070,-0.6713,-0.0440
8.2930,-0.7070,-0.6713,-0.0440
8.2930,-0.7070,-0.6713,-0.0440
8.2930,-0.7112,-0.6726,-0.0310
8.2930,-0.7112,-0.6726,-0.0310
8.2940,-0.7112,-0.6726,-0.0310
8.3080,-0.7119,-0.6728,-0.0283
8.3080,-0.7119,-0.6728,-0.0283
8.3090,-0.7119,-0.6728,-0.0283
8.3280,-0.7109,-0.6684,-0.0406
8.3290,-0.7109,-0.6684,-0.0406
8.3290,-0.7109,-0.6684,-0.0406
8.3470,-0.7097,-0.6726,-0.0474
8.3480,-0.7097,-0.6726,-0.0474
8.3490,-0.7097,-0.6726,-0.0474
8.3490,-0.7097,-0.6726,-0.0474
8.3510,-0.7097,-0.6726,-0.0474
8.3690,-0.7087,-0.6699,-0.0332
8.3700,-0.7087,-0.6699,-0.0332
8.3700,-0.7087,-0.6699,-0.0332
8.3820,-0.7087,-0.6699,-0.0332
8.3890,-0.7046,-0.6655,-0.0225
8.3900,-0.7046,-0.6655,-0.0225
8.3900,-0.7046,-0.6655,-0.0225
8.4100,-0.6911,-0.6694,-0.0386
8.4100,-0.6911,-0.6694,-0.0386
8.4110,-0.6911,-0.6694,-0.0386
8.4290,-0.7109,-0.6721,-0.0347
8.4290,-0.7109,-0.6721,-0.0347
8.4290,-0.7109,-0.6721,-0.0347
8.4300,-0.7109,-0.6721,-0.0347
8.4300,-0.7109,-0.6721,-0.0347
8.4500,-0.7405,-0.6708,-0.0257
8.4510,-0.7405,-0.6708,-0.0257
8.4510,-0.7405,-0.6708,-0.0257
8.4710,-0.7432,-0.6711,-0.0200
8.4710,-0.7432,-0.6711,-0.0200
8.4720,-0.7432,-0.6711,-0.0200
8.4910,-0.7185,-0.6623,-0.0323
8.4910,-0.7185,-0.6623,-0.0323
8.4920,-0.7185,-0.6623,-0.0323
8.5130,-0.7217,-0.6569,-0.0401
8.5130,-0.7217,-0.6569,-0.0401
8.5140,-0.7217,-0.6569,-0.0401
8.5150,-0.7217,-0.6569,-0.0401
8.5160,-0.7217,-0.6569,-0.0401
8.5300,-0.7388,-0.6662,-0.0496
8.5310,-0.7388,-0.6662,-0.0496
8.5330,-0.7388,-0.6662,-0.0496
8.5500,-0.7271,-0.6752,-0.0501
8.5500,-0.7271,-0.6752,-0.0501
8.5510,-0.7271,-0.6752,-0.0501
8.5690,-0.7288,-0.6635,-0.0340
8.5700,-0.7288,-0.6635,-0.0340
8.5700,-0.7288,-0.6635,-0.0340
8.5820,-0.7288,-0.6635,-0.0340
8.5880,-0.7185,-0.6528,-0.0347
8.5890,-0.7185,-0.6528,-0.0347
8.5900,-0.7185,-0.6528,-0.0347
8.5940,-0.7185,-0.6528,-0.0347
8.5950,-0.7185,-0.6528,-0.0347
8.6090,-0.7060,-0.6594,-0.0430
8.6090,-0.7060,-0.6594,-0.0430
8.6100,-0.7060,-0.6594,-0.0430
8.6300,-0.7014,-0.6743,-0.0315
8.6310,-0.7014,-0.6743,-0.0315
8.6310,-0.7014,-0.6743,-0.0315
8.6490,-0.7173,-0.6652,-0.0222
8.6500,-0.7173,-0.6652,-0.0222
8.6510,-0.7173,-0.6652,-0.0222
8.6720,-0.7078,-0.6621,-0.0325
8.6720,-0.7078,-0.6621,-0.0325
8.6740,-0.7078,-0.6621,-0.0325
8.6760,-0.7078,-0.6621,-0.0325
8.6760,-0.7078,-0.6621,-0.0325
8.6880,-0.6916,-0.6674,-0.0425
8.6890,-0.6916,-0.6674,-0.0425
8.6890,-0.6916,-0.6674,-0.0425
8.7090,-0.7092,-0.6662,-0.0367
8.7090,-0.7092,-0.6662,-0.0367
8.7100,-0.7092,-0.6662,-0.0367
8.7320,-0.7122,-0.6613,-0.0369
8.7330,-0.7122,-0.6613,-0.0369
8.7340,-0.7122,-0.6613,-0.0369
8.7490,-0.7192,-0.6630,-0.0496
8.7500,-0.7192,-0.6630,-0.0496
8.7510,-0.7192,-0.6630,-0.0496
8.7510,-0.7192,-0.6630,-0.0496
8.7520,-0.7192,-0.6630,-0.0496
8.7700,-0.7337,-0.6601,-0.0330
8.8580,-0.7337,-0.6601,-0.0330
8.8580,-0.7337,-0.6601,-0.0330
8.8580,-0.7337,-0.6601,-0.0330
8.8580,-0.7295,-0.6555,-0.0286
8.8590,-0.7295,-0.6555,-0.0286
8.8590,-0.7295,-0.6555,-0.0286
8.8590,-0.7107,-0.6694,-0.0327
8.8590,-0.7107,-0.6694,-0.0327
8.8590,-0.7107,-0.6694,-0.0327
8.8600,-0.7197,-0.6726,-0.0349
8.8600,-0.7197,-0.6726,-0.0349
8.8600,-0.7197,-0.6726,-0.0349
8.8600,-0.7197,-0.6726,-0.0349
8.8600,-0.7197,-0.6726,-0.0349
8.8610,-0.7403,-0.6611,-0.0389
8.8610,-0.7403,-0.6611,-0.0389
8.8610,-0.7403,-0.6611,-0.0389
8.8660,-0.7376,-0.6606,-0.0332
8.8660,-0.7376,-0.6606,-0.0332
8.8660,-0.7376,-0.6606,-0.0332
8.8840,-0.7302,-0.6613,-0.0298
8.8840,-0.7302,-0.6613,-0.0298
8.8840,-0.7302,-0.6613,-0.0298
8.9040,-0.7119,-0.6623,-0.0481
8.9050,-0.7119,-0.6623,-0.0481
8.9050,-0.7119,-0.6623,-0.0481
8.9060,-0.7119,-0.6623,-0.0481
8.9060,-0.7119,-0.6623,-0.0481
8.9240,-0.7109,-0.6665,-0.0484
8.9250,-0.7109,-0.6665,-0.0484
8.9250,-0.7109,-0.6665,-0.0484
8.9460,-0.7234,-0.6625,-0.0367
8.9470,-0.7234,-0.6625,-0.0367
8.9470,-0.7234,-0.6625,-0.0367
8.9640,-0.7263,-0.6537,-0.0381
8.9640,-0.7263,-0.6537,-0.0381
8.9650,-0.7263,-0.6537,-0.0381
8.9780,-0.7263,-0.6537,-0.0381
8.9850,-0.7200,-0.6628,-0.0279
8.9850,-0.7200,-0.6628,-0.0279
8.9850,-0.7200,-0.6628,-0.0279
8.9870,-0.7200,-0.6628,-0.0279
8.9870,-0.7200,-0.6628,-0.0279
9.0050,-0.7119,-0.6762,-0.0301
9.0050,-0.7119,-0.6762,-0.0301
9.0060,-0.7119,-0.6762,-0.0301
9.0250,-0.7031,-0.6799,-0.0393
9.0250,-0.7031,-0.6799,-0.0393
9.0250,-0.7031,-0.6799,-0.0393
9.0450,-0.7092,-0.6708,-0.0298
9.0460,-0.7092,-0.6708,-0.0298
9.0470,-0.7092,-0.6708,-0.0298
9.0660,-0.7043,-0.6625,-0.0381
9.0670,-0.7043,-0.6625,-0.0381
9.0680,-0.7043,-0.6625,-0.0381
9.0680,-0.7043,-0.6625,-0.0381
9.0690,-0.7043,-0.6625,-0.0381
9.0840,-0.7092,-0.6689,-0.0452
9.0850,-0.7092,-0.6689,-0.0452
9.0850,-0.7092,-0.6689,-0.0452
9.1090,-0.7190,-0.6665,-0.0411
9.1100,-0.7190,-0.6665,-0.0411
9.1100,-0.7190,-0.6665,-0.0411
9.1260,-0.7302,-0.6630,-0.0335
9.1260,-0.7302,-0.6630,-0.0335
9.1270,-0.7302,-0.6630,-0.0335
9.1460,-0.7393,-0.6672,-0.0408
9.1470,-0.7393,-0.6672,-0.0408
9.1480,-0.7393,-0.6672,-0.0408
9.1480,-0.7393,-0.6672,-0.0408
9.1480,-0.7393,-0.6672,-0.0408
9.1640,-0.7268,-0.6628,-0.0367
9.1670,-0.7268,-0.6628,-0.0367
9.1670,-0.7268,-0.6628,-0.0367
9.1770,-0.7268,-0.6628,-0.0367
9.1830,-0.7090,-0.6579,-0.0391
9.1830,-0.7090,-0.6579,-0.0391
9.1840,-0.7090,-0.6579,-0.0391
9.2100,-0.7136,-0.6655,-0.0283
9.2120,-0.7136,-0.6655,-0.0283
9.2120,-0.7136,-0.6655,-0.0283
9.2250,-0.7222,-0.6760,-0.0347
9.2260,-0.7222,-0.6760,-0.0347
9.2260,-0.7222,-0.6760,-0.0347
9.2270,-0.7222,-0.6760,-0.0347
9.2270,-0.7222,-0.6760,-0.0347
9.2460,-0.7234,-0.6743,-0.0450
9.2470,-0.7234,-0.6743,-0.0450
9.2480,-0.7234,-0.6743,-0.0450
9.2640,-0.7234,-0.6726,-0.0435
9.2690,-0.7234,-0.6726,-0.0435
9.2700,-0.7234,-0.6726,-0.0435
9.2870,-0.7200,-0.6726,-0.0325
9.2900,-0.7200,-0.6726,-0.0325
9.2910,-0.7200,-0.6726,-0.0325
9.3060,-0.7131,-0.6665,-0.0247
9.3070,-0.7131,-0.6665,-0.0247
9.3080,-0.7131,-0.6665,-0.0247
9.3090,-0.7131,-0.6665,-0.0247
9.3090,-0.7131,-0.6665,-0.0247
9.3840,-0.7163,-0.6665,-0.0298
9.3840,-0.7163,-0.6665,-0.0298
9.3840,-0.7163,-0.6665,-0.0298
9.3840,-0.7168,-0.6655,-0.0257
9.3850,-0.7168,-0.6655,-0.0257
9.3850,-0.7168,-0.6655,-0.0257
9.3850,-0.7412,-0.6699,-0.0259
9.3850,-0.7412,-0.6699,-0.0259
9.3850,-0.7412,-0.6699,-0.0259
9.3850,-0.7412,-0.6699,-0.0259
9.3850,-0.7532,-0.6735,-0.0323
9.3860,-0.7532,-0.6735,-0.0323
9.3860,-0.7532,-0.6735,-0.0323
9.3860,-0.7532,-0.6735,-0.0323
9.3860,-0.7532,-0.6735,-0.0323
9.4030,-0.7339,-0.6711,-0.0547
9.4030,-0.7339,-0.6711,-0.0547
9.4040,-0.7339,-0.6711,-0.0547
9.4210,-0.7256,-0.6677,-0.0513
9.4220,-0.7256,-0.6677,-0.0513
9.4220,-0.7256,-0.6677,-0.0513
9.4460,-0.7305,-0.6542,-0.0276
9.4460,-0.7305,-0.6542,-0.0276
9.4470,-0.7305,-0.6542,-0.0276
9.4630,-0.7107,-0.6545,-0.0291
9.4630,-0.7107,-0.6545,-0.0291
9.4630,-0.7107,-0.6545,-0.0291
9.4640,-0.7107,-0.6545,-0.0291
9.4830,-0.6933,-0.6645,-0.0371
9.4830,-0.6933,-0.6645,-0.0371
9.4830,-0.6933,-0.6645,-0.0371
9.5020,-0.6948,-0.6647,-0.0452
9.5020,-0.6948,-0.6647,-0.0452
9.5020,-0.6948,-0.6647,-0.0452
9.5210,-0.7178,-0.6594,-0.0349
9.5210,-0.7178,-0.6594,-0.0349
9.5210,-0.7178,-0.6594,-0.0349
9.5450,-0.7268,-0.6572,-0.0281
9.5450,-0.7268,-0.6572,-0.0281
9.5450,-0.7268,-0.6572,-0.0281
9.5450,-0.7268,-0.6572,-0.0281
9.5450,-0.7268,-0.6572,-0.0281
9.5640,-0.7302,-0.6660,-0.0313
9.5640,-0.7302,-0.6660,-0.0313
9.5650,-0.7302,-0.6660,-0.0313
9.5730,-0.7302,-0.6660,-0.0313
9.5820,-0.7290,-0.6718,-0.0379
9.5820,-0.7290,-0.6718,-0.0379
9.5820,-0.7290,-0.6718,-0.0379
9.6020,-0.7126,-0.6596,-0.0318
9.6020,-0.7126,-0.6596,-0.0318
9.6020,-0.7126,-0.6596,-0.0318
9.6220,-0.7053,-0.6493,-0.0254
9.6220,-0.7053,-0.6493,-0.0254
9.6220,-0.7053,-0.6493,-0.0254
9.6250,-0.7053,-0.6493,-0.0254
9.6260,-0.7053,-0.6493,-0.0254
9.6450,-0.6931,-0.6520,-0.0296
9.6450,-0.6931,-0.6520,-0.0296
9.6450,-0.6931,-0.6520,-0.0296
9.6630,-0.7014,-0.6638,-0.0318
9.6630,-0.7014,-0.6638,-0.0318
9.6630,-0.7014,-0.6638,-0.0318
9.6820,-0.7173,-0.6616,-0.0315
9.6820,-0.7173,-0.6616,-0.0315
9.6820,-0.7173,-0.6616,-0.0315
9.7000,-0.7310,-0.6496,-0.0327
9.7010,-0.7310,-0.6496,-0.0327
9.7010,-0.7310,-0.6496,-0.0327
9.7040,-0.7310,-0.6496,-0.0327
9.7050,-0.7310,-0.6496,-0.0327
9.7220,-0.7183,-0.6579,-0.0540
9.7220,-0.7183,-0.6579,-0.0540
9.7220,-0.7183,-0.6579,-0.0540
9.7430,-0.7222,-0.6740,-0.0501
9.7430,-0.7222,-0.6740,-0.0501
9.7440,-0.7222,-0.6740,-0.0501
9.7620,-0.7359,-0.6674,-0.0071
9.7630,-0.7359,-0.6674,-0.0071
9.7630,-0.7359,-0.6674,-0.0071
9.7720,-0.7359,-0.6674,-0.0071
9.7810,-0.7200,-0.6476,-0.0110
9.7810,-0.7200,-0.6476,-0.0110
9.7810,-0.7200,-0.6476,-0.0110
9.7830,-0.7200,-0.6476,-0.0110
9.7830,-0.7200,-0.6476,-0.0110
9.8000,-0.7178,-0.6547,-0.0362
9.8000,-0.7178,-0.6547,-0.0362
9.8010,-0.7178,-0.6547,-0.0362
9.8210,-0.7212,-0.6752,-0.0401
9.8210,-0.7212,-0.6752,-0.0401
9.8210,-0.7212,-0.6752,-0.0401
9.8420,-0.7168,-0.6865,-0.0315
9.8420,-0.7168,-0.6865,-0.0315
9.8420,-0.7168,-0.6865,-0.0315
9.8610,-0.7131,-0.6757,-0.0330
9.8620,-0.7131,-0.6757,-0.0330
9.8620,-0.7131,-0.6757,-0.0330
9.8640,-0.7131,-0.6757,-0.0330
9.8650,-0.7131,-0.6757,-0.0330
9.9110,-0.7231,-0.6682,-0.0618
9.9110,-0.7231,-0.6682,-0.0618
9.9110,-0.7231,-0.6682,-0.0618
9.9110,-0.7188,-0.6789,-0.0450
9.9110,-0.7188,-0.6789,-0.0450
9.9110,-0.7188,-0.6789,-0.0450
9.9190,-0.7217,-0.6767,-0.0271
9.9190,-0.7217,-0.6767,-0.0271
9.9190,-0.7217,-0.6767,-0.0271
9.9390,-0.7107,-0.6537,-0.0349
9.9390,-0.7107,-0.6537,-0.0349
9.9400,-0.7107,-0.6537,-0.0349
9.9420,-0.7107,-0.6537,-0.0349
9.9420,-0.7107,-0.6537,-0.0349
9.9600,-0.7158,-0.6496,-0.0347
9.9600,-0.7158,-0.6496,-0.0347
9.9600,-0.7158,-0.6496,-0.0347
9.9700,-0.7158,-0.6496,-0.0347
9.9780,-0.7126,-0.6689,-0.0452
9.9780,-0.7126,-0.6689,-0.0452
9.9790,-0.7126,-0.6689,-0.0452
9.9980,-0.7161,-0.6811,-0.0486
9.9980,-0.7161,-0.6811,-0.0486
9.9990,-0.7161,-0.6811,-0.0486
10.0190,-0.7178,-0.6760,-0.0535
10.0190,-0.7178,-0.6760,-0.0535
10.0190,-0.7178,-0.6760,-0.0535
10.0200,-0.7178,-0.6760,-0.0535
10.0200,-0.7178,-0.6760,-0.0535
10.0380,-0.7256,-0.6679,-0.0552
10.0380,-0.7256,-0.6679,-0.0552
10.0380,-0.7256,-0.6679,-0.0552
10.0580,-0.7229,-0.6687,-0.0516
10.0580,-0.7229,-0.6687,-0.0516
10.0580,-0.7229,-0.6687,-0.0516
10.0790,-0.7144,-0.6748,-0.0178
10.0790,-0.7144,-0.6748,-0.0178
10.0790,-0.7144,-0.6748,-0.0178
10.0980,-0.7373,-0.6647,-0.0125
10.0980,-0.7373,-0.6647,-0.0125
10.0980,-0.7373,-0.6647,-0.0125
10.1000,-0.7373,-0.6647,-0.0125
10.1010,-0.7373,-0.6647,-0.0125
10.1170,-0.7376,-0.6713,-0.0176
10.1180,-0.7376,-0.6713,-0.0176
10.1180,-0.7376,-0.6713,-0.0176
10.1380,-0.7119,-0.6806,-0.0469
10.1390,-0.7119,-0.6806,-0.0469
10.1390,-0.7119,-0.6806,-0.0469
10.1580,-0.7151,-0.6743,-0.0435
10.1580,-0.7151,-0.6743,-0.0435
10.1580,-0.7151,-0.6743,-0.0435
10.1700,-0.7151,-0.6743,-0.0435
10.1770,-0.7161,-0.6577,-0.0349
10.1770,-0.7161,-0.6577,-0.0349
10.1770,-0.7161,-0.6577,-0.0349
10.1800,-0.7161,-0.6577,-0.0349
10.1810,-0.7161,-0.6577,-0.0349
10.1980,-0.6968,-0.6545,-0.0303
10.1980,-0.6968,-0.6545,-0.0303
10.1980,-0.6968,-0.6545,-0.0303
10.2170,-0.6902,-0.6613,-0.0296
10.2170,-0.6902,-0.6613,-0.0296
10.2170,-0.6902,-0.6613,-0.0296
10.2370,-0.6999,-0.6657,-0.0332
10.2380,-0.6999,-0.6657,-0.0332
10.2380,-0.6999,-0.6657,-0.0332
10.2570,-0.7378,-0.6735,-0.0301
10.2580,-0.7378,-0.6735,-0.0301
10.2580,-0.7378,-0.6735,-0.0301
10.2590,-0.7378,-0.6735,-0.0301
10.2590,-0.7378,-0.6735,-0.0301
10.2780,-0.7060,-0.6748,-0.0455
10.2780,-0.7060,-0.6748,-0.0455
10.2790,-0.7060,-0.6748,-0.0455
10.2980,-0.7122,-0.6662,-0.0540
10.2980,-0.7122,-0.6662,-0.0540
10.2990,-0.7122,-0.6662,-0.0540
10.3170,-0.7205,-0.6601,-0.0569
10.3170,-0.7205,-0.6601,-0.0569
10.3170,-0.7205,-0.6601,-0.0569
10.3360,-0.7288,-0.6647,-0.0511
10.3370,-0.7288,-0.6647,-0.0511
10.3370,-0.7288,-0.6647,-0.0511
10.3400,-0.7288,-0.6647,-0.0511
10.3410,-0.7288,-0.6647,-0.0511
10.3560,-0.7256,-0.6616,-0.0518
10.3570,-0.7256,-0.6616,-0.0518
10.3570,-0.7256,-0.6616,-0.0518
10.3710,-0.7256,-0.6616,-0.0518
10.3760,-0.7178,-0.6567,-0.0459
10.3760,-0.7178,-0.6567,-0.0459
10.3760,-0.7178,-0.6567,-0.0459
10.3960,-0.7141,-0.6611,-0.0467
10.3970,-0.7141,-0.6611,-0.0467
10.3970,-0.7141,-0.6611,-0.0467
10.4170,-0.7290,-0.6679,-0.0423
10.4170,-0.7290,-0.6679,-0.0423
10.4170,-0.7290,-0.6679,-0.0423
10.4180,-0.7290,-0.6679,-0.0423
10.4650,-0.7290,-0.6679,-0.0423
10.4650,-0.7344,-0.6750,-0.0391
10.4650,-0.7344,-0.6750,-0.0391
10.4650,-0.7344,-0.6750,-0.0391
10.4660,-0.7454,-0.6723,-0.0376
10.4660,-0.7454,-0.6723,-0.0376
10.4660,-0.7454,-0.6723,-0.0376
10.4740,-0.7332,-0.6660,-0.0491
10.4740,-0.7332,-0.6660,-0.0491
10.4740,-0.7332,-0.6660,-0.0491
10.4940,-0.7217,-0.6704,-0.0567
10.4950,-0.7217,-0.6704,-0.0567
10.4950,-0.7217,-0.6704,-0.0567
10.4970,-0.7217,-0.6704,-0.0567
10.4980,-0.7217,-0.6704,-0.0567
10.5140,-0.7236,-0.6691,-0.0477
10.5140,-0.7236,-0.6691,-0.0477
10.5150,-0.7236,-0.6691,-0.0477
10.5340,-0.7266,-0.6530,-0.0430
10.5340,-0.7266,-0.6530,-0.0430
10.5340,-0.7266,-0.6530,-0.0430
10.5540,-0.7192,-0.6567,-0.0523
10.5540,-0.7192,-0.6567,-0.0523
10.5540,-0.7192,-0.6567,-0.0523
10.5680,-0.7192,-0.6567,-0.0523
10.5750,-0.7351,-0.6684,-0.0440
10.5750,-0.7351,-0.6684,-0.0440
10.5760,-0.7351,-0.6684,-0.0440
10.5780,-0.7351,-0.6684,-0.0440
10.5780,-0.7351,-0.6684,-0.0440
10.5940,-0.7244,-0.6711,-0.0310
10.5950,-0.7244,-0.6711,-0.0310
10.5950,-0.7244,-0.6711,-0.0310
10.6140,-0.7082,-0.6586,-0.0435
10.6150,-0.7082,-0.6586,-0.0435
10.6150,-0.7082,-0.6586,-0.0435
10.6350,-0.7036,-0.6567,-0.0569
10.6350,-0.7036,-0.6567,-0.0569
10.6360,-0.7036,-0.6567,-0.0569
10.6540,-0.7158,-0.6691,-0.0474
10.6550,-0.7158,-0.6691,-0.0474
10.6550,-0.7158,-0.6691,-0.0474
10.6590,-0.7158,-0.6691,-0.0474
10.6590,-0.7158,-0.6691,-0.0474
10.6750,-0.7056,-0.6716,-0.0401
10.6750,-0.7056,-0.6716,-0.0401
10.6750,-0.7056,-0.6716,-0.0401
10.6930,-0.6965,-0.6577,-0.0371
10.6940,-0.6965,-0.6577,-0.0371
10.6940,-0.6965,-0.6577,-0.0371
10.7130,-0.7109,-0.6564,-0.0296
10.7140,-0.7109,-0.6564,-0.0296
10.7140,-0.7109,-0.6564,-0.0296
10.7340,-0.7231,-0.6589,-0.0379
10.7340,-0.7231,-0.6589,-0.0379
10.7340,-0.7231,-0.6589,-0.0379
10.7370,-0.7231,-0.6589,-0.0379
10.7380,-0.7231,-0.6589,-0.0379
10.7540,-0.7295,-0.6603,-0.0403
10.7540,-0.7295,-0.6603,-0.0403
10.7540,-0.7295,-0.6603,-0.0403
10.7660,-0.7295,-0.6603,-0.0403
10.7740,-0.7398,-0.6621,-0.0413
10.7740,-0.7398,-0.6621,-0.0413
10.7740,-0.7398,-0.6621,-0.0413
10.7930,-0.7295,-0.6623,-0.0506
10.7940,-0.7295,-0.6623,-0.0506
10.7940,-0.7295,-0.6623,-0.0506
10.8130,-0.7104,-0.6674,-0.0459
10.8140,-0.7104,-0.6674,-0.0459
10.8140,-0.7104,-0.6674,-0.0459
10.8170,-0.7104,-0.6674,-0.0459
10.8170,-0.7104,-0.6674,-0.0459
10.8340,-0.7100,-0.6616,-0.0271
10.8340,-0.7100,-0.6616,-0.0271
10.8340,-0.7100,-0.6616,-0.0271
10.8540,-0.7036,-0.6557,-0.0305
10.8540,-0.7036,-0.6557,-0.0305
10.8540,-0.7036,-0.6557,-0.0305
10.8740,-0.7122,-0.6728,-0.0232
10.8740,-0.7122,-0.6728,-0.0232
10.8740,-0.7122,-0.6728,-0.0232
10.8940,-0.7451,-0.6899,-0.0203
10.8950,-0.7451,-0.6899,-0.0203
10.8950,-0.7451,-0.6899,-0.0203
10.8950,-0.7451,-0.6899,-0.0203
10.8950,-0.7451,-0.6899,-0.0203
10.9140,-0.7180,-0.6919,-0.0464
10.9140,-0.7180,-0.6919,-0.0464
10.9140,-0.7180,-0.6919,-0.0464
10.9330,-0.7014,-0.6787,-0.0462
10.9340,-0.7014,-0.6787,-0.0462
10.9340,-0.7014,-0.6787,-0.0462
10.9550,-0.7188,-0.6608,-0.0313
10.9550,-0.7188,-0.6608,-0.0313
10.9560,-0.7188,-0.6608,-0.0313
10.9640,-0.7188,-0.6608,-0.0313
10.9750,-0.7209,-0.6474,-0.0462
10.9760,-0.7209,-0.6474,-0.0462
10.9760,-0.7209,-0.6474,-0.0462
11.0310,-0.7209,-0.6474,-0.0462
11.0310,-0.7209,-0.6474,-0.0462
11.0310,-0.7114,-0.6625,-0.0513
11.0320,-0.7114,-0.6625,-0.0513
11.0320,-0.7114,-0.6625,-0.0513
11.0320,-0.7109,-0.6799,-0.0445
11.0320,-0.7109,-0.6799,-0.0445
11.0320,-0.7109,-0.6799,-0.0445
11.0320,-0.7014,-0.6814,-0.0345
11.0320,-0.7014,-0.6814,-0.0345
11.0320,-0.7014,-0.6814,-0.0345
11.0510,-0.6853,-0.6584,-0.0279
11.0510,-0.6853,-0.6584,-0.0279
11.0510,-0.6853,-0.6584,-0.0279
11.0550,-0.6853,-0.6584,-0.0279
11.0550,-0.6853,-0.6584,-0.0279
11.0710,-0.7107,-0.6508,-0.0374
11.0710,-0.7107,-0.6508,-0.0374
11.0710,-0.7107,-0.6508,-0.0374
11.0910,-0.7051,-0.6701,-0.0433
11.0910,-0.7051,-0.6701,-0.0433
11.0910,-0.7051,-0.6701,-0.0433
11.1130,-0.7207,-0.6902,-0.0310
11.1140,-0.7207,-0.6902,-0.0310
11.1140,-0.7207,-0.6902,-0.0310
11.1310,-0.7324,-0.6826,-0.0276
11.1320,-0.7324,-0.6826,-0.0276
11.1320,-0.7324,-0.6826,-0.0276
11.1350,-0.7324,-0.6826,-0.0276
11.1360,-0.7324,-0.6826,-0.0276
11.1500,-0.7295,-0.6672,-0.0335
11.1510,-0.7295,-0.6672,-0.0335
11.1510,-0.7295,-0.6672,-0.0335
11.1620,-0.7295,-0.6672,-0.0335
11.1700,-0.7092,-0.6677,-0.0452
11.1710,-0.7092,-0.6677,-0.0452
11.1710,-0.7092,-0.6677,-0.0452
11.1910,-0.7036,-0.6704,-0.0689
11.1910,-0.7036,-0.6704,-0.0689
11.1910,-0.7036,-0.6704,-0.0689
11.2140,-0.7087,-0.6750,-0.0616
11.2150,-0.7087,-0.6750,-0.0616
11.2160,-0.7087,-0.6750,-0.0616
11.2160,-0.7087,-0.6750,-0.0616
11.2170,-0.7087,-0.6750,-0.0616
11.2310,-0.7141,-0.6711,-0.0452
11.2320,-0.7141,-0.6711,-0.0452
11.2320,-0.7141,-0.6711,-0.0452
11.2510,-0.7063,-0.6613,-0.0391
11.2520,-0.7063,-0.6613,-0.0391
11.2550,-0.7063,-0.6613,-0.0391
11.2720,-0.7097,-0.6601,-0.0447
11.2720,-0.7097,-0.6601,-0.0447
11.2730,-0.7097,-0.6601,-0.0447
11.2940,-0.7173,-0.6674,-0.0428
11.2940,-0.7173,-0.6674,-0.0428
11.2950,-0.7173,-0.6674,-0.0428
11.2960,-0.7173,-0.6674,-0.0428
11.2960,-0.7173,-0.6674,-0.0428
11.3100,-0.7219,-0.6750,-0.0423
11.3110,-0.7219,-0.6750,-0.0423
11.3120,-0.7219,-0.6750,-0.0423
11.3310,-0.7356,-0.6772,-0.0467
11.3310,-0.7356,-0.6772,-0.0467
11.3320,-0.7356,-0.6772,-0.0467
11.3520,-0.7197,-0.6694,-0.0587
11.3530,-0.7197,-0.6694,-0.0587
11.3530,-0.7197,-0.6694,-0.0587
11.3590,-0.7197,-0.6694,-0.0587
11.3710,-0.7244,-0.6669,-0.0530
11.3720,-0.7244,-0.6669,-0.0530
11.3720,-0.7244,-0.6669,-0.0530
11.3730,-0.7244,-0.6669,-0.0530
11.3730,-0.7244,-0.6669,-0.0530
11.3900,-0.7417,-0.6730,-0.0433
11.3900,-0.7417,-0.6730,-0.0433
11.3910,-0.7417,-0.6730,-0.0433
11.4100,-0.7356,-0.6738,-0.0472
11.4110,-0.7356,-0.6738,-0.0472
11.4120,-0.7356,-0.6738,-0.0472
11.4320,-0.7205,-0.6665,-0.0459
11.4340,-0.7205,-0.6665,-0.0459
11.4360,-0.7205,-0.6665,-0.0459
11.4510,-0.7144,-0.6645,-0.0540
11.4520,-0.7144,-0.6645,-0.0540
11.4520,-0.7144,-0.6645,-0.0540
11.4530,-0.7144,-0.6645,-0.0540
11.4530,-0.7144,-0.6645,-0.0540
11.4730,-0.7065,-0.6689,-0.0418
11.4730,-0.7065,-0.6689,-0.0418
11.4740,-0.7065,-0.6689,-0.0418
11.4900,-0.7082,-0.6672,-0.0415
11.4910,-0.7082,-0.6672,-0.0415
11.4910,-0.7082,-0.6672,-0.0415
11.5140,-0.7053,-0.6638,-0.0506
11.5150,-0.7053,-0.6638,-0.0506
11.5150,-0.7053,-0.6638,-0.0506
11.5300,-0.7048,-0.6674,-0.0472
11.5310,-0.7048,-0.6674,-0.0472
11.5320,-0.7048,-0.6674,-0.0472
11.6030,-0.7048,-0.6674,-0.0472
11.6030,-0.7048,-0.6674,-0.0472
11.6030,-0.7104,-0.6633,-0.0393
11.6040,-0.7104,-0.6633,-0.0393
11.6040,-0.7104,-0.6633,-0.0393
11.6040,-0.7104,-0.6633,-0.0393
11.6040,-0.7148,-0.6635,-0.0459
11.6050,-0.7148,-0.6635,-0.0459
11.6050,-0.7148,-0.6635,-0.0459
11.6050,-0.6958,-0.6723,-0.0709
11.6050,-0.6958,-0.6723,-0.0709
11.6050,-0.6958,-0.6723,-0.0709
11.6070,-0.7163,-0.6840,-0.0582
11.6070,-0.7163,-0.6840,-0.0582
11.6080,-0.7163,-0.6840,-0.0582
11.6090,-0.7163,-0.6840,-0.0582
11.6100,-0.7163,-0.6840,-0.0582
11.6280,-0.7361,-0.6674,-0.0467
11.6280,-0.7361,-0.6674,-0.0467
11.6280,-0.7361,-0.6674,-0.0467
11.6470,-0.7190,-0.6572,-0.0381
11.6470,-0.7190,-0.6572,-0.0381
11.6470,-0.7190,-0.6572,-0.0381
11.6680,-0.7107,-0.6630,-0.0464
11.6680,-0.7107,-0.6630,-0.0464
11.6690,-0.7107,-0.6630,-0.0464
11.6870,-0.7151,-0.6638,-0.0499
11.6870,-0.7151,-0.6638,-0.0499
11.6880,-0.7151,-0.6638,-0.0499
11.6900,-0.7151,-0.6638,-0.0499
11.6900,-0.7151,-0.6638,-0.0499
11.7080,-0.7356,-0.6718,-0.0393
11.7080,-0.7356,-0.6718,-0.0393
11.7090,-0.7356,-0.6718,-0.0393
11.7290,-0.7266,-0.6777,-0.0464
11.7300,-0.7266,-0.6777,-0.0464
11.7300,-0.7266,-0.6777,-0.0464
11.7500,-0.7068,-0.6765,-0.0543
11.7500,-0.7068,-0.6765,-0.0543
11.7520,-0.7068,-0.6765,-0.0543
11.7570,-0.7068,-0.6765,-0.0543
11.7700,-0.7190,-0.6647,-0.0555
11.7720,-0.7190,-0.6647,-0.0555
11.7720,-0.7190,-0.6647,-0.0555
11.7730,-0.7190,-0.6647,-0.0555
11.7740,-0.7190,-0.6647,-0.0555
11.7890,-0.7170,-0.6625,-0.0452
11.7900,-0.7170,-0.6625,-0.0452
11.7910,-0.7170,-0.6625,-0.0452
11.8090,-0.7075,-0.6738,-0.0313
11.8100,-0.7075,-0.6738,-0.0313
11.8100,-0.7075,-0.6738,-0.0313
11.8320,-0.7056,-0.6672,-0.0335
11.8340,-0.7056,-0.6672,-0.0335
11.8340,-0.7056,-0.6672,-0.0335
11.8500,-0.7041,-0.6687,-0.0494
11.8510,-0.7041,-0.6687,-0.0494
11.8520,-0.7041,-0.6687,-0.0494
11.8530,-0.7041,-0.6687,-0.0494
11.8530,-0.7041,-0.6687,-0.0494
11.8680,-0.7131,-0.6860,-0.0381
11.8690,-0.7131,-0.6860,-0.0381
11.8690,-0.7131,-0.6860,-0.0381
11.8900,-0.7148,-0.6787,-0.0418
11.8910,-0.7148,-0.6787,-0.0418
11.8920,-0.7148,-0.6787,-0.0418
11.9090,-0.7136,-0.6647,-0.0469
11.9090,-0.7136,-0.6647,-0.0469
11.9100,-0.7136,-0.6647,-0.0469
11.9310,-0.7087,-0.6660,-0.0447
11.9320,-0.7087,-0.6660,-0.0447
11.9320,-0.7087,-0.6660,-0.0447
11.9330,-0.7087,-0.6660,-0.0447
11.9330,-0.7087,-0.6660,-0.0447
11.9500,-0.7100,-0.6665,-0.0472
11.9500,-0.7100,-0.6665,-0.0472
11.9530,-0.7100,-0.6665,-0.0472
11.9560,-0.7100,-0.6665,-0.0472
11.9710,-0.7266,-0.6525,-0.0489
11.9720,-0.7266,-0.6525,-0.0489
11.9730,-0.7266,-0.6525,-0.0489
11.9890,-0.7400,-0.6621,-0.0442
11.9900,-0.7400,-0.6621,-0.0442
11.9910,-0.7400,-0.6621,-0.0442
12.0090,-0.7197,-0.6840,-0.0469
12.0100,-0.7197,-0.6840,-0.0469
12.0100,-0.7197,-0.6840,-0.0469
12.0120,-0.7197,-0.6840,-0.0469
12.0120,-0.7197,-0.6840,-0.0469
12.0300,-0.7097,-0.6826,-0.0457
12.0330,-0.7097,-0.6826,-0.0457
12.0340,-0.7097,-0.6826,-0.0457
12.0470,-0.7136,-0.6608,-0.0591
12.0480,-0.7136,-0.6608,-0.0591
12.0510,-0.7136,-0.6608,-0.0591
12.0720,-0.7100,-0.6491,-0.0503
12.0720,-0.7100,-0.6491,-0.0503
12.0730,-0.7100,-0.6491,-0.0503
12.0860,-0.7048,-0.6537,-0.0408
12.0870,-0.7048,-0.6537,-0.0408
12.1700,-0.7048,-0.6537,-0.0408
12.1710,-0.7048,-0.6537,-0.0408
12.1710,-0.7048,-0.6537,-0.0408
12.1710,-0.6992,-0.6660,-0.0371
12.1710,-0.6992,-0.6660,-0.0371
12.1710,-0.6992,-0.6660,-0.0371
12.1710,-0.6916,-0.6862,-0.0240
12.1710,-0.6916,-0.6862,-0.0240
12.1710,-0.6916,-0.6862,-0.0240
12.1720,-0.7219,-0.7146,-0.0308
12.1720,-0.7219,-0.7146,-0.0308
12.1720,-0.7219,-0.7146,-0.0308
12.1720,-0.7219,-0.7146,-0.0308
12.1720,-0.7317,-0.7373,-0.0381
12.1720,-0.7317,-0.7373,-0.0381
12.1720,-0.7317,-0.7373,-0.0381
12.1730,-0.7317,-0.7373,-0.0381
12.1730,-0.7317,-0.7373,-0.0381
12.1840,-0.7280,-0.7246,-0.0477
12.1850,-0.7280,-0.7246,-0.0477
12.1850,-0.7280,-0.7246,-0.0477
12.2050,-0.7263,-0.6894,-0.0391
12.2050,-0.7263,-0.6894,-0.0391
12.2050,-0.7263,-0.6894,-0.0391
12.2240,-0.7354,-0.6601,-0.0511
12.2250,-0.7354,-0.6601,-0.0511
12.2250,-0.7354,-0.6601,-0.0511
12.2480,-0.7185,-0.6518,-0.0496
12.2480,-0.7185,-0.6518,-0.0496
12.2480,-0.7185,-0.6518,-0.0496
12.2480,-0.7185,-0.6518,-0.0496
12.2480,-0.7185,-0.6518,-0.0496
12.2650,-0.6916,-0.6393,-0.0330
12.2650,-0.6916,-0.6393,-0.0330
12.2650,-0.6916,-0.6393,-0.0330
12.2900,-0.6838,-0.6298,-0.0303
12.2900,-0.6838,-0.6298,-0.0303
12.2910,-0.6838,-0.6298,-0.0303
12.3090,-0.6823,-0.6445,-0.0323
12.3090,-0.6823,-0.6445,-0.0323
12.3100,-0.6823,-0.6445,-0.0323
12.3250,-0.7021,-0.6743,-0.0323
12.3250,-0.7021,-0.6743,-0.0323
12.3260,-0.7021,-0.6743,-0.0323
12.3280,-0.7021,-0.6743,-0.0323
12.3290,-0.7021,-0.6743,-0.0323
12.3470,-0.7041,-0.6941,-0.0274
12.3470,-0.7041,-0.6941,-0.0274
12.3470,-0.7041,-0.6941,-0.0274
12.3510,-0.7041,-0.6941,-0.0274
12.3640,-0.7236,-0.6870,-0.0174
12.3640,-0.7236,-0.6870,-0.0174
12.3640,-0.7236,-0.6870,-0.0174
12.3850,-0.7319,-0.6603,-0.0247
12.3860,-0.7319,-0.6603,-0.0247
12.3860,-0.7319,-0.6603,-0.0247
12.4060,-0.7190,-0.6591,-0.0367
12.4070,-0.7190,-0.6591,-0.0367
12.4070,-0.7190,-0.6591,-0.0367
12.4120,-0.7190,-0.6591,-0.0367
12.4120,-0.7190,-0.6591,-0.0367
12.4260,-0.7043,-0.6691,-0.0347
12.4260,-0.7043,-0.6691,-0.0347
12.4260,-0.7043,-0.6691,-0.0347
12.4470,-0.6975,-0.6796,-0.0296
12.4470,-0.6975,-0.6796,-0.0296
12.4470,-0.6975,-0.6796,-0.0296
12.4640,-0.7031,-0.6818,-0.0420
12.4650,-0.7031,-0.6818,-0.0420
12.4650,-0.7031,-0.6818,-0.0420
12.4860,-0.7134,-0.6701,-0.0430
12.4860,-0.7134,-0.6701,-0.0430
12.4860,-0.7134,-0.6701,-0.0430
12.4880,-0.7134,-0.6701,-0.0430
12.4880,-0.7134,-0.6701,-0.0430
12.5060,-0.7376,-0.6682,-0.0349
12.5060,-0.7376,-0.6682,-0.0349
12.5060,-0.7376,-0.6682,-0.0349
12.5260,-0.7266,-0.6728,-0.0391
12.5270,-0.7266,-0.6728,-0.0391
12.5270,-0.7266,-0.6728,-0.0391
12.5470,-0.7229,-0.6713,-0.0428
12.5470,-0.7229,-0.6713,-0.0428
12.5480,-0.7229,-0.6713,-0.0428
12.5510,-0.7229,-0.6713,-0.0428
12.5660,-0.7234,-0.6601,-0.0330
12.5660,-0.7234,-0.6601,-0.0330
12.5670,-0.7234,-0.6601,-0.0330
12.5700,-0.7234,-0.6601,-0.0330
12.5700,-0.7234,-0.6601,-0.0330
12.5830,-0.7019,-0.6630,-0.0244
12.5840,-0.7019,-0.6630,-0.0244
12.5840,-0.7019,-0.6630,-0.0244
12.6050,-0.6943,-0.6735,-0.0283
12.6050,-0.6943,-0.6735,-0.0283
12.6050,-0.6943,-0.6735,-0.0283
12.6240,-0.7092,-0.6728,-0.0345
12.6240,-0.7092,-0.6728,-0.0345
12.6250,-0.7092,-0.6728,-0.0345
12.6470,-0.7173,-0.6672,-0.0445
12.6960,-0.7173,-0.6672,-0.0445
12.6960,-0.7173,-0.6672,-0.0445
12.6960,-0.7173,-0.6672,-0.0445
12.6960,-0.7173,-0.6672,-0.0445
12.6960,-0.7307,-0.6633,-0.0481
12.6960,-0.7307,-0.6633,-0.0481
12.6960,-0.7307,-0.6633,-0.0481
12.6960,-0.7327,-0.6704,-0.0467
12.6970,-0.7327,-0.6704,-0.0467
12.6970,-0.7327,-0.6704,-0.0467
12.7030,-0.7080,-0.6713,-0.0457
12.7030,-0.7080,-0.6713,-0.0457
12.7030,-0.7080,-0.6713,-0.0457
12.7220,-0.6906,-0.6694,-0.0335
12.7220,-0.6906,-0.6694,-0.0335
12.7220,-0.6906,-0.6694,-0.0335
12.7250,-0.6906,-0.6694,-0.0335
12.7250,-0.6906,-0.6694,-0.0335
12.7440,-0.6963,-0.6630,-0.0340
12.7440,-0.6963,-0.6630,-0.0340
12.7440,-0.6963,-0.6630,-0.0340
12.7480,-0.6963,-0.6630,-0.0340
12.7620,-0.7219,-0.6559,-0.0029
12.7620,-0.7219,-0.6559,-0.0029
12.7630,-0.7219,-0.6559,-0.0029
12.7820,-0.7517,-0.6662,0.0071
12.7820,-0.7517,-0.6662,0.0071
12.7820,-0.7517,-0.6662,0.0071
12.8020,-0.7637,-0.6887,-0.0269
12.8030,-0.7637,-0.6887,-0.0269
12.8040,-0.7637,-0.6887,-0.0269
12.8050,-0.7637,-0.6887,-0.0269
12.8060,-0.7637,-0.6887,-0.0269
12.8220,-0.7300,-0.6965,-0.0508
12.8230,-0.7300,-0.6965,-0.0508
12.8230,-0.7300,-0.6965,-0.0508
12.8460,-0.7427,-0.6750,-0.0413
12.8470,-0.7427,-0.6750,-0.0413
12.8480,-0.7427,-0.6750,-0.0413
12.8640,-0.7405,-0.6449,-0.0335
12.8670,-0.7405,-0.6449,-0.0335
12.8680,-0.7405,-0.6449,-0.0335
12.8820,-0.7041,-0.6498,-0.0511
12.8830,-0.7041,-0.6498,-0.0511
12.8830,-0.7041,-0.6498,-0.0511
12.8840,-0.7041,-0.6498,-0.0511
12.8860,-0.7041,-0.6498,-0.0511
12.9030,-0.6770,-0.6696,-0.0565
12.9030,-0.6770,-0.6696,-0.0565
12.9040,-0.6770,-0.6696,-0.0565
12.9290,-0.6743,-0.6628,-0.0604
12.9300,-0.6743,-0.6628,-0.0604
12.9310,-0.6743,-0.6628,-0.0604
12.9430,-0.7173,-0.6489,-0.0386
12.9440,-0.7173,-0.6489,-0.0386
12.9460,-0.7173,-0.6489,-0.0386
12.9470,-0.7173,-0.6489,-0.0386
12.9660,-0.7486,-0.6518,-0.0279
12.9660,-0.7486,-0.6518,-0.0279
12.9670,-0.7486,-0.6518,-0.0279
12.9680,-0.7486,-0.6518,-0.0279
12.9680,-0.7486,-0.6518,-0.0279
12.9830,-0.7087,-0.6696,-0.0494
12.9840,-0.7087,-0.6696,-0.0494
12.9840,-0.7087,-0.6696,-0.0494
13.0020,-0.7117,-0.6669,-0.0616
13.0030,-0.7117,-0.6669,-0.0616
13.0030,-0.7117,-0.6669,-0.0616
13.0220,-0.7170,-0.6545,-0.0450
13.0230,-0.7170,-0.6545,-0.0450
13.0230,-0.7170,-0.6545,-0.0450
13.0420,-0.7114,-0.6489,-0.0386
13.0440,-0.7114,-0.6489,-0.0386
13.0480,-0.7114,-0.6489,-0.0386
13.0490,-0.7114,-0.6489,-0.0386
13.0520,-0.7114,-0.6489,-0.0386
13.0610,-0.7056,-0.6535,-0.0381
13.0610,-0.7056,-0.6535,-0.0381
13.0620,-0.7056,-0.6535,-0.0381
13.0790,-0.7131,-0.6618,-0.0369
13.0800,-0.7131,-0.6618,-0.0369
13.0800,-0.7131,-0.6618,-0.0369
13.1000,-0.7202,-0.6674,-0.0423
13.1010,-0.7202,-0.6674,-0.0423
13.1010,-0.7202,-0.6674,-0.0423
13.1220,-0.7261,-0.6608,-0.0369
13.1240,-0.7261,-0.6608,-0.0369
13.1240,-0.7261,-0.6608,-0.0369
13.1300,-0.7261,-0.6608,-0.0369
13.1310,-0.7261,-0.6608,-0.0369
13.1400,-0.7654,-0.6550,-0.0291
13.1410,-0.7654,-0.6550,-0.0291
13.1410,-0.7654,-0.6550,-0.0291
13.1480,-0.7654,-0.6550,-0.0291
13.1590,-0.7407,-0.6623,-0.0310
13.1590,-0.7407,-0.6623,-0.0310
13.1600,-0.7407,-0.6623,-0.0310
13.1800,-0.7417,-0.6655,-0.0357
13.1810,-0.7417,-0.6655,-0.0357
13.1810,-0.7417,-0.6655,-0.0357
13.2700,-0.7195,-0.6618,-0.0477
13.2700,-0.7195,-0.6618,-0.0477
13.2710,-0.7195,-0.6618,-0.0477
13.2710,-0.7195,-0.6618,-0.0477
13.2710,-0.7195,-0.6618,-0.0477
13.2710,-0.7144,-0.6657,-0.0391
13.2710,-0.7144,-0.6657,-0.0391
13.2720,-0.7144,-0.6657,-0.0391
13.2720,-0.7190,-0.6611,-0.0415
13.2720,-0.7190,-0.6611,-0.0415
13.2720,-0.7190,-0.6611,-0.0415
13.2720,-0.7097,-0.6603,-0.0335
13.2720,-0.7097,-0.6603,-0.0335
13.2720,-0.7097,-0.6603,-0.0335
13.2770,-0.7131,-0.6618,-0.0386
13.2770,-0.7131,-0.6618,-0.0386
13.2770,-0.7131,-0.6618,-0.0386
13.2800,-0.7131,-0.6618,-0.0386
13.2800,-0.7131,-0.6618,-0.0386
13.2970,-0.7158,-0.6625,-0.0359
13.2970,-0.7158,-0.6625,-0.0359
13.2970,-0.7158,-0.6625,-0.0359
13.3170,-0.7224,-0.6652,-0.0364
13.3170,-0.7224,-0.6652,-0.0364
13.3170,-0.7224,-0.6652,-0.0364
13.3370,-0.7131,-0.6706,-0.0403
13.3370,-0.7131,-0.6706,-0.0403
13.3380,-0.7131,-0.6706,-0.0403
13.3440,-0.7131,-0.6706,-0.0403
13.3610,-0.7151,-0.6635,-0.0459
13.3610,-0.7151,-0.6635,-0.0459
13.3620,-0.7151,-0.6635,-0.0459
13.3630,-0.7151,-0.6635,-0.0459
13.3630,-0.7151,-0.6635,-0.0459
13.3770,-0.7183,-0.6513,-0.0413
13.3770,-0.7183,-0.6513,-0.0413
13.3780,-0.7183,-0.6513,-0.0413
13.3990,-0.7315,-0.6533,-0.0396
13.3990,-0.7315,-0.6533,-0.0396
13.4000,-0.7315,-0.6533,-0.0396
13.4160,-0.7378,-0.6606,-0.0288
13.4170,-0.7378,-0.6606,-0.0288
13.4170,-0.7378,-0.6606,-0.0288
13.4390,-0.7493,-0.6645,-0.0296
13.4400,-0.7493,-0.6645,-0.0296
13.4410,-0.7493,-0.6645,-0.0296
13.4420,-0.7493,-0.6645,-0.0296
13.4420,-0.7493,-0.6645,-0.0296
13.4570,-0.7471,-0.6696,-0.0521
13.4580,-0.7471,-0.6696,-0.0521
13.4580,-0.7471,-0.6696,-0.0521
13.4760,-0.7275,-0.6716,-0.0452
13.4770,-0.7275,-0.6716,-0.0452
13.4770,-0.7275,-0.6716,-0.0452
13.4960,-0.7288,-0.6594,-0.0332
13.4970,-0.7288,-0.6594,-0.0332
13.4970,-0.7288,-0.6594,-0.0332
13.5180,-0.7234,-0.6533,-0.0437
13.5200,-0.7234,-0.6533,-0.0437
13.5200,-0.7234,-0.6533,-0.0437
13.5210,-0.7234,-0.6533,-0.0437
13.5210,-0.7234,-0.6533,-0.0437
13.5390,-0.7139,-0.6679,-0.0459
13.5400,-0.7139,-0.6679,-0.0459
13.5400,-0.7139,-0.6679,-0.0459
13.5430,-0.7139,-0.6679,-0.0459
13.5570,-0.7024,-0.6677,-0.0374
13.5580,-0.7024,-0.6677,-0.0374
13.5580,-0.7024,-0.6677,-0.0374
13.5770,-0.7021,-0.6520,-0.0459
13.5770,-0.7021,-0.6520,-0.0459
13.5780,-0.7021,-0.6520,-0.0459
13.5960,-0.7258,-0.6584,-0.0403
13.5970,-0.7258,-0.6584,-0.0403
13.5970,-0.7258,-0.6584,-0.0403
13.5980,-0.7258,-0.6584,-0.0403
13.5980,-0.7258,-0.6584,-0.0403
13.6160,-0.7356,-0.6694,-0.0286
13.6160,-0.7356,-0.6694,-0.0286
13.6170,-0.7356,-0.6694,-0.0286
13.6370,-0.7293,-0.6616,-0.0274
13.6370,-0.7293,-0.6616,-0.0274
13.6390,-0.7293,-0.6616,-0.0274
13.6570,-0.7288,-0.6496,-0.0396
13.6570,-0.7288,-0.6496,-0.0396
13.6580,-0.7288,-0.6496,-0.0396
13.6750,-0.7082,-0.6581,-0.0540
13.6760,-0.7082,-0.6581,-0.0540
13.6760,-0.7082,-0.6581,-0.0540
13.6780,-0.7082,-0.6581,-0.0540
13.6780,-0.7082,-0.6581,-0.0540
13.6950,-0.7012,-0.6704,-0.0547
13.6960,-0.7012,-0.6704,-0.0547
13.6960,-0.7012,-0.6704,-0.0547
13.7150,-0.7200,-0.6599,-0.0518
13.7150,-0.7200,-0.6599,-0.0518
13.7160,-0.7200,-0.6599,-0.0518
13.7340,-0.7317,-0.6550,-0.0369
13.7350,-0.7317,-0.6550,-0.0369
13.7350,-0.7317,-0.6550,-0.0369
13.8190,-0.7317,-0.6550,-0.0369
13.8190,-0.7271,-0.6567,-0.0401
13.8200,-0.7271,-0.6567,-0.0401
13.8200,-0.7271,-0.6567,-0.0401
13.8200,-0.7271,-0.6567,-0.0401
13.8200,-0.7271,-0.6567,-0.0401
13.8210,-0.7239,-0.6520,-0.0411
13.8210,-0.7239,-0.6520,-0.0411
13.8210,-0.7239,-0.6520,-0.0411
13.8220,-0.7219,-0.6586,-0.0303
13.8220,-0.7219,-0.6586,-0.0303
13.8220,-0.7219,-0.6586,-0.0303
13.8220,-0.7253,-0.6662,-0.0330
13.8220,-0.7253,-0.6662,-0.0330
13.8230,-0.7253,-0.6662,-0.0330
13.8340,-0.7302,-0.6640,-0.0557
13.8340,-0.7302,-0.6640,-0.0557
13.8340,-0.7302,-0.6640,-0.0557
13.8370,-0.7302,-0.6640,-0.0557
13.8370,-0.7302,-0.6640,-0.0557
13.8530,-0.7478,-0.6679,-0.0591
13.8530,-0.7478,-0.6679,-0.0591
13.8530,-0.7478,-0.6679,-0.0591
13.8740,-0.7698,-0.6623,-0.0296
13.8740,-0.7698,-0.6623,-0.0296
13.8740,-0.7698,-0.6623,-0.0296
13.8930,-0.7439,-0.6418,-0.0393
13.8940,-0.7439,-0.6418,-0.0393
13.8940,-0.7439,-0.6418,-0.0393
13.9140,-0.7139,-0.6371,-0.0569
13.9150,-0.7139,-0.6371,-0.0569
13.9160,-0.7139,-0.6371,-0.0569
13.9170,-0.7139,-0.6371,-0.0569
13.9170,-0.7139,-0.6371,-0.0569
13.9330,-0.7207,-0.6569,-0.0499
13.9340,-0.7207,-0.6569,-0.0499
13.9340,-0.7207,-0.6569,-0.0499
13.9400,-0.7207,-0.6569,-0.0499
13.9530,-0.7222,-0.6708,-0.0330
13.9530,-0.7222,-0.6708,-0.0330
13.9540,-0.7222,-0.6708,-0.0330
13.9730,-0.7041,-0.6699,-0.0281
13.9730,-0.7041,-0.6699,-0.0281
13.9740,-0.7041,-0.6699,-0.0281
13.9940,-0.7219,-0.6579,-0.0083
13.9940,-0.7219,-0.6579,-0.0083
13.9950,-0.7219,-0.6579,-0.0083
13.9950,-0.7219,-0.6579,-0.0083
13.9960,-0.7219,-0.6579,-0.0083
14.0130,-0.7329,-0.6594,-0.0657
14.0130,-0.7329,-0.6594,-0.0657
14.0140,-0.7329,-0.6594,-0.0657
14.0330,-0.7317,-0.6652,-0.0565
14.0340,-0.7317,-0.6652,-0.0565
14.0350,-0.7317,-0.6652,-0.0565
14.0530,-0.7139,-0.6537,-0.0457
14.0530,-0.7139,-0.6537,-0.0457
14.0540,-0.7139,-0.6537,-0.0457
14.0730,-0.7034,-0.6481,-0.0670
14.0740,-0.7034,-0.6481,-0.0670
14.0750,-0.7034,-0.6481,-0.0670
14.0760,-0.7034,-0.6481,-0.0670
14.0760,-0.7034,-0.6481,-0.0670
14.0940,-0.7293,-0.6503,-0.0499
14.0950,-0.7293,-0.6503,-0.0499
14.0950,-0.7293,-0.6503,-0.0499
14.1120,-0.7231,-0.6423,-0.0279
14.1130,-0.7231,-0.6423,-0.0279
14.1130,-0.7231,-0.6423,-0.0279
14.1390,-0.7412,-0.6467,-0.0335
14.1410,-0.7412,-0.6467,-0.0335
14.1410,-0.7412,-0.6467,-0.0335
14.1420,-0.7412,-0.6467,-0.0335
14.1540,-0.7791,-0.6611,-0.0342
14.1550,-0.7791,-0.6611,-0.0342
14.1550,-0.7791,-0.6611,-0.0342
14.1560,-0.7791,-0.6611,-0.0342
14.1560,-0.7791,-0.6611,-0.0342
14.1730,-0.7752,-0.6540,-0.0452
14.1740,-0.7752,-0.6540,-0.0452
14.1740,-0.7752,-0.6540,-0.0452
14.1950,-0.7146,-0.6361,-0.0816
14.1950,-0.7146,-0.6361,-0.0816
14.1960,-0.7146,-0.6361,-0.0816
14.2130,-0.6804,-0.6322,-0.0811
14.2140,-0.6804,-0.6322,-0.0811
14.2160,-0.6804,-0.6322,-0.0811
14.2330,-0.6916,-0.6564,-0.0523
14.2330,-0.6916,-0.6564,-0.0523
14.2340,-0.6916,-0.6564,-0.0523
14.2350,-0.6916,-0.6564,-0.0523
14.2360,-0.6916,-0.6564,-0.0523
14.2520,-0.7310,-0.6667,-0.0389
14.2530,-0.7310,-0.6667,-0.0389
14.2540,-0.7310,-0.6667,-0.0389
14.2730,-0.7635,-0.6625,-0.0220
14.2740,-0.7635,-0.6625,-0.0220
14.2750,-0.7635,-0.6625,-0.0220
14.2950,-0.7535,-0.6591,-0.0327
14.2950,-0.7535,-0.6591,-0.0327
14.3810,-0.7535,-0.6591,-0.0327
14.3820,-0.6982,-0.6564,-0.0618
14.3820,-0.6982,-0.6564,-0.0618
14.3820,-0.6982,-0.6564,-0.0618
14.3820,-0.6982,-0.6564,-0.0618
14.3820,-0.6982,-0.6564,-0.0618
14.3830,-0.6968,-0.6638,-0.0638
14.3830,-0.6968,-0.6638,-0.0638
14.3830,-0.6968,-0.6638,-0.0638
14.3830,-0.6968,-0.6638,-0.0638
14.3840,-0.7029,-0.6630,-0.0408
14.3840,-0.7029,-0.6630,-0.0408
14.3840,-0.7029,-0.6630,-0.0408
14.3850,-0.7415,-0.6652,-0.0330
14.3850,-0.7415,-0.6652,-0.0330
14.3850,-0.7415,-0.6652,-0.0330
14.3910,-0.7403,-0.6618,-0.0545
14.3910,-0.7403,-0.6618,-0.0545
14.3910,-0.7403,-0.6618,-0.0545
14.3930,-0.7403,-0.6618,-0.0545
14.3930,-0.7403,-0.6618,-0.0545
14.4100,-0.7085,-0.6603,-0.0528
14.4110,-0.7085,-0.6603,-0.0528
14.4110,-0.7085,-0.6603,-0.0528
14.4300,-0.7117,-0.6584,-0.0501
14.4300,-0.7117,-0.6584,-0.0501
14.4300,-0.7117,-0.6584,-0.0501
14.4500,-0.7310,-0.6584,-0.0381
14.4500,-0.7310,-0.6584,-0.0381
14.4500,-0.7310,-0.6584,-0.0381
14.4690,-0.7207,-0.6508,-0.0411
14.4690,-0.7207,-0.6508,-0.0411
14.4700,-0.7207,-0.6508,-0.0411
14.4720,-0.7207,-0.6508,-0.0411
14.4720,-0.7207,-0.6508,-0.0411
14.4890,-0.7310,-0.6459,-0.0469
14.4900,-0.7310,-0.6459,-0.0469
14.4900,-0.7310,-0.6459,-0.0469
14.5110,-0.7500,-0.6537,-0.0401
14.5120,-0.7500,-0.6537,-0.0401
14.5130,-0.7500,-0.6537,-0.0401
14.5310,-0.7415,-0.6630,-0.0709
14.5320,-0.7415,-0.6630,-0.0709
14.5330,-0.7415,-0.6630,-0.0709
14.5340,-0.7415,-0.6630,-0.0709
14.5500,-0.7317,-0.6616,-0.0838
14.5510,-0.7317,-0.6616,-0.0838
14.5520,-0.7317,-0.6616,-0.0838
14.5530,-0.7317,-0.6616,-0.0838
14.5530,-0.7317,-0.6616,-0.0838
14.5710,-0.7207,-0.6594,-0.0579
14.5720,-0.7207,-0.6594,-0.0579
14.5750,-0.7207,-0.6594,-0.0579
14.5890,-0.7322,-0.6542,-0.0330
14.5900,-0.7322,-0.6542,-0.0330
14.5920,-0.7322,-0.6542,-0.0330
14.5940,-0.7322,-0.6542,-0.0330
14.6130,-0.7319,-0.6474,-0.0403
14.6130,-0.7319,-0.6474,-0.0403
14.6140,-0.7319,-0.6474,-0.0403
14.6330,-0.7234,-0.6496,-0.0616
14.6340,-0.7234,-0.6496,-0.0616
14.6340,-0.7234,-0.6496,-0.0616
14.6350,-0.7234,-0.6496,-0.0616
14.6350,-0.7234,-0.6496,-0.0616
14.6500,-0.7183,-0.6621,-0.0819
14.6510,-0.7183,-0.6621,-0.0819
14.6520,-0.7183,-0.6621,-0.0819
14.6710,-0.7197,-0.6574,-0.0868
14.6730,-0.7197,-0.6574,-0.0868
14.6740,-0.7197,-0.6574,-0.0868
14.6950,-0.7146,-0.6445,-0.0692
14.6960,-0.7146,-0.6445,-0.0692
14.6970,-0.7146,-0.6445,-0.0692
14.7100,-0.7256,-0.6577,-0.0711
14.7100,-0.7256,-0.6577,-0.0711
14.7100,-0.7256,-0.6577,-0.0711
14.7140,-0.7256,-0.6577,-0.0711
14.7140,-0.7256,-0.6577,-0.0711
14.7280,-0.7405,-0.6557,-0.0885
14.7280,-0.7405,-0.6557,-0.0885
14.7280,-0.7405,-0.6557,-0.0885
14.7330,-0.7405,-0.6557,-0.0885
14.7500,-0.7454,-0.6506,-0.1017
14.7500,-0.7454,-0.6506,-0.1017
14.7500,-0.7454,-0.6506,-0.1017
14.7670,-0.7420,-0.6432,-0.0985
14.7680,-0.7420,-0.6432,-0.0985
14.7680,-0.7420,-0.6432,-0.0985
14.7880,-0.7014,-0.6437,-0.0799
14.7880,-0.7014,-0.6437,-0.0799
14.7880,-0.7014,-0.6437,-0.0799
14.7900,-0.7014,-0.6437,-0.0799
14.7910,-0.7014,-0.6437,-0.0799
14.8070,-0.7185,-0.6577,-0.0841
14.8070,-0.7185,-0.6577,-0.0841
14.8070,-0.7185,-0.6577,-0.0841
14.8280,-0.7158,-0.6633,-0.0811
14.8280,-0.7158,-0.6633,-0.0811
14.8310,-0.7158,-0.6633,-0.0811
14.8650,-0.6941,-0.6594,-0.0711
14.8650,-0.6941,-0.6594,-0.0711
14.8650,-0.6941,-0.6594,-0.0711
14.8670,-0.7200,-0.6730,-0.0643
14.8670,-0.7200,-0.6730,-0.0643
14.8680,-0.7200,-0.6730,-0.0643
14.8700,-0.7200,-0.6730,-0.0643
14.8700,-0.7200,-0.6730,-0.0643
14.8860,-0.7212,-0.6674,-0.0621
14.8860,-0.7212,-0.6674,-0.0621
14.8870,-0.7212,-0.6674,-0.0621
14.9070,-0.7158,-0.6630,-0.0782
14.9070,-0.7158,-0.6630,-0.0782
14.9070,-0.7158,-0.6630,-0.0782
14.9270,-0.7266,-0.6572,-0.0824
14.9270,-0.7266,-0.6572,-0.0824
14.9270,-0.7266,-0.6572,-0.0824
14.9320,-0.7266,-0.6572,-0.0824
14.9470,-0.7224,-0.6523,-0.0491
14.9470,-0.7224,-0.6523,-0.0491
14.9470,-0.7224,-0.6523,-0.0491
14.9500,-0.7224,-0.6523,-0.0491
14.9500,-0.7224,-0.6523,-0.0491
14.9660,-0.7439,-0.6584,-0.0247
14.9660,-0.7439,-0.6584,-0.0247
14.9660,-0.7439,-0.6584,-0.0247
14.9860,-0.7498,-0.6716,-0.0469
14.9860,-0.7498,-0.6716,-0.0469
14.9860,-0.7498,-0.6716,-0.0469
