
time,AccelerometerX,AccelerometerY,AccelerometerZ
0.0070,-0.1889,-0.9470,-0.2050
0.0070,-0.1889,-0.9470,-0.2050
0.0070,-0.1889,-0.9470,-0.2050
0.0210,-0.1696,-0.9873,-0.2268
0.0210,-0.1696,-0.9873,-0.2268
0.0220,-0.1696,-0.9873,-0.2268
0.0220,-0.1696,-0.9873,-0.2268
0.0220,-0.1696,-0.9873,-0.2268
0.0460,-0.2143,-0.9250,-0.2732
0.0460,-0.2143,-0.9250,-0.2732
0.0460,-0.2143,-0.9250,-0.2732
0.0540,-0.1664,-0.9079,-0.3133
0.0540,-0.1664,-0.9079,-0.3133
0.0540,-0.1664,-0.9079,-0.3133
0.0720,-0.1918,-0.9179,-0.3128
0.0720,-0.1918,-0.9179,-0.3128
0.0730,-0.1918,-0.9179,-0.3128
0.0920,-0.1848,-0.9016,-0.2801
0.0930,-0.1848,-0.9016,-0.2801
0.0930,-0.1848,-0.9016,-0.2801
0.0950,-0.1848,-0.9016,-0.2801
0.0950,-0.1848,-0.9016,-0.2801
0.1110,-0.1848,-0.9016,-0.2801
0.1120,-0.1188,-0.9074,-0.2872
0.1120,-0.1188,-0.9074,-0.2872
0.1130,-0.1188,-0.9074,-0.2872
0.1330,-0.1342,-0.9011,-0.2781
0.1330,-0.1342,-0.9011,-0.2781
0.1330,-0.1342,-0.9011,-0.2781
0.1530,-0.1554,-0.8876,-0.2632
0.1530,-0.1554,-0.8876,-0.2632
0.1530,-0.1554,-0.8876,-0.2632
0.1720,-0.1415,-0.8932,-0.2867
0.1730,-0.1415,-0.8932,-0.2867
0.1730,-0.1415,-0.8932,-0.2867
0.1750,-0.1415,-0.8932,-0.2867
0.1760,-0.1415,-0.8932,-0.2867
0.1920,-0.1496,-0.9025,-0.3016
0.1920,-0.1496,-0.9025,-0.3016
0.1920,-0.1496,-0.9025,-0.3016
0.2130,-0.1349,-0.9079,-0.3048
0.2130,-0.1349,-0.9079,-0.3048
0.2140,-0.1349,-0.9079,-0.3048
0.2330,-0.1246,-0.9165,-0.2940
0.2330,-0.1246,-0.9165,-0.2940
0.2330,-0.1246,-0.9165,-0.2940
0.2530,-0.1623,-0.9143,-0.2725
0.2530,-0.1623,-0.9143,-0.2725
0.2530,-0.1623,-0.9143,-0.2725
0.2530,-0.1623,-0.9143,-0.2725
0.2540,-0.1623,-0.9143,-0.2725
0.2720,-0.1593,-0.9116,-0.2500
0.2720,-0.1593,-0.9116,-0.2500
0.2730,-0.1593,-0.9116,-0.2500
0.2930,-0.1334,-0.9187,-0.2544
0.2930,-0.1334,-0.9187,-0.2544
0.2930,-0.1334,-0.9187,-0.2544
0.3100,-0.1334,-0.9187,-0.2544
0.3120,-0.1523,-0.9155,-0.2657
0.3120,-0.1523,-0.9155,-0.2657
0.3120,-0.1523,-0.9155,-0.2657
0.3310,-0.1877,-0.9104,-0.2661
0.3320,-0.1877,-0.9104,-0.2661
0.3320,-0.1877,-0.9104,-0.2661
0.3340,-0.1877,-0.9104,-0.2661
0.3340,-0.1877,-0.9104,-0.2661
0.3510,-0.1862,-0.9082,-0.2539
0.3520,-0.1862,-0.9082,-0.2539
0.3520,-0.1862,-0.9082,-0.2539
0.3720,-0.1806,-0.8908,-0.2583
0.3730,-0.1806,-0.8908,-0.2583
0.4000,-0.1806,-0.8908,-0.2583
0.4000,-0.1672,-0.8754,-0.2627
0.4000,-0.1672,-0.8754,-0.2627
0.4010,-0.1672,-0.8754,-0.2627
0.4120,-0.1628,-0.8803,-0.2405
0.4120,-0.1628,-0.8803,-0.2405
0.4120,-0.1628,-0.8803,-0.2405
0.4130,-0.1628,-0.8803,-0.2405
0.4130,-0.1628,-0.8803,-0.2405
0.4310,-0.1554,-0.8835,-0.2371
0.4310,-0.1554,-0.8835,-0.2371
0.4310,-0.1554,-0.8835,-0.2371
0.4520,-0.1036,-0.9578,-0.2463
0.4520,-0.1036,-0.9578,-0.2463
0.4530,-0.1036,-0.9578,-0.2463
0.4710,-0.1188,-1.0225,-0.2784
0.4710,-0.1188,-1.0225,-0.2784
0.4720,-0.1188,-1.0225,-0.2784
0.4900,-0.2163,-0.9096,-0.2571
0.4910,-0.2163,-0.9096,-0.2571
0.4910,-0.2163,-0.9096,-0.2571
0.4930,-0.2163,-0.9096,-0.2571
0.4930,-0.2163,-0.9096,-0.2571
0.5100,-0.2163,-0.9096,-0.2571
0.5120,-0.2195,-0.8879,-0.2358
0.5130,-0.2195,-0.8879,-0.2358
0.5130,-0.2195,-0.8879,-0.2358
0.5330,-0.1950,-0.9106,-0.2419
0.5330,-0.1950,-0.9106,-0.2419
0.5330,-0.1950,-0.9106,-0.2419
0.5360,-0.1950,-0.9106,-0.2419
0.5500,-0.1909,-0.9086,-0.2449
0.5500,-0.1909,-0.9086,-0.2449
0.5500,-0.1909,-0.9086,-0.2449
0.5710,-0.1791,-0.9045,-0.2725
0.5710,-0.1791,-0.9045,-0.2725
0.5710,-0.1791,-0.9045,-0.2725
0.5730,-0.1791,-0.9045,-0.2725
0.5730,-0.1791,-0.9045,-0.2725
0.5900,-0.1987,-0.9135,-0.2835
0.5910,-0.1987,-0.9135,-0.2835
0.5910,-0.1987,-0.9135,-0.2835
0.6120,-0.2173,-0.9182,-0.2625
0.6120,-0.2173,-0.9182,-0.2625
0.6120,-0.2173,-0.9182,-0.2625
0.6310,-0.1975,-0.9143,-0.2573
0.6310,-0.1975,-0.9143,-0.2573
0.6320,-0.1975,-0.9143,-0.2573
0.6530,-0.1813,-0.9138,-0.2559
0.6530,-0.1813,-0.9138,-0.2559
0.6530,-0.1813,-0.9138,-0.2559
0.6540,-0.1813,-0.9138,-0.2559
0.6550,-0.1813,-0.9138,-0.2559
0.6710,-0.1777,-0.9040,-0.2468
0.6710,-0.1777,-0.9040,-0.2468
0.6710,-0.1777,-0.9040,-0.2468
0.6910,-0.1696,-0.8991,-0.2351
0.6920,-0.1696,-0.8991,-0.2351
0.6920,-0.1696,-0.8991,-0.2351
0.7080,-0.1696,-0.8991,-0.2351
0.7100,-0.1786,-0.9018,-0.2329
0.7100,-0.1786,-0.9018,-0.2329
0.7100,-0.1786,-0.9018,-0.2329
0.7300,-0.1933,-0.9135,-0.2373
0.7300,-0.1933,-0.9135,-0.2373
0.7310,-0.1933,-0.9135,-0.2373
0.7320,-0.1933,-0.9135,-0.2373
0.7320,-0.1933,-0.9135,-0.2373
0.7340,-0.1933,-0.9135,-0.2373
0.7510,-0.2261,-0.9182,-0.2363
0.7510,-0.2261,-0.9182,-0.2363
0.7510,-0.2261,-0.9182,-0.2363
0.7710,-0.1620,-0.9257,-0.2532
0.7710,-0.1620,-0.9257,-0.2532
0.7710,-0.1620,-0.9257,-0.2532
0.7900,-0.1322,-0.9277,-0.2605
0.7900,-0.1322,-0.9277,-0.2605
0.7900,-0.1322,-0.9277,-0.2605
0.8100,-0.1613,-0.9126,-0.2559
0.8100,-0.1613,-0.9126,-0.2559
0.8110,-0.1613,-0.9126,-0.2559
0.8120,-0.1613,-0.9126,-0.2559
0.8120,-0.1613,-0.9126,-0.2559
0.8300,-0.1835,-0.9008,-0.2659
0.8300,-0.1835,-0.9008,-0.2659
0.8300,-0.1835,-0.9008,-0.2659
0.8500,-0.1701,-0.9091,-0.2703
0.8510,-0.1701,-0.9091,-0.2703
0.8510,-0.1701,-0.9091,-0.2703
0.8690,-0.1513,-0.9008,-0.2742
0.8690,-0.1513,-0.9008,-0.2742
0.8690,-0.1513,-0.9008,-0.2742
0.8890,-0.1549,-0.8893,-0.2830
0.8890,-0.1549,-0.8893,-0.2830
0.8890,-0.1549,-0.8893,-0.2830
0.8900,-0.1549,-0.8893,-0.2830
0.8900,-0.1549,-0.8893,-0.2830
0.9080,-0.1549,-0.8893,-0.2830
0.9080,-0.1791,-0.8976,-0.2603
0.9090,-0.1791,-0.8976,-0.2603
0.9610,-0.1791,-0.8976,-0.2603
0.9610,-0.2121,-0.8998,-0.2358
0.9610,-0.2121,-0.8998,-0.2358
0.9610,-0.2121,-0.8998,-0.2358
0.9620,-0.1830,-0.9182,-0.2290
0.9620,-0.1830,-0.9182,-0.2290
0.9620,-0.1830,-0.9182,-0.2290
0.9700,-0.1870,-0.9211,-0.2368
0.9700,-0.1870,-0.9211,-0.2368
0.9700,-0.1870,-0.9211,-0.2368
0.9730,-0.1870,-0.9211,-0.2368
0.9730,-0.1870,-0.9211,-0.2368
0.9910,-0.2226,-0.9084,-0.2434
0.9910,-0.2226,-0.9084,-0.2434
0.9910,-0.2226,-0.9084,-0.2434
1.0140,-0.2085,-0.9143,-0.2437
1.0150,-0.2085,-0.9143,-0.2437
1.0150,-0.2085,-0.9143,-0.2437
1.0290,-0.1923,-0.9265,-0.2578
1.0300,-0.1923,-0.9265,-0.2578
1.0300,-0.1923,-0.9265,-0.2578
1.0510,-0.1972,-0.9238,-0.2561
1.0510,-0.1972,-0.9238,-0.2561
1.0510,-0.1972,-0.9238,-0.2561
1.0510,-0.1972,-0.9238,-0.2561
1.0520,-0.1972,-0.9238,-0.2561
1.0690,-0.1650,-0.9157,-0.2559
1.0690,-0.1650,-0.9157,-0.2559
1.0690,-0.1650,-0.9157,-0.2559
1.0910,-0.1300,-0.9025,-0.2637
1.0910,-0.1300,-0.9025,-0.2637
1.0920,-0.1300,-0.9025,-0.2637
1.1080,-0.1300,-0.9025,-0.2637
1.1080,-0.1371,-0.9042,-0.2620
1.1090,-0.1371,-0.9042,-0.2620
1.1090,-0.1371,-0.9042,-0.2620
1.1320,-0.1618,-0.9106,-0.2539
1.1320,-0.1618,-0.9106,-0.2539
1.1320,-0.1618,-0.9106,-0.2539
1.1330,-0.1618,-0.9106,-0.2539
1.1330,-0.1618,-0.9106,-0.2539
1.1330,-0.1618,-0.9106,-0.2539
1.1510,-0.1850,-0.9204,-0.2488
1.1520,-0.1850,-0.9204,-0.2488
1.1520,-0.1850,-0.9204,-0.2488
1.1710,-0.2028,-0.9328,-0.2466
1.1710,-0.2028,-0.9328,-0.2466
1.1720,-0.2028,-0.9328,-0.2466
1.1910,-0.1750,-0.9355,-0.2466
1.1920,-0.1750,-0.9355,-0.2466
1.1920,-0.1750,-0.9355,-0.2466
1.2090,-0.1750,-0.9262,-0.2566
1.2090,-0.1750,-0.9262,-0.2566
1.2090,-0.1750,-0.9262,-0.2566
1.2090,-0.1750,-0.9262,-0.2566
1.2100,-0.1750,-0.9262,-0.2566
1.2320,-0.1806,-0.9130,-0.2664
1.2320,-0.1806,-0.9130,-0.2664
1.2320,-0.1806,-0.9130,-0.2664
1.2490,-0.1958,-0.9101,-0.2591
1.2500,-0.1958,-0.9101,-0.2591
1.2500,-0.1958,-0.9101,-0.2591
1.2690,-0.1840,-0.9040,-0.2488
1.2690,-0.1840,-0.9040,-0.2488
1.2700,-0.1840,-0.9040,-0.2488
1.2880,-0.1471,-0.9028,-0.2593
1.2880,-0.1471,-0.9028,-0.2593
1.2890,-0.1471,-0.9028,-0.2593
1.2890,-0.1471,-0.9028,-0.2593
1.2890,-0.1471,-0.9028,-0.2593
1.3060,-0.1471,-0.9028,-0.2593
1.3060,-0.1652,-0.9025,-0.2642
1.3060,-0.1652,-0.9025,-0.2642
1.3060,-0.1652,-0.9025,-0.2642
1.3280,-0.1652,-0.9096,-0.2696
1.3290,-0.1652,-0.9096,-0.2696
1.3290,-0.1652,-0.9096,-0.2696
1.3480,-0.1752,-0.9194,-0.2564
1.3480,-0.1752,-0.9194,-0.2564
1.3480,-0.1752,-0.9194,-0.2564
1.3680,-0.1992,-0.9165,-0.2292
1.3680,-0.1992,-0.9165,-0.2292
1.3680,-0.1992,-0.9165,-0.2292
1.3680,-0.1992,-0.9165,-0.2292
1.3680,-0.1992,-0.9165,-0.2292
1.3870,-0.1877,-0.9150,-0.2485
1.3880,-0.1877,-0.9150,-0.2485
1.3880,-0.1877,-0.9150,-0.2485
1.4090,-0.1686,-0.9191,-0.2928
1.4100,-0.1686,-0.9191,-0.2928
1.4100,-0.1686,-0.9191,-0.2928
1.4290,-0.1645,-0.9231,-0.2911
1.4290,-0.1645,-0.9231,-0.2911
1.4300,-0.1645,-0.9231,-0.2911
1.4500,-0.1527,-0.9111,-0.2774
1.4500,-0.1527,-0.9111,-0.2774
1.4510,-0.1527,-0.9111,-0.2774
1.4510,-0.1527,-0.9111,-0.2774
1.4510,-0.1527,-0.9111,-0.2774
1.4680,-0.1525,-0.8862,-0.2771
1.5220,-0.1525,-0.8862,-0.2771
1.5220,-0.1525,-0.8862,-0.2771
1.5230,-0.1757,-0.8857,-0.2380
1.5230,-0.1757,-0.8857,-0.2380
1.5230,-0.1757,-0.8857,-0.2380
1.5230,-0.1757,-0.8857,-0.2380
1.5230,-0.1811,-0.9047,-0.2493
1.5230,-0.1811,-0.9047,-0.2493
1.5230,-0.1811,-0.9047,-0.2493
1.5270,-0.1894,-0.9238,-0.2622
1.5270,-0.1894,-0.9238,-0.2622
1.5270,-0.1894,-0.9238,-0.2622
1.5270,-0.1894,-0.9238,-0.2622
1.5270,-0.1894,-0.9238,-0.2622
1.5460,-0.2375,-0.9328,-0.2432
1.5470,-0.2375,-0.9328,-0.2432
1.5470,-0.2375,-0.9328,-0.2432
1.5670,-0.2102,-0.9126,-0.2512
1.5670,-0.2102,-0.9126,-0.2512
1.5670,-0.2102,-0.9126,-0.2512
1.5900,-0.1723,-0.9057,-0.2752
1.5900,-0.1723,-0.9057,-0.2752
1.5910,-0.1723,-0.9057,-0.2752
1.6050,-0.1774,-0.9074,-0.2752
1.6050,-0.1774,-0.9074,-0.2752
1.6050,-0.1774,-0.9074,-0.2752
1.6080,-0.1774,-0.9074,-0.2752
1.6080,-0.1774,-0.9074,-0.2752
1.6260,-0.1794,-0.9106,-0.2573
1.6260,-0.1794,-0.9106,-0.2573
1.6260,-0.1794,-0.9106,-0.2573
1.6460,-0.1721,-0.8976,-0.2586
1.6460,-0.1721,-0.8976,-0.2586
1.6460,-0.1721,-0.8976,-0.2586
1.6670,-0.1537,-0.8852,-0.2669
1.6670,-0.1537,-0.8852,-0.2669
1.6680,-0.1537,-0.8852,-0.2669
1.6870,-0.1645,-0.8928,-0.2771
1.6870,-0.1645,-0.8928,-0.2771
1.6880,-0.1645,-0.8928,-0.2771
1.6900,-0.1645,-0.8928,-0.2771
1.6910,-0.1645,-0.8928,-0.2771
1.7050,-0.1645,-0.8928,-0.2771
1.7080,-0.1757,-0.9133,-0.2952
1.7090,-0.1757,-0.9133,-0.2952
1.7090,-0.1757,-0.9133,-0.2952
1.7260,-0.2075,-0.9221,-0.2803
1.7260,-0.2075,-0.9221,-0.2803
1.7260,-0.2075,-0.9221,-0.2803
1.7470,-0.2204,-0.9172,-0.2525
1.7480,-0.2204,-0.9172,-0.2525
1.7480,-0.2204,-0.9172,-0.2525
1.7650,-0.1843,-0.9099,-0.2402
1.7650,-0.1843,-0.9099,-0.2402
1.7660,-0.1843,-0.9099,-0.2402
1.7680,-0.1843,-0.9099,-0.2402
1.7680,-0.1843,-0.9099,-0.2402
1.7850,-0.1569,-0.9050,-0.2578
1.7850,-0.1569,-0.9050,-0.2578
1.7850,-0.1569,-0.9050,-0.2578
1.8050,-0.1699,-0.9121,-0.2681
1.8050,-0.1699,-0.9121,-0.2681
1.8050,-0.1699,-0.9121,-0.2681
1.8250,-0.1911,-0.9182,-0.2556
1.8260,-0.1911,-0.9182,-0.2556
1.8260,-0.1911,-0.9182,-0.2556
1.8500,-0.1879,-0.9089,-0.2537
1.8510,-0.1879,-0.9089,-0.2537
1.8510,-0.1879,-0.9089,-0.2537
1.8510,-0.1879,-0.9089,-0.2537
1.8640,-0.1483,-0.9150,-0.2539
1.8640,-0.1483,-0.9150,-0.2539
1.8640,-0.1483,-0.9150,-0.2539
1.8850,-0.1486,-0.9118,-0.2500
1.8860,-0.1486,-0.9118,-0.2500
1.8860,-0.1486,-0.9118,-0.2500
1.9030,-0.1486,-0.9118,-0.2500
1.9050,-0.1703,-0.9055,-0.2573
1.9050,-0.1703,-0.9055,-0.2573
1.9050,-0.1703,-0.9055,-0.2573
1.9240,-0.1909,-0.9020,-0.2608
1.9240,-0.1909,-0.9020,-0.2608
1.9250,-0.1909,-0.9020,-0.2608
1.9270,-0.1909,-0.9020,-0.2608
1.9270,-0.1909,-0.9020,-0.2608
1.9430,-0.1823,-0.9074,-0.2798
1.9430,-0.1823,-0.9074,-0.2798
1.9440,-0.1823,-0.9074,-0.2798
1.9630,-0.1716,-0.9199,-0.2713
1.9630,-0.1716,-0.9199,-0.2713
1.9640,-0.1716,-0.9199,-0.2713
1.9830,-0.1779,-0.9003,-0.2603
1.9830,-0.1779,-0.9003,-0.2603
1.9830,-0.1779,-0.9003,-0.2603
2.0030,-0.1953,-0.8835,-0.2564
2.0030,-0.1953,-0.8835,-0.2564
2.0030,-0.1953,-0.8835,-0.2564
2.0070,-0.1953,-0.8835,-0.2564
2.0070,-0.1953,-0.8835,-0.2564
2.0230,-0.1816,-0.9020,-0.2459
2.0600,-0.1816,-0.9020,-0.2459
2.0600,-0.1816,-0.9020,-0.2459
2.0610,-0.1718,-0.9262,-0.2679
2.0610,-0.1718,-0.9262,-0.2679
2.0610,-0.1718,-0.9262,-0.2679
2.0610,-0.1931,-0.9306,-0.2727
2.0610,-0.1931,-0.9306,-0.2727
2.0610,-0.1931,-0.9306,-0.2727
2.0830,-0.2143,-0.9311,-0.2661
2.0830,-0.2143,-0.9311,-0.2661
2.0840,-0.2143,-0.9311,-0.2661
2.0850,-0.2143,-0.9311,-0.2661
2.0850,-0.2143,-0.9311,-0.2661
2.1000,-0.2143,-0.9311,-0.2661
2.1010,-0.1894,-0.9170,-0.2576
2.1020,-0.1894,-0.9170,-0.2576
2.1020,-0.1894,-0.9170,-0.2576
2.1220,-0.1728,-0.9069,-0.2595
2.1230,-0.1728,-0.9069,-0.2595
2.1230,-0.1728,-0.9069,-0.2595
2.1420,-0.1808,-0.9003,-0.2591
2.1420,-0.1808,-0.9003,-0.2591
2.1420,-0.1808,-0.9003,-0.2591
2.1630,-0.1596,-0.9003,-0.2569
2.1630,-0.1596,-0.9003,-0.2569
2.1640,-0.1596,-0.9003,-0.2569
2.1640,-0.1596,-0.9003,-0.2569
2.1640,-0.1596,-0.9003,-0.2569
2.1820,-0.1447,-0.9099,-0.2872
2.1820,-0.1447,-0.9099,-0.2872
2.1830,-0.1447,-0.9099,-0.2872
2.2030,-0.1816,-0.9084,-0.2740
2.2030,-0.1816,-0.9084,-0.2740
2.2040,-0.1816,-0.9084,-0.2740
2.2230,-0.1872,-0.9079,-0.2771
2.2230,-0.1872,-0.9079,-0.2771
2.2230,-0.1872,-0.9079,-0.2771
2.2430,-0.1640,-0.9084,-0.2840
2.2430,-0.1640,-0.9084,-0.2840
2.2440,-0.1640,-0.9084,-0.2840
2.2480,-0.1640,-0.9084,-0.2840
2.2480,-0.1640,-0.9084,-0.2840
2.2630,-0.1760,-0.9077,-0.2666
2.2630,-0.1760,-0.9077,-0.2666
2.2630,-0.1760,-0.9077,-0.2666
2.2820,-0.1877,-0.9106,-0.2441
2.2820,-0.1877,-0.9106,-0.2441
2.2820,-0.1877,-0.9106,-0.2441
2.3000,-0.1877,-0.9106,-0.2441
2.3020,-0.1677,-0.9113,-0.2461
2.3020,-0.1677,-0.9113,-0.2461
2.3030,-0.1677,-0.9113,-0.2461
2.3230,-0.1718,-0.9040,-0.2608
2.3230,-0.1718,-0.9040,-0.2608
2.3230,-0.1718,-0.9040,-0.2608
2.3230,-0.1718,-0.9040,-0.2608
2.3240,-0.1718,-0.9040,-0.2608
2.3420,-0.2087,-0.9006,-0.2847
2.3420,-0.2087,-0.9006,-0.2847
2.3420,-0.2087,-0.9006,-0.2847
2.3630,-0.1870,-0.9204,-0.2713
2.3630,-0.1870,-0.9204,-0.2713
2.3630,-0.1870,-0.9204,-0.2713
2.3840,-0.1532,-0.9297,-0.2713
2.3850,-0.1532,-0.9297,-0.2713
2.3850,-0.1532,-0.9297,-0.2713
2.4030,-0.1601,-0.9094,-0.2515
2.4030,-0.1601,-0.9094,-0.2515
2.4040,-0.1601,-0.9094,-0.2515
2.4040,-0.1601,-0.9094,-0.2515
2.4040,-0.1601,-0.9094,-0.2515
2.4210,-0.1701,-0.8925,-0.2586
2.4220,-0.1701,-0.8925,-0.2586
2.4220,-0.1701,-0.8925,-0.2586
2.4410,-0.1669,-0.8937,-0.2730
2.4420,-0.1669,-0.8937,-0.2730
2.4420,-0.1669,-0.8937,-0.2730
2.4610,-0.1508,-0.9069,-0.2796
2.4610,-0.1508,-0.9069,-0.2796
2.4610,-0.1508,-0.9069,-0.2796
2.4810,-0.1532,-0.9040,-0.2715
2.4810,-0.1532,-0.9040,-0.2715
2.4810,-0.1532,-0.9040,-0.2715
2.4840,-0.1532,-0.9040,-0.2715
2.4840,-0.1532,-0.9040,-0.2715
2.4990,-0.1532,-0.9040,-0.2715
2.5010,-0.1804,-0.8952,-0.2522
2.5020,-0.1804,-0.8952,-0.2522
2.5020,-0.1804,-0.8952,-0.2522
2.5210,-0.1958,-0.9025,-0.2676
2.5210,-0.1958,-0.9025,-0.2676
2.5210,-0.1958,-0.9025,-0.2676
2.5400,-0.2148,-0.9204,-0.2835
2.5410,-0.2148,-0.9204,-0.2835
2.5410,-0.2148,-0.9204,-0.2835
2.5610,-0.2072,-0.9275,-0.2608
2.5610,-0.2072,-0.9275,-0.2608
2.5620,-0.2072,-0.9275,-0.2608
2.5620,-0.2072,-0.9275,-0.2608
2.5620,-0.2072,-0.9275,-0.2608
2.6150,-0.1940,-0.9231,-0.2407
2.6150,-0.1940,-0.9231,-0.2407
2.6150,-0.1940,-0.9231,-0.2407
2.6160,-0.1960,-0.9077,-0.2324
2.6160,-0.1960,-0.9077,-0.2324
2.6160,-0.1960,-0.9077,-0.2324
2.6190,-0.1701,-0.9094,-0.2466
2.6190,-0.1701,-0.9094,-0.2466
2.6190,-0.1701,-0.9094,-0.2466
2.6390,-0.1593,-0.9143,-0.2654
2.6390,-0.1593,-0.9143,-0.2654
2.6390,-0.1593,-0.9143,-0.2654
2.6420,-0.1593,-0.9143,-0.2654
2.6420,-0.1593,-0.9143,-0.2654
2.6600,-0.1852,-0.9089,-0.2664
2.6600,-0.1852,-0.9089,-0.2664
2.6600,-0.1852,-0.9089,-0.2664
2.6790,-0.2158,-0.9023,-0.2605
2.6790,-0.2158,-0.9023,-0.2605
2.6790,-0.2158,-0.9023,-0.2605
2.6980,-0.2158,-0.9023,-0.2605
2.6980,-0.1879,-0.8994,-0.2622
2.6980,-0.1879,-0.8994,-0.2622
2.6980,-0.1879,-0.8994,-0.2622
2.7200,-0.1303,-0.9182,-0.2701
2.7200,-0.1303,-0.9182,-0.2701
2.7210,-0.1303,-0.9182,-0.2701
2.7240,-0.1303,-0.9182,-0.2701
2.7250,-0.1303,-0.9182,-0.2701
2.7390,-0.1132,-0.9331,-0.2666
2.7400,-0.1132,-0.9331,-0.2666
2.7400,-0.1132,-0.9331,-0.2666
2.7580,-0.1794,-0.9118,-0.2664
2.7580,-0.1794,-0.9118,-0.2664
2.7580,-0.1794,-0.9118,-0.2664
2.7800,-0.1943,-0.9011,-0.2847
2.7800,-0.1943,-0.9011,-0.2847
2.7800,-0.1943,-0.9011,-0.2847
2.8000,-0.1662,-0.9069,-0.2786
2.8010,-0.1662,-0.9069,-0.2786
2.8010,-0.1662,-0.9069,-0.2786
2.8030,-0.1662,-0.9069,-0.2786
2.8030,-0.1662,-0.9069,-0.2786
2.8200,-0.1645,-0.9033,-0.2517
2.8200,-0.1645,-0.9033,-0.2517
2.8200,-0.1645,-0.9033,-0.2517
2.8420,-0.1796,-0.8991,-0.2615
2.8420,-0.1796,-0.8991,-0.2615
2.8420,-0.1796,-0.8991,-0.2615
2.8600,-0.1970,-0.9130,-0.2727
2.8610,-0.1970,-0.9130,-0.2727
2.8610,-0.1970,-0.9130,-0.2727
2.8810,-0.1789,-0.9204,-0.2676
2.8810,-0.1789,-0.9204,-0.2676
2.8820,-0.1789,-0.9204,-0.2676
2.8820,-0.1789,-0.9204,-0.2676
2.8820,-0.1789,-0.9204,-0.2676
2.9000,-0.1789,-0.9204,-0.2676
2.9040,-0.1637,-0.9130,-0.2483
2.9040,-0.1637,-0.9130,-0.2483
2.9040,-0.1637,-0.9130,-0.2483
2.9200,-0.1799,-0.8998,-0.2564
2.9210,-0.1799,-0.8998,-0.2564
2.9210,-0.1799,-0.8998,-0.2564
2.9390,-0.1931,-0.9184,-0.2737
2.9390,-0.1931,-0.9184,-0.2737
2.9400,-0.1931,-0.9184,-0.2737
2.9610,-0.1782,-0.9429,-0.2671
2.9610,-0.1782,-0.9429,-0.2671
2.9620,-0.1782,-0.9429,-0.2671
2.9620,-0.1782,-0.9429,-0.2671
2.9620,-0.1782,-0.9429,-0.2671
2.9810,-0.1542,-0.9289,-0.2473
2.9810,-0.1542,-0.9289,-0.2473
2.9810,-0.1542,-0.9289,-0.2473
2.9990,-0.1508,-0.8925,-0.2466
3.0000,-0.1508,-0.8925,-0.2466
3.0000,-0.1508,-0.8925,-0.2466
3.0220,-0.1513,-0.8876,-0.2620
3.0220,-0.1513,-0.8876,-0.2620
3.0220,-0.1513,-0.8876,-0.2620
3.0410,-0.1613,-0.9167,-0.2916
3.0410,-0.1613,-0.9167,-0.2916
3.0410,-0.1613,-0.9167,-0.2916
3.0420,-0.1613,-0.9167,-0.2916
3.0420,-0.1613,-0.9167,-0.2916
3.0600,-0.1904,-0.9165,-0.2903
3.0610,-0.1904,-0.9165,-0.2903
3.0610,-0.1904,-0.9165,-0.2903
3.0790,-0.2014,-0.8967,-0.2933
3.0790,-0.2014,-0.8967,-0.2933
3.0800,-0.2014,-0.8967,-0.2933
3.0970,-0.2014,-0.8967,-0.2933
3.1000,-0.1679,-0.8820,-0.2784
3.1000,-0.1679,-0.8820,-0.2784
3.1000,-0.1679,-0.8820,-0.2784
3.1190,-0.1239,-0.8979,-0.2627
3.1200,-0.1239,-0.8979,-0.2627
3.1200,-0.1239,-0.8979,-0.2627
3.1200,-0.1239,-0.8979,-0.2627
3.1630,-0.1239,-0.8979,-0.2627
3.1630,-0.1574,-0.9160,-0.2339
3.1640,-0.1574,-0.9160,-0.2339
3.1640,-0.1574,-0.9160,-0.2339
3.1640,-0.1928,-0.9172,-0.2236
3.1640,-0.1928,-0.9172,-0.2236
3.1640,-0.1928,-0.9172,-0.2236
3.1780,-0.1896,-0.9167,-0.2268
3.1780,-0.1896,-0.9167,-0.2268
3.1780,-0.1896,-0.9167,-0.2268
3.1990,-0.1877,-0.9072,-0.2400
3.1990,-0.1877,-0.9072,-0.2400
3.2000,-0.1877,-0.9072,-0.2400
3.2000,-0.1877,-0.9072,-0.2400
3.2000,-0.1877,-0.9072,-0.2400
3.2190,-0.1901,-0.9140,-0.2652
3.2190,-0.1901,-0.9140,-0.2652
3.2190,-0.1901,-0.9140,-0.2652
3.2400,-0.1943,-0.9380,-0.2864
3.2400,-0.1943,-0.9380,-0.2864
3.2410,-0.1943,-0.9380,-0.2864
3.2570,-0.1782,-0.9487,-0.2744
3.2580,-0.1782,-0.9487,-0.2744
3.2580,-0.1782,-0.9487,-0.2744
3.2790,-0.1598,-0.9248,-0.2681
3.2790,-0.1598,-0.9248,-0.2681
3.2800,-0.1598,-0.9248,-0.2681
3.2800,-0.1598,-0.9248,-0.2681
3.2800,-0.1598,-0.9248,-0.2681
3.2950,-0.1598,-0.9248,-0.2681
3.2990,-0.1549,-0.9028,-0.2652
3.3000,-0.1549,-0.9028,-0.2652
3.3000,-0.1549,-0.9028,-0.2652
3.3200,-0.1562,-0.9006,-0.2647
3.3200,-0.1562,-0.9006,-0.2647
3.3210,-0.1562,-0.9006,-0.2647
3.3210,-0.1562,-0.9006,-0.2647
3.3400,-0.1740,-0.8959,-0.2544
3.3400,-0.1740,-0.8959,-0.2544
3.3400,-0.1740,-0.8959,-0.2544
3.3580,-0.2050,-0.8925,-0.2432
3.3580,-0.2050,-0.8925,-0.2432
3.3580,-0.2050,-0.8925,-0.2432
3.3590,-0.2050,-0.8925,-0.2432
3.3590,-0.2050,-0.8925,-0.2432
3.3800,-0.1813,-0.9155,-0.2652
3.3810,-0.1813,-0.9155,-0.2652
3.3810,-0.1813,-0.9155,-0.2652
3.4000,-0.1549,-0.9333,-0.2742
3.4000,-0.1549,-0.9333,-0.2742
3.4000,-0.1549,-0.9333,-0.2742
3.4200,-0.1664,-0.9211,-0.2793
3.4200,-0.1664,-0.9211,-0.2793
3.4210,-0.1664,-0.9211,-0.2793
3.4390,-0.1865,-0.9045,-0.2705
3.4390,-0.1865,-0.9045,-0.2705
3.4390,-0.1865,-0.9045,-0.2705
3.4390,-0.1865,-0.9045,-0.2705
3.4400,-0.1865,-0.9045,-0.2705
3.4600,-0.1884,-0.9011,-0.2591
3.4600,-0.1884,-0.9011,-0.2591
3.4600,-0.1884,-0.9011,-0.2591
3.4800,-0.1562,-0.9145,-0.2529
3.4800,-0.1562,-0.9145,-0.2529
3.4810,-0.1562,-0.9145,-0.2529
3.4950,-0.1562,-0.9145,-0.2529
3.4980,-0.1518,-0.9096,-0.2595
3.4990,-0.1518,-0.9096,-0.2595
3.4990,-0.1518,-0.9096,-0.2595
3.5200,-0.1742,-0.9047,-0.2691
3.5200,-0.1742,-0.9047,-0.2691
3.5200,-0.1742,-0.9047,-0.2691
3.5260,-0.1742,-0.9047,-0.2691
3.5260,-0.1742,-0.9047,-0.2691
3.5340,-0.2002,-0.9111,-0.2510
3.5350,-0.2002,-0.9111,-0.2510
3.5350,-0.2002,-0.9111,-0.2510
3.5560,-0.1613,-0.9199,-0.2417
3.5560,-0.1613,-0.9199,-0.2417
3.5560,-0.1613,-0.9199,-0.2417
3.5750,-0.1427,-0.9174,-0.2471
3.5750,-0.1427,-0.9174,-0.2471
3.5750,-0.1427,-0.9174,-0.2471
3.5940,-0.1647,-0.9042,-0.2547
3.5940,-0.1647,-0.9042,-0.2547
3.5940,-0.1647,-0.9042,-0.2547
3.5990,-0.1647,-0.9042,-0.2547
3.5990,-0.1647,-0.9042,-0.2547
3.6150,-0.1508,-0.9072,-0.2837
3.6150,-0.1508,-0.9072,-0.2837
3.6150,-0.1508,-0.9072,-0.2837
3.6350,-0.1747,-0.9060,-0.2806
3.6360,-0.1747,-0.9060,-0.2806
3.6360,-0.1747,-0.9060,-0.2806
3.6540,-0.1789,-0.9042,-0.2884
3.6550,-0.1789,-0.9042,-0.2884
3.6550,-0.1789,-0.9042,-0.2884
3.6740,-0.1667,-0.9077,-0.2815
3.6750,-0.1667,-0.9077,-0.2815
3.6750,-0.1667,-0.9077,-0.2815
3.7230,-0.1667,-0.9077,-0.2815
3.7230,-0.1667,-0.9077,-0.2815
3.7230,-0.1667,-0.9077,-0.2815
3.7240,-0.1640,-0.9067,-0.2632
3.7240,-0.1640,-0.9067,-0.2632
3.7240,-0.1640,-0.9067,-0.2632
3.7240,-0.1711,-0.8986,-0.2544
3.7240,-0.1711,-0.8986,-0.2544
3.7240,-0.1711,-0.8986,-0.2544
3.7330,-0.1789,-0.8984,-0.2388
3.7330,-0.1789,-0.8984,-0.2388
3.7330,-0.1789,-0.8984,-0.2388
3.7520,-0.1911,-0.8996,-0.2723
3.7520,-0.1911,-0.8996,-0.2723
3.7520,-0.1911,-0.8996,-0.2723
3.7550,-0.1911,-0.8996,-0.2723
3.7550,-0.1911,-0.8996,-0.2723
3.7750,-0.2165,-0.8994,-0.2747
3.7750,-0.2165,-0.8994,-0.2747
3.7750,-0.2165,-0.8994,-0.2747
3.7930,-0.2258,-0.9111,-0.2715
3.7930,-0.2258,-0.9111,-0.2715
3.7930,-0.2258,-0.9111,-0.2715
3.8130,-0.1633,-0.9104,-0.2788
3.8130,-0.1633,-0.9104,-0.2788
3.8140,-0.1633,-0.9104,-0.2788
3.8330,-0.1523,-0.9052,-0.2732
3.8340,-0.1523,-0.9052,-0.2732
3.8340,-0.1523,-0.9052,-0.2732
3.8340,-0.1523,-0.9052,-0.2732
3.8340,-0.1523,-0.9052,-0.2732
3.8530,-0.1721,-0.9079,-0.2471
3.8530,-0.1721,-0.9079,-0.2471
3.8530,-0.1721,-0.9079,-0.2471
3.8730,-0.1645,-0.9140,-0.2515
3.8730,-0.1645,-0.9140,-0.2515
3.8740,-0.1645,-0.9140,-0.2515
3.8920,-0.1645,-0.9140,-0.2515
3.8920,-0.1608,-0.9226,-0.2625
3.8930,-0.1608,-0.9226,-0.2625
3.8930,-0.1608,-0.9226,-0.2625
3.9130,-0.1777,-0.9209,-0.2705
3.9140,-0.1777,-0.9209,-0.2705
3.9140,-0.1777,-0.9209,-0.2705
3.9140,-0.1777,-0.9209,-0.2705
3.9140,-0.1777,-0.9209,-0.2705
3.9330,-0.1804,-0.9260,-0.2488
3.9330,-0.1804,-0.9260,-0.2488
3.9330,-0.1804,-0.9260,-0.2488
3.9520,-0.1740,-0.9279,-0.2415
3.9520,-0.1740,-0.9279,-0.2415
3.9530,-0.1740,-0.9279,-0.2415
3.9720,-0.1620,-0.9128,-0.2595
3.9720,-0.1620,-0.9128,-0.2595
3.9720,-0.1620,-0.9128,-0.2595
3.9910,-0.1774,-0.9162,-0.2576
3.9910,-0.1774,-0.9162,-0.2576
3.9910,-0.1774,-0.9162,-0.2576
3.9950,-0.1774,-0.9162,-0.2576
3.9950,-0.1774,-0.9162,-0.2576
4.0120,-0.1750,-0.9206,-0.2495
4.0120,-0.1750,-0.9206,-0.2495
4.0120,-0.1750,-0.9206,-0.2495
4.0330,-0.1537,-0.9074,-0.2520
4.0330,-0.1537,-0.9074,-0.2520
4.0340,-0.1537,-0.9074,-0.2520
4.0520,-0.1581,-0.9086,-0.2781
4.0530,-0.1581,-0.9086,-0.2781
4.0530,-0.1581,-0.9086,-0.2781
4.0710,-0.1823,-0.9162,-0.2725
4.0710,-0.1823,-0.9162,-0.2725
4.0710,-0.1823,-0.9162,-0.2725
4.0740,-0.1823,-0.9162,-0.2725
4.0740,-0.1823,-0.9162,-0.2725
4.0870,-0.1823,-0.9162,-0.2725
4.0890,-0.1901,-0.9235,-0.2432
4.0890,-0.1901,-0.9235,-0.2432
4.0890,-0.1901,-0.9235,-0.2432
4.1090,-0.1843,-0.9238,-0.2356
4.1090,-0.1843,-0.9238,-0.2356
4.1090,-0.1843,-0.9238,-0.2356
4.1300,-0.1447,-0.9121,-0.2444
4.1300,-0.1447,-0.9121,-0.2444
4.1300,-0.1447,-0.9121,-0.2444
4.1500,-0.1422,-0.9145,-0.2424
4.1500,-0.1422,-0.9145,-0.2424
4.1510,-0.1422,-0.9145,-0.2424
4.1520,-0.1422,-0.9145,-0.2424
4.1520,-0.1422,-0.9145,-0.2424
4.1690,-0.1745,-0.9042,-0.2591
4.1690,-0.1745,-0.9042,-0.2591
4.1700,-0.1745,-0.9042,-0.2591
4.1930,-0.1706,-0.9006,-0.3016
4.1930,-0.1706,-0.9006,-0.3016
4.1930,-0.1706,-0.9006,-0.3016
4.2130,-0.1474,-0.9084,-0.3048
4.2130,-0.1474,-0.9084,-0.3048
4.2130,-0.1474,-0.9084,-0.3048
4.2330,-0.1608,-0.9064,-0.2620
4.2330,-0.1608,-0.9064,-0.2620
4.2730,-0.1608,-0.9064,-0.2620
4.2730,-0.1608,-0.9064,-0.2620
4.2730,-0.1608,-0.9064,-0.2620
4.2730,-0.1826,-0.8915,-0.2439
4.2730,-0.1826,-0.8915,-0.2439
4.2730,-0.1826,-0.8915,-0.2439
4.2730,-0.1955,-0.8940,-0.2556
4.2730,-0.1955,-0.8940,-0.2556
4.2730,-0.1955,-0.8940,-0.2556
4.2840,-0.1955,-0.8940,-0.2556
4.2880,-0.1850,-0.9094,-0.2554
4.2880,-0.1850,-0.9094,-0.2554
4.2880,-0.1850,-0.9094,-0.2554
4.3080,-0.1811,-0.9150,-0.2351
4.3080,-0.1811,-0.9150,-0.2351
4.3090,-0.1811,-0.9150,-0.2351
4.3110,-0.1811,-0.9150,-0.2351
4.3110,-0.1811,-0.9150,-0.2351
4.3330,-0.2131,-0.9055,-0.2246
4.3330,-0.2131,-0.9055,-0.2246
4.3330,-0.2131,-0.9055,-0.2246
4.3510,-0.2124,-0.9108,-0.2527
4.3520,-0.2124,-0.9108,-0.2527
4.3520,-0.2124,-0.9108,-0.2527
4.3700,-0.1850,-0.9360,-0.2791
4.3700,-0.1850,-0.9360,-0.2791
4.3700,-0.1850,-0.9360,-0.2791
4.3900,-0.1718,-0.9350,-0.2664
4.3900,-0.1718,-0.9350,-0.2664
4.3910,-0.1718,-0.9350,-0.2664
4.3910,-0.1718,-0.9350,-0.2664
4.3910,-0.1718,-0.9350,-0.2664
4.4080,-0.1611,-0.9089,-0.2688
4.4080,-0.1611,-0.9089,-0.2688
4.4080,-0.1611,-0.9089,-0.2688
4.4290,-0.1537,-0.8923,-0.2737
4.4290,-0.1537,-0.8923,-0.2737
4.4300,-0.1537,-0.8923,-0.2737
4.4500,-0.1767,-0.8976,-0.2688
4.4500,-0.1767,-0.8976,-0.2688
4.4500,-0.1767,-0.8976,-0.2688
4.4700,-0.2094,-0.9089,-0.2471
4.4700,-0.2094,-0.9089,-0.2471
4.4700,-0.2094,-0.9089,-0.2471
4.4700,-0.2094,-0.9089,-0.2471
4.4710,-0.2094,-0.9089,-0.2471
4.4840,-0.2094,-0.9089,-0.2471
4.4890,-0.1835,-0.9133,-0.2647
4.4890,-0.1835,-0.9133,-0.2647
4.4890,-0.1835,-0.9133,-0.2647
4.5090,-0.1725,-0.9167,-0.2639
4.5090,-0.1725,-0.9167,-0.2639
4.5090,-0.1725,-0.9167,-0.2639
4.5270,-0.1764,-0.9155,-0.2522
4.5280,-0.1764,-0.9155,-0.2522
4.5280,-0.1764,-0.9155,-0.2522
4.5500,-0.1838,-0.9250,-0.2422
4.5500,-0.1838,-0.9250,-0.2422
4.5500,-0.1838,-0.9250,-0.2422
4.5510,-0.1838,-0.9250,-0.2422
4.5510,-0.1838,-0.9250,-0.2422
4.5680,-0.1779,-0.9233,-0.2339
4.5690,-0.1779,-0.9233,-0.2339
4.5690,-0.1779,-0.9233,-0.2339
4.5880,-0.1586,-0.9099,-0.2463
4.5880,-0.1586,-0.9099,-0.2463
4.5880,-0.1586,-0.9099,-0.2463
4.6080,-0.1772,-0.9018,-0.2549
4.6080,-0.1772,-0.9018,-0.2549
4.6080,-0.1772,-0.9018,-0.2549
4.6280,-0.2307,-0.9060,-0.2407
4.6280,-0.2307,-0.9060,-0.2407
4.6290,-0.2307,-0.9060,-0.2407
4.6290,-0.2307,-0.9060,-0.2407
4.6290,-0.2307,-0.9060,-0.2407
4.6470,-0.1967,-0.9145,-0.2478
4.6470,-0.1967,-0.9145,-0.2478
4.6480,-0.1967,-0.9145,-0.2478
4.6680,-0.1584,-0.9228,-0.2608
4.6680,-0.1584,-0.9228,-0.2608
4.6680,-0.1584,-0.9228,-0.2608
4.6840,-0.1584,-0.9228,-0.2608
4.6870,-0.1764,-0.9170,-0.2407
4.6870,-0.1764,-0.9170,-0.2407
4.6870,-0.1764,-0.9170,-0.2407
4.7080,-0.1850,-0.9011,-0.2527
4.7080,-0.1850,-0.9011,-0.2527
4.7090,-0.1850,-0.9011,-0.2527
4.7090,-0.1850,-0.9011,-0.2527
4.7090,-0.1850,-0.9011,-0.2527
4.7270,-0.1564,-0.9072,-0.2637
4.7270,-0.1564,-0.9072,-0.2637
4.7280,-0.1564,-0.9072,-0.2637
4.7470,-0.1491,-0.9157,-0.2671
4.7470,-0.1491,-0.9157,-0.2671
4.7470,-0.1491,-0.9157,-0.2671
4.7680,-0.1620,-0.8991,-0.2911
4.7680,-0.1620,-0.8991,-0.2911
4.7690,-0.1620,-0.8991,-0.2911
4.7860,-0.1738,-0.8925,-0.2923
4.8390,-0.1738,-0.8925,-0.2923
4.8400,-0.1738,-0.8925,-0.2923
4.8400,-0.1738,-0.8925,-0.2923
4.8400,-0.1738,-0.8925,-0.2923
4.8400,-0.2124,-0.8935,-0.2732
4.8400,-0.2124,-0.8935,-0.2732
4.8400,-0.2124,-0.8935,-0.2732
4.8400,-0.2168,-0.9003,-0.2461
4.8400,-0.2168,-0.9003,-0.2461
4.8410,-0.2168,-0.9003,-0.2461
4.8460,-0.1921,-0.9250,-0.2261
4.8460,-0.1921,-0.9250,-0.2261
4.8460,-0.1921,-0.9250,-0.2261
4.8660,-0.2192,-0.9277,-0.2251
4.8660,-0.2192,-0.9277,-0.2251
4.8660,-0.2192,-0.9277,-0.2251
4.8680,-0.2192,-0.9277,-0.2251
4.8680,-0.2192,-0.9277,-0.2251
4.8800,-0.2192,-0.9277,-0.2251
4.8890,-0.2173,-0.9135,-0.2371
4.8890,-0.2173,-0.9135,-0.2371
4.8890,-0.2173,-0.9135,-0.2371
4.9060,-0.2006,-0.9077,-0.2559
4.9060,-0.2006,-0.9077,-0.2559
4.9060,-0.2006,-0.9077,-0.2559
4.9270,-0.1889,-0.9121,-0.2615
4.9270,-0.1889,-0.9121,-0.2615
4.9270,-0.1889,-0.9121,-0.2615
4.9460,-0.1774,-0.9194,-0.2578
4.9470,-0.1774,-0.9194,-0.2578
4.9470,-0.1774,-0.9194,-0.2578
4.9470,-0.1774,-0.9194,-0.2578
4.9470,-0.1774,-0.9194,-0.2578
4.9670,-0.1701,-0.9145,-0.2576
4.9670,-0.1701,-0.9145,-0.2576
4.9670,-0.1701,-0.9145,-0.2576
4.9860,-0.1789,-0.9025,-0.2632
4.9870,-0.1789,-0.9025,-0.2632
4.9870,-0.1789,-0.9025,-0.2632
5.0060,-0.1667,-0.9038,-0.2762
5.0060,-0.1667,-0.9038,-0.2762
5.0070,-0.1667,-0.9038,-0.2762
5.0240,-0.1603,-0.9187,-0.2688
5.0240,-0.1603,-0.9187,-0.2688
5.0240,-0.1603,-0.9187,-0.2688
5.0270,-0.1603,-0.9187,-0.2688
5.0270,-0.1603,-0.9187,-0.2688
5.0480,-0.1718,-0.9218,-0.2573
5.0480,-0.1718,-0.9218,-0.2573
5.0490,-0.1718,-0.9218,-0.2573
5.0660,-0.1843,-0.9196,-0.2471
5.0660,-0.1843,-0.9196,-0.2471
5.0670,-0.1843,-0.9196,-0.2471
5.0810,-0.1843,-0.9196,-0.2471
5.0850,-0.1786,-0.9030,-0.2361
5.0850,-0.1786,-0.9030,-0.2361
5.0850,-0.1786,-0.9030,-0.2361
5.1060,-0.1684,-0.8935,-0.2407
5.1060,-0.1684,-0.8935,-0.2407
5.1060,-0.1684,-0.8935,-0.2407
5.1060,-0.1684,-0.8935,-0.2407
5.1070,-0.1684,-0.8935,-0.2407
5.1260,-0.1970,-0.8940,-0.2378
5.1260,-0.1970,-0.8940,-0.2378
5.1260,-0.1970,-0.8940,-0.2378
5.1460,-0.1948,-0.9006,-0.2402
5.1460,-0.1948,-0.9006,-0.2402
5.1460,-0.1948,-0.9006,-0.2402
5.1650,-0.1760,-0.9133,-0.2559
5.1650,-0.1760,-0.9133,-0.2559
5.1650,-0.1760,-0.9133,-0.2559
5.1850,-0.1684,-0.9194,-0.2732
5.1860,-0.1684,-0.9194,-0.2732
5.1860,-0.1684,-0.9194,-0.2732
5.1860,-0.1684,-0.9194,-0.2732
5.1860,-0.1684,-0.9194,-0.2732
5.2050,-0.1914,-0.9240,-0.2757
5.2050,-0.1914,-0.9240,-0.2757
5.2050,-0.1914,-0.9240,-0.2757
5.2250,-0.1906,-0.9145,-0.2757
5.2250,-0.1906,-0.9145,-0.2757
5.2250,-0.1906,-0.9145,-0.2757
5.2450,-0.1874,-0.9064,-0.2686
5.2460,-0.1874,-0.9064,-0.2686
5.2460,-0.1874,-0.9064,-0.2686
5.2630,-0.1843,-0.8996,-0.2583
5.2640,-0.1843,-0.8996,-0.2583
5.2640,-0.1843,-0.8996,-0.2583
5.2670,-0.1843,-0.8996,-0.2583
5.2670,-0.1843,-0.8996,-0.2583
5.2800,-0.1843,-0.8996,-0.2583
5.2830,-0.1833,-0.9042,-0.2578
5.2840,-0.1833,-0.9042,-0.2578
5.2840,-0.1833,-0.9042,-0.2578
5.3040,-0.1921,-0.9253,-0.2456
5.3040,-0.1921,-0.9253,-0.2456
5.3050,-0.1921,-0.9253,-0.2456
5.3240,-0.1984,-0.9255,-0.2378
5.3240,-0.1984,-0.9255,-0.2378
5.3240,-0.1984,-0.9255,-0.2378
5.3710,-0.1755,-0.9084,-0.2400
5.3720,-0.1755,-0.9084,-0.2400
5.3720,-0.1755,-0.9084,-0.2400
5.3730,-0.1755,-0.9084,-0.2400
5.3730,-0.1755,-0.9084,-0.2400
5.3730,-0.1835,-0.9108,-0.2593
5.3730,-0.1835,-0.9108,-0.2593
5.3730,-0.1835,-0.9108,-0.2593
5.3830,-0.1945,-0.9086,-0.2554
5.3830,-0.1945,-0.9086,-0.2554
5.3830,-0.1945,-0.9086,-0.2554
5.4010,-0.1936,-0.9113,-0.2620
5.4010,-0.1936,-0.9113,-0.2620
5.4010,-0.1936,-0.9113,-0.2620
5.4220,-0.1735,-0.9072,-0.2764
5.4220,-0.1735,-0.9072,-0.2764
5.4220,-0.1735,-0.9072,-0.2764
5.4250,-0.1735,-0.9072,-0.2764
5.4250,-0.1735,-0.9072,-0.2764
5.4420,-0.1615,-0.9045,-0.2586
5.4430,-0.1615,-0.9045,-0.2586
5.4430,-0.1615,-0.9045,-0.2586
5.4600,-0.1838,-0.9099,-0.2454
5.4610,-0.1838,-0.9099,-0.2454
5.4610,-0.1838,-0.9099,-0.2454
5.4760,-0.1838,-0.9099,-0.2454
5.4850,-0.1955,-0.9072,-0.2615
5.4850,-0.1955,-0.9072,-0.2615
5.4850,-0.1955,-0.9072,-0.2615
5.5010,-0.1906,-0.9064,-0.2681
5.5010,-0.1906,-0.9064,-0.2681
5.5020,-0.1906,-0.9064,-0.2681
5.5040,-0.1906,-0.9064,-0.2681
5.5050,-0.1906,-0.9064,-0.2681
5.5210,-0.1877,-0.9106,-0.2571
5.5210,-0.1877,-0.9106,-0.2571
5.5220,-0.1877,-0.9106,-0.2571
5.5420,-0.1845,-0.9118,-0.2527
5.5420,-0.1845,-0.9118,-0.2527
5.5420,-0.1845,-0.9118,-0.2527
5.5610,-0.1921,-0.9150,-0.2544
5.5610,-0.1921,-0.9150,-0.2544
5.5610,-0.1921,-0.9150,-0.2544
5.5810,-0.1730,-0.9118,-0.2583
5.5810,-0.1730,-0.9118,-0.2583
5.5810,-0.1730,-0.9118,-0.2583
5.5870,-0.1730,-0.9118,-0.2583
5.5880,-0.1730,-0.9118,-0.2583
5.6000,-0.1752,-0.9084,-0.2512
5.6000,-0.1752,-0.9084,-0.2512
5.6010,-0.1752,-0.9084,-0.2512
5.6200,-0.2028,-0.9038,-0.2410
5.6200,-0.2028,-0.9038,-0.2410
5.6200,-0.2028,-0.9038,-0.2410
5.6400,-0.1889,-0.9104,-0.2498
5.6400,-0.1889,-0.9104,-0.2498
5.6400,-0.1889,-0.9104,-0.2498
5.6600,-0.1642,-0.9265,-0.2632
5.6600,-0.1642,-0.9265,-0.2632
5.6600,-0.1642,-0.9265,-0.2632
5.6640,-0.1642,-0.9265,-0.2632
5.6640,-0.1642,-0.9265,-0.2632
5.6750,-0.1642,-0.9265,-0.2632
5.6800,-0.1703,-0.9282,-0.2613
5.6810,-0.1703,-0.9282,-0.2613
5.6810,-0.1703,-0.9282,-0.2613
5.7000,-0.1669,-0.9101,-0.2547
5.7000,-0.1669,-0.9101,-0.2547
5.7010,-0.1669,-0.9101,-0.2547
5.7210,-0.1611,-0.9064,-0.2547
5.7210,-0.1611,-0.9064,-0.2547
5.7210,-0.1611,-0.9064,-0.2547
5.7420,-0.1684,-0.9096,-0.2701
5.7420,-0.1684,-0.9096,-0.2701
5.7420,-0.1684,-0.9096,-0.2701
5.7420,-0.1684,-0.9096,-0.2701
5.7430,-0.1684,-0.9096,-0.2701
5.7600,-0.1843,-0.9099,-0.2737
5.7600,-0.1843,-0.9099,-0.2737
5.7600,-0.1843,-0.9099,-0.2737
5.7800,-0.1862,-0.9086,-0.2544
5.7800,-0.1862,-0.9086,-0.2544
5.7810,-0.1862,-0.9086,-0.2544
5.8010,-0.2014,-0.9003,-0.2493
5.8010,-0.2014,-0.9003,-0.2493
5.8010,-0.2014,-0.9003,-0.2493
5.8200,-0.2063,-0.9006,-0.2375
5.8200,-0.2063,-0.9006,-0.2375
5.8200,-0.2063,-0.9006,-0.2375
5.8230,-0.2063,-0.9006,-0.2375
5.8240,-0.2063,-0.9006,-0.2375
5.8400,-0.2041,-0.8935,-0.2544
5.8400,-0.2041,-0.8935,-0.2544
5.8400,-0.2041,-0.8935,-0.2544
5.8600,-0.2031,-0.9064,-0.2542
5.8600,-0.2031,-0.9064,-0.2542
5.8600,-0.2031,-0.9064,-0.2542
5.8800,-0.2031,-0.9064,-0.2542
5.8820,-0.2090,-0.9138,-0.2544
5.8820,-0.2090,-0.9138,-0.2544
5.9260,-0.2090,-0.9138,-0.2544
5.9260,-0.1835,-0.9150,-0.2610
5.9260,-0.1835,-0.9150,-0.2610
5.9260,-0.1835,-0.9150,-0.2610
5.9260,-0.1835,-0.9150,-0.2610
5.9260,-0.1835,-0.9150,-0.2610
5.9260,-0.1723,-0.9292,-0.2674
5.9260,-0.1723,-0.9292,-0.2674
5.9270,-0.1723,-0.9292,-0.2674
5.9400,-0.1581,-0.9328,-0.2713
5.9400,-0.1581,-0.9328,-0.2713
5.9400,-0.1581,-0.9328,-0.2713
5.9590,-0.1481,-0.9245,-0.2647
5.9600,-0.1481,-0.9245,-0.2647
5.9600,-0.1481,-0.9245,-0.2647
5.9790,-0.1747,-0.9045,-0.2564
5.9790,-0.1747,-0.9045,-0.2564
5.9790,-0.1747,-0.9045,-0.2564
5.9810,-0.1747,-0.9045,-0.2564
5.9810,-0.1747,-0.9045,-0.2564
5.9990,-0.2011,-0.8989,-0.2500
5.9990,-0.2011,-0.8989,-0.2500
5.9990,-0.2011,-0.8989,-0.2500
6.0190,-0.1852,-0.9201,-0.2576
6.0200,-0.1852,-0.9201,-0.2576
6.0200,-0.1852,-0.9201,-0.2576
6.0400,-0.1742,-0.9321,-0.2461
6.0400,-0.1742,-0.9321,-0.2461
6.0410,-0.1742,-0.9321,-0.2461
6.0600,-0.1694,-0.9184,-0.2437
6.0600,-0.1694,-0.9184,-0.2437
6.0600,-0.1694,-0.9184,-0.2437
6.0600,-0.1694,-0.9184,-0.2437
6.0610,-0.1694,-0.9184,-0.2437
6.0730,-0.1694,-0.9184,-0.2437
6.0820,-0.1826,-0.9038,-0.2434
6.0820,-0.1826,-0.9038,-0.2434
6.0820,-0.1826,-0.9038,-0.2434
6.0980,-0.1811,-0.9016,-0.2441
6.0980,-0.1811,-0.9016,-0.2441
6.0980,-0.1811,-0.9016,-0.2441
6.1170,-0.1796,-0.9013,-0.2529
6.1170,-0.1796,-0.9013,-0.2529
6.1180,-0.1796,-0.9013,-0.2529
6.1390,-0.1914,-0.8959,-0.2576
6.1390,-0.1914,-0.8959,-0.2576
6.1400,-0.1914,-0.8959,-0.2576
6.1400,-0.1914,-0.8959,-0.2576
6.1400,-0.1914,-0.8959,-0.2576
6.1620,-0.2070,-0.9152,-0.2549
6.1620,-0.2070,-0.9152,-0.2549
6.1620,-0.2070,-0.9152,-0.2549
6.1800,-0.1899,-0.9099,-0.2688
6.1800,-0.1899,-0.9099,-0.2688
6.1800,-0.1899,-0.9099,-0.2688
6.2000,-0.1655,-0.9096,-0.2615
6.2010,-0.1655,-0.9096,-0.2615
6.2010,-0.1655,-0.9096,-0.2615
6.2200,-0.1598,-0.9294,-0.2569
6.2200,-0.1598,-0.9294,-0.2569
6.2200,-0.1598,-0.9294,-0.2569
6.2210,-0.1598,-0.9294,-0.2569
6.2210,-0.1598,-0.9294,-0.2569
6.2410,-0.1461,-0.9248,-0.2466
6.2410,-0.1461,-0.9248,-0.2466
6.2420,-0.1461,-0.9248,-0.2466
6.2610,-0.1461,-0.9038,-0.2583
6.2610,-0.1461,-0.9038,-0.2583
6.2610,-0.1461,-0.9038,-0.2583
6.2720,-0.1461,-0.9038,-0.2583
6.2790,-0.1664,-0.8964,-0.2708
6.2800,-0.1664,-0.8964,-0.2708
6.2800,-0.1664,-0.8964,-0.2708
6.2990,-0.1713,-0.9067,-0.2791
6.2990,-0.1713,-0.9067,-0.2791
6.2990,-0.1713,-0.9067,-0.2791
6.3010,-0.1713,-0.9067,-0.2791
6.3010,-0.1713,-0.9067,-0.2791
6.3170,-0.1723,-0.9248,-0.2713
6.3170,-0.1723,-0.9248,-0.2713
6.3170,-0.1723,-0.9248,-0.2713
6.3380,-0.1813,-0.9279,-0.2674
6.3380,-0.1813,-0.9279,-0.2674
6.3380,-0.1813,-0.9279,-0.2674
6.3580,-0.2016,-0.9140,-0.2527
6.3590,-0.2016,-0.9140,-0.2527
6.3590,-0.2016,-0.9140,-0.2527
6.3780,-0.2192,-0.8996,-0.2437
6.3780,-0.2192,-0.8996,-0.2437
6.3790,-0.2192,-0.8996,-0.2437
6.3790,-0.2192,-0.8996,-0.2437
6.3790,-0.2192,-0.8996,-0.2437
6.3990,-0.2163,-0.8967,-0.2473
6.4000,-0.2163,-0.8967,-0.2473
6.4000,-0.2163,-0.8967,-0.2473
6.4180,-0.2114,-0.9150,-0.2363
6.4180,-0.2114,-0.9150,-0.2363
6.4180,-0.2114,-0.9150,-0.2363
6.4400,-0.1928,-0.9267,-0.2363
6.4410,-0.1928,-0.9267,-0.2363
6.4860,-0.1928,-0.9267,-0.2363
6.4870,-0.1796,-0.9189,-0.2532
6.4870,-0.1796,-0.9189,-0.2532
6.4870,-0.1796,-0.9189,-0.2532
6.4870,-0.1796,-0.9189,-0.2532
6.4870,-0.1796,-0.9189,-0.2532
6.4870,-0.1796,-0.9189,-0.2532
6.4870,-0.1713,-0.9079,-0.2657
6.4870,-0.1713,-0.9079,-0.2657
6.4870,-0.1713,-0.9079,-0.2657
6.4980,-0.1603,-0.9052,-0.2637
6.4980,-0.1603,-0.9052,-0.2637
6.4980,-0.1603,-0.9052,-0.2637
6.5190,-0.1953,-0.9062,-0.2547
6.5190,-0.1953,-0.9062,-0.2547
6.5190,-0.1953,-0.9062,-0.2547
6.5370,-0.1960,-0.9091,-0.2737
6.5380,-0.1960,-0.9091,-0.2737
6.5380,-0.1960,-0.9091,-0.2737
6.5400,-0.1960,-0.9091,-0.2737
6.5410,-0.1960,-0.9091,-0.2737
6.5580,-0.1703,-0.9179,-0.2703
6.5580,-0.1703,-0.9179,-0.2703
6.5590,-0.1703,-0.9179,-0.2703
6.5790,-0.1706,-0.9165,-0.2478
6.5800,-0.1706,-0.9165,-0.2478
6.5800,-0.1706,-0.9165,-0.2478
6.5990,-0.1750,-0.9062,-0.2407
6.6000,-0.1750,-0.9062,-0.2407
6.6000,-0.1750,-0.9062,-0.2407
6.6190,-0.1899,-0.9038,-0.2473
6.6190,-0.1899,-0.9038,-0.2473
6.6190,-0.1899,-0.9038,-0.2473
6.6220,-0.1899,-0.9038,-0.2473
6.6230,-0.1899,-0.9038,-0.2473
6.6370,-0.1865,-0.9052,-0.2481
6.6370,-0.1865,-0.9052,-0.2481
6.6380,-0.1865,-0.9052,-0.2481
6.6590,-0.1911,-0.9016,-0.2512
6.6600,-0.1911,-0.9016,-0.2512
6.6610,-0.1911,-0.9016,-0.2512
6.6690,-0.1911,-0.9016,-0.2512
6.6800,-0.2046,-0.9038,-0.2441
6.6800,-0.2046,-0.9038,-0.2441
6.6810,-0.2046,-0.9038,-0.2441
6.6960,-0.2046,-0.9038,-0.2441
6.6970,-0.1923,-0.8996,-0.2539
6.6990,-0.1923,-0.8996,-0.2539
6.7000,-0.1923,-0.8996,-0.2539
6.7020,-0.1923,-0.8996,-0.2539
6.7030,-0.1923,-0.8996,-0.2539
6.7140,-0.1860,-0.9057,-0.2649
6.7160,-0.1860,-0.9057,-0.2649
6.7170,-0.1860,-0.9057,-0.2649
6.7380,-0.1677,-0.9375,-0.2608
6.7400,-0.1677,-0.9375,-0.2608
6.7400,-0.1677,-0.9375,-0.2608
6.7540,-0.1454,-0.9319,-0.2507
6.7550,-0.1454,-0.9319,-0.2507
6.7550,-0.1454,-0.9319,-0.2507
6.7730,-0.1454,-0.9319,-0.2507
6.7730,-0.1505,-0.8969,-0.2495
6.7730,-0.1505,-0.8969,-0.2495
6.7760,-0.1505,-0.8969,-0.2495
6.7770,-0.1505,-0.8969,-0.2495
6.7920,-0.1684,-0.8918,-0.2554
6.7920,-0.1684,-0.8918,-0.2554
6.7920,-0.1684,-0.8918,-0.2554
6.8130,-0.1625,-0.9118,-0.2679
6.8130,-0.1625,-0.9118,-0.2679
6.8130,-0.1625,-0.9118,-0.2679
6.8310,-0.1811,-0.9245,-0.2708
6.8320,-0.1811,-0.9245,-0.2708
6.8320,-0.1811,-0.9245,-0.2708
6.8520,-0.2109,-0.9135,-0.2551
6.8520,-0.2109,-0.9135,-0.2551
6.8520,-0.2109,-0.9135,-0.2551
6.8550,-0.2109,-0.9135,-0.2551
6.8550,-0.2109,-0.9135,-0.2551
6.8650,-0.2109,-0.9135,-0.2551
6.8710,-0.2268,-0.9042,-0.2437
6.8710,-0.2268,-0.9042,-0.2437
6.8720,-0.2268,-0.9042,-0.2437
6.8920,-0.2312,-0.9099,-0.2417
6.8920,-0.2312,-0.9099,-0.2417
6.8930,-0.2312,-0.9099,-0.2417
6.9110,-0.2151,-0.9255,-0.2500
6.9110,-0.2151,-0.9255,-0.2500
6.9120,-0.2151,-0.9255,-0.2500
6.9310,-0.2094,-0.9218,-0.2422
6.9310,-0.2094,-0.9218,-0.2422
6.9310,-0.2094,-0.9218,-0.2422
6.9360,-0.2094,-0.9218,-0.2422
6.9360,-0.2094,-0.9218,-0.2422
6.9510,-0.2063,-0.9084,-0.2351
6.9520,-0.2063,-0.9084,-0.2351
6.9520,-0.2063,-0.9084,-0.2351
6.9700,-0.1894,-0.9050,-0.2385
6.9700,-0.1894,-0.9050,-0.2385
6.9710,-0.1894,-0.9050,-0.2385
7.0130,-0.1711,-0.9020,-0.2507
7.0130,-0.1711,-0.9020,-0.2507
7.0130,-0.1711,-0.9020,-0.2507
7.0130,-0.1701,-0.9064,-0.2542
7.0130,-0.1701,-0.9064,-0.2542
7.0130,-0.1701,-0.9064,-0.2542
7.0140,-0.1701,-0.9064,-0.2542
7.0140,-0.1701,-0.9064,-0.2542
7.0320,-0.1618,-0.9111,-0.2588
7.0330,-0.1618,-0.9111,-0.2588
7.0330,-0.1618,-0.9111,-0.2588
7.0590,-0.1718,-0.9038,-0.2705
7.0590,-0.1718,-0.9038,-0.2705
7.0590,-0.1718,-0.9038,-0.2705
7.0670,-0.1718,-0.9038,-0.2705
7.0780,-0.2038,-0.9020,-0.2544
7.0780,-0.2038,-0.9020,-0.2544
7.0780,-0.2038,-0.9020,-0.2544
7.0890,-0.2038,-0.9020,-0.2544
7.0910,-0.1980,-0.9106,-0.2603
7.0920,-0.1980,-0.9106,-0.2603
7.0920,-0.1980,-0.9106,-0.2603
7.0950,-0.1980,-0.9106,-0.2603
7.0950,-0.1980,-0.9106,-0.2603
7.1110,-0.1999,-0.9099,-0.2581
7.1120,-0.1999,-0.9099,-0.2581
7.1120,-0.1999,-0.9099,-0.2581
7.1390,-0.1877,-0.9086,-0.2583
7.1390,-0.1877,-0.9086,-0.2583
7.1400,-0.1877,-0.9086,-0.2583
7.1530,-0.1681,-0.9160,-0.2539
7.1530,-0.1681,-0.9160,-0.2539
7.1530,-0.1681,-0.9160,-0.2539
7.1720,-0.1823,-0.9138,-0.2456
7.1720,-0.1823,-0.9138,-0.2456
7.1720,-0.1823,-0.9138,-0.2456
7.1750,-0.1823,-0.9138,-0.2456
7.1750,-0.1823,-0.9138,-0.2456
7.1990,-0.1786,-0.9033,-0.2512
7.1990,-0.1786,-0.9033,-0.2512
7.1990,-0.1786,-0.9033,-0.2512
7.2120,-0.1872,-0.9116,-0.2378
7.2120,-0.1872,-0.9116,-0.2378
7.2120,-0.1872,-0.9116,-0.2378
7.2350,-0.2014,-0.9104,-0.2625
7.2350,-0.2014,-0.9104,-0.2625
7.2350,-0.2014,-0.9104,-0.2625
7.2520,-0.1699,-0.9179,-0.3199
7.2520,-0.1699,-0.9179,-0.3199
7.2530,-0.1699,-0.9179,-0.3199
7.2550,-0.1699,-0.9179,-0.3199
7.2550,-0.1699,-0.9179,-0.3199
7.2630,-0.1699,-0.9179,-0.3199
7.2720,-0.1540,-0.9407,-0.2960
7.2720,-0.1540,-0.9407,-0.2960
7.2720,-0.1540,-0.9407,-0.2960
7.2940,-0.1540,-0.9407,-0.2960
7.2950,-0.1630,-0.9267,-0.2505
7.2950,-0.1630,-0.9267,-0.2505
7.2950,-0.1630,-0.9267,-0.2505
7.3170,-0.1679,-0.8859,-0.2202
7.3170,-0.1679,-0.8859,-0.2202
7.3180,-0.1679,-0.8859,-0.2202
7.3320,-0.1779,-0.8720,-0.2031
7.3320,-0.1779,-0.8720,-0.2031
7.3320,-0.1779,-0.8720,-0.2031
7.3340,-0.1779,-0.8720,-0.2031
7.3350,-0.1779,-0.8720,-0.2031
7.3520,-0.1777,-0.8776,-0.2371
7.3520,-0.1777,-0.8776,-0.2371
7.3520,-0.1777,-0.8776,-0.2371
7.3750,-0.1918,-0.8986,-0.2505
7.3750,-0.1918,-0.8986,-0.2505
7.3750,-0.1918,-0.8986,-0.2505
7.3910,-0.2197,-0.9116,-0.2576
7.3920,-0.2197,-0.9116,-0.2576
7.3920,-0.2197,-0.9116,-0.2576
7.4140,-0.2192,-0.9284,-0.2385
7.4150,-0.2192,-0.9284,-0.2385
7.4150,-0.2192,-0.9284,-0.2385
7.4150,-0.2192,-0.9284,-0.2385
7.4150,-0.2192,-0.9284,-0.2385
7.4320,-0.2112,-0.9443,-0.2405
7.4320,-0.2112,-0.9443,-0.2405
7.4330,-0.2112,-0.9443,-0.2405
7.4510,-0.2141,-0.9284,-0.2422
7.4510,-0.2141,-0.9284,-0.2422
7.4510,-0.2141,-0.9284,-0.2422
7.4620,-0.2141,-0.9284,-0.2422
7.4740,-0.2031,-0.9184,-0.2576
7.4740,-0.2031,-0.9184,-0.2576
7.4740,-0.2031,-0.9184,-0.2576
7.4880,-0.2031,-0.9184,-0.2576
7.4910,-0.1799,-0.9174,-0.2747
7.4910,-0.1799,-0.9174,-0.2747
7.4910,-0.1799,-0.9174,-0.2747
7.4940,-0.1799,-0.9174,-0.2747
7.4940,-0.1799,-0.9174,-0.2747
7.5110,-0.1691,-0.9130,-0.2676
7.5110,-0.1691,-0.9130,-0.2676
7.5540,-0.1691,-0.9130,-0.2676
7.5550,-0.1650,-0.9025,-0.2679
7.5550,-0.1650,-0.9025,-0.2679
7.5550,-0.1650,-0.9025,-0.2679
7.5550,-0.1735,-0.9086,-0.2710
7.5550,-0.1735,-0.9086,-0.2710
7.5550,-0.1735,-0.9086,-0.2710
7.5700,-0.1843,-0.9209,-0.2569
7.5700,-0.1843,-0.9209,-0.2569
7.5700,-0.1843,-0.9209,-0.2569
7.5720,-0.1843,-0.9209,-0.2569
7.5720,-0.1843,-0.9209,-0.2569
7.5940,-0.1755,-0.9155,-0.2703
7.5940,-0.1755,-0.9155,-0.2703
7.5940,-0.1755,-0.9155,-0.2703
7.6130,-0.1779,-0.9042,-0.2671
7.6130,-0.1779,-0.9042,-0.2671
7.6140,-0.1779,-0.9042,-0.2671
7.6290,-0.1848,-0.8996,-0.2630
7.6290,-0.1848,-0.8996,-0.2630
7.6290,-0.1848,-0.8996,-0.2630
7.6530,-0.1811,-0.9030,-0.2635
7.6530,-0.1811,-0.9030,-0.2635
7.6530,-0.1811,-0.9030,-0.2635
7.6540,-0.1811,-0.9030,-0.2635
7.6540,-0.1811,-0.9030,-0.2635
7.6630,-0.1811,-0.9030,-0.2635
7.6690,-0.1870,-0.9143,-0.2554
7.6690,-0.1870,-0.9143,-0.2554
7.6690,-0.1870,-0.9143,-0.2554
7.6850,-0.1870,-0.9143,-0.2554
7.6890,-0.1894,-0.9148,-0.2784
7.6900,-0.1894,-0.9148,-0.2784
7.6900,-0.1894,-0.9148,-0.2784
7.7130,-0.1918,-0.9069,-0.2994
7.7130,-0.1918,-0.9069,-0.2994
7.7130,-0.1918,-0.9069,-0.2994
7.7280,-0.1892,-0.8996,-0.2788
7.7280,-0.1892,-0.8996,-0.2788
7.7290,-0.1892,-0.8996,-0.2788
7.7310,-0.1892,-0.8996,-0.2788
7.7320,-0.1892,-0.8996,-0.2788
7.7480,-0.1870,-0.8862,-0.2537
7.7480,-0.1870,-0.8862,-0.2537
7.7490,-0.1870,-0.8862,-0.2537
7.7680,-0.1655,-0.8972,-0.2363
7.7680,-0.1655,-0.8972,-0.2363
7.7690,-0.1655,-0.8972,-0.2363
7.7870,-0.1992,-0.9311,-0.2307
7.7870,-0.1992,-0.9311,-0.2307
7.7870,-0.1992,-0.9311,-0.2307
7.8060,-0.1936,-0.9389,-0.2307
7.8070,-0.1936,-0.9389,-0.2307
7.8070,-0.1936,-0.9389,-0.2307
7.8090,-0.1936,-0.9389,-0.2307
7.8090,-0.1936,-0.9389,-0.2307
7.8260,-0.1515,-0.8967,-0.2703
7.8260,-0.1515,-0.8967,-0.2703
7.8260,-0.1515,-0.8967,-0.2703
7.8460,-0.1840,-0.8866,-0.2850
7.8460,-0.1840,-0.8866,-0.2850
7.8460,-0.1840,-0.8866,-0.2850
7.8570,-0.1840,-0.8866,-0.2850
7.8660,-0.2207,-0.8920,-0.2903
7.8660,-0.2207,-0.8920,-0.2903
7.8660,-0.2207,-0.8920,-0.2903
7.8820,-0.2207,-0.8920,-0.2903
7.8860,-0.1857,-0.9016,-0.2703
7.8860,-0.1857,-0.9016,-0.2703
7.8860,-0.1857,-0.9016,-0.2703
7.8900,-0.1857,-0.9016,-0.2703
7.8900,-0.1857,-0.9016,-0.2703
7.9060,-0.1945,-0.9152,-0.2473
7.9060,-0.1945,-0.9152,-0.2473
7.9060,-0.1945,-0.9152,-0.2473
7.9280,-0.2202,-0.8976,-0.2466
7.9280,-0.2202,-0.8976,-0.2466
7.9280,-0.2202,-0.8976,-0.2466
7.9490,-0.2038,-0.9020,-0.2473
7.9490,-0.2038,-0.9020,-0.2473
7.9490,-0.2038,-0.9020,-0.2473
7.9670,-0.1982,-0.9231,-0.2485
7.9680,-0.1982,-0.9231,-0.2485
7.9680,-0.1982,-0.9231,-0.2485
7.9700,-0.1982,-0.9231,-0.2485
7.9700,-0.1982,-0.9231,-0.2485
7.9880,-0.1999,-0.9297,-0.2415
7.9880,-0.1999,-0.9297,-0.2415
7.9880,-0.1999,-0.9297,-0.2415
8.0070,-0.1989,-0.9255,-0.2654
8.0070,-0.1989,-0.9255,-0.2654
8.0070,-0.1989,-0.9255,-0.2654
8.0280,-0.1987,-0.9243,-0.2884
8.0280,-0.1987,-0.9243,-0.2884
8.0280,-0.1987,-0.9243,-0.2884
8.0510,-0.1906,-0.9167,-0.2744
8.0510,-0.1906,-0.9167,-0.2744
8.0520,-0.1906,-0.9167,-0.2744
8.0540,-0.1906,-0.9167,-0.2744
8.0540,-0.1906,-0.9167,-0.2744
8.1020,-0.1906,-0.9167,-0.2744
8.1020,-0.1767,-0.8967,-0.2691
8.1030,-0.1767,-0.8967,-0.2691
8.1030,-0.1767,-0.8967,-0.2691
8.1030,-0.1850,-0.8876,-0.2786
8.1030,-0.1850,-0.8876,-0.2786
8.1030,-0.1850,-0.8876,-0.2786
8.1060,-0.1987,-0.9064,-0.2781
8.1060,-0.1987,-0.9064,-0.2781
8.1060,-0.1987,-0.9064,-0.2781
8.1270,-0.1921,-0.9196,-0.2725
8.1270,-0.1921,-0.9196,-0.2725
8.1270,-0.1921,-0.9196,-0.2725
8.1280,-0.1921,-0.9196,-0.2725
8.1280,-0.1921,-0.9196,-0.2725
8.1470,-0.2070,-0.9011,-0.2573
8.1480,-0.2070,-0.9011,-0.2573
8.1480,-0.2070,-0.9011,-0.2573
8.1650,-0.2143,-0.8898,-0.2500
8.1650,-0.2143,-0.8898,-0.2500
8.1650,-0.2143,-0.8898,-0.2500
8.1870,-0.1984,-0.9033,-0.2595
8.1870,-0.1984,-0.9033,-0.2595
8.1870,-0.1984,-0.9033,-0.2595
8.2060,-0.2046,-0.9162,-0.2664
8.2070,-0.2046,-0.9162,-0.2664
8.2070,-0.2046,-0.9162,-0.2664
8.2070,-0.2046,-0.9162,-0.2664
8.2070,-0.2046,-0.9162,-0.2664
8.2260,-0.1950,-0.9113,-0.2725
8.2260,-0.1950,-0.9113,-0.2725
8.2270,-0.1950,-0.9113,-0.2725
8.2460,-0.1716,-0.9082,-0.2613
8.2460,-0.1716,-0.9082,-0.2613
8.2470,-0.1716,-0.9082,-0.2613
8.2610,-0.1716,-0.9082,-0.2613
8.2670,-0.1813,-0.8920,-0.2581
8.2670,-0.1813,-0.8920,-0.2581
8.2670,-0.1813,-0.8920,-0.2581
8.2860,-0.2158,-0.8952,-0.2517
8.2860,-0.2158,-0.8952,-0.2517
8.2860,-0.2158,-0.8952,-0.2517
8.2860,-0.2158,-0.8952,-0.2517
8.2870,-0.2158,-0.8952,-0.2517
8.3070,-0.1857,-0.9150,-0.2576
8.3070,-0.1857,-0.9150,-0.2576
8.3080,-0.1857,-0.9150,-0.2576
8.3260,-0.1623,-0.9248,-0.2561
8.3260,-0.1623,-0.9248,-0.2561
8.3260,-0.1623,-0.9248,-0.2561
8.3460,-0.1826,-0.9047,-0.2569
8.3460,-0.1826,-0.9047,-0.2569
8.3460,-0.1826,-0.9047,-0.2569
8.3660,-0.2021,-0.8937,-0.2762
8.3660,-0.2021,-0.8937,-0.2762
8.3670,-0.2021,-0.8937,-0.2762
8.3670,-0.2021,-0.8937,-0.2762
8.3670,-0.2021,-0.8937,-0.2762
8.3870,-0.1953,-0.9084,-0.2813
8.3870,-0.1953,-0.9084,-0.2813
8.3880,-0.1953,-0.9084,-0.2813
8.4050,-0.1823,-0.9069,-0.2747
8.4060,-0.1823,-0.9069,-0.2747
8.4060,-0.1823,-0.9069,-0.2747
8.4240,-0.1833,-0.8825,-0.2791
8.4250,-0.1833,-0.8825,-0.2791
8.4250,-0.1833,-0.8825,-0.2791
8.4450,-0.2050,-0.8725,-0.2803
8.4450,-0.2050,-0.8725,-0.2803
8.4450,-0.2050,-0.8725,-0.2803
8.4480,-0.2050,-0.8725,-0.2803
8.4480,-0.2050,-0.8725,-0.2803
8.4600,-0.2050,-0.8725,-0.2803
8.4650,-0.2141,-0.8818,-0.2681
8.4650,-0.2141,-0.8818,-0.2681
8.4660,-0.2141,-0.8818,-0.2681
8.4840,-0.2043,-0.8986,-0.2591
8.4840,-0.2043,-0.8986,-0.2591
8.4840,-0.2043,-0.8986,-0.2591
8.5040,-0.2136,-0.9116,-0.2500
8.5040,-0.2136,-0.9116,-0.2500
8.5040,-0.2136,-0.9116,-0.2500
8.5240,-0.2241,-0.9157,-0.2532
8.5240,-0.2241,-0.9157,-0.2532
8.5250,-0.2241,-0.9157,-0.2532
8.5250,-0.2241,-0.9157,-0.2532
8.5250,-0.2241,-0.9157,-0.2532
8.5450,-0.2065,-0.9209,-0.2713
8.5450,-0.2065,-0.9209,-0.2713
8.5450,-0.2065,-0.9209,-0.2713
8.5640,-0.1916,-0.9272,-0.2620
8.5640,-0.1916,-0.9272,-0.2620
8.5650,-0.1916,-0.9272,-0.2620
8.5840,-0.1804,-0.9248,-0.2652
8.5840,-0.1804,-0.9248,-0.2652
8.5840,-0.1804,-0.9248,-0.2652
8.6040,-0.1730,-0.9126,-0.2625
8.6040,-0.1730,-0.9126,-0.2625
8.6050,-0.1730,-0.9126,-0.2625
8.6050,-0.1730,-0.9126,-0.2625
8.6580,-0.1730,-0.9126,-0.2625
8.6580,-0.1760,-0.9118,-0.2654
8.6580,-0.1760,-0.9118,-0.2654
8.6590,-0.1760,-0.9118,-0.2654
8.6590,-0.1633,-0.9128,-0.2774
8.6590,-0.1633,-0.9128,-0.2774
8.6590,-0.1633,-0.9128,-0.2774
8.6590,-0.1633,-0.9128,-0.2774
8.6630,-0.1650,-0.9160,-0.2803
8.6630,-0.1650,-0.9160,-0.2803
8.6630,-0.1650,-0.9160,-0.2803
8.6820,-0.1870,-0.9126,-0.2793
8.6820,-0.1870,-0.9126,-0.2793
8.6820,-0.1870,-0.9126,-0.2793
8.6840,-0.1870,-0.9126,-0.2793
8.6840,-0.1870,-0.9126,-0.2793
8.7030,-0.2014,-0.8998,-0.2657
8.7030,-0.2014,-0.8998,-0.2657
8.7030,-0.2014,-0.8998,-0.2657
8.7210,-0.2072,-0.9001,-0.2666
8.7220,-0.2072,-0.9001,-0.2666
8.7220,-0.2072,-0.9001,-0.2666
8.7420,-0.2102,-0.9038,-0.2720
8.7420,-0.2102,-0.9038,-0.2720
8.7420,-0.2102,-0.9038,-0.2720
8.7620,-0.2028,-0.9042,-0.2635
8.7620,-0.2028,-0.9042,-0.2635
8.7630,-0.2028,-0.9042,-0.2635
8.7650,-0.2028,-0.9042,-0.2635
8.7660,-0.2028,-0.9042,-0.2635
8.7820,-0.1943,-0.8998,-0.2740
8.7830,-0.1943,-0.8998,-0.2740
8.7830,-0.1943,-0.8998,-0.2740
8.8020,-0.1940,-0.8979,-0.2647
8.8020,-0.1940,-0.8979,-0.2647
8.8030,-0.1940,-0.8979,-0.2647
8.8220,-0.1894,-0.9047,-0.2407
8.8220,-0.1894,-0.9047,-0.2407
8.8230,-0.1894,-0.9047,-0.2407
8.8410,-0.1782,-0.9089,-0.2481
8.8420,-0.1782,-0.9089,-0.2481
8.8420,-0.1782,-0.9089,-0.2481
8.8430,-0.1782,-0.9089,-0.2481
8.8430,-0.1782,-0.9089,-0.2481
8.8520,-0.1782,-0.9089,-0.2481
8.8640,-0.1874,-0.9016,-0.2554
8.8640,-0.1874,-0.9016,-0.2554
8.8650,-0.1874,-0.9016,-0.2554
8.8820,-0.1940,-0.9011,-0.2654
8.8820,-0.1940,-0.9011,-0.2654
8.8830,-0.1940,-0.9011,-0.2654
8.9050,-0.1655,-0.9262,-0.2832
8.9050,-0.1655,-0.9262,-0.2832
8.9060,-0.1655,-0.9262,-0.2832
8.9220,-0.1718,-0.9465,-0.2627
8.9230,-0.1718,-0.9465,-0.2627
8.9230,-0.1718,-0.9465,-0.2627
8.9240,-0.1718,-0.9465,-0.2627
8.9250,-0.1718,-0.9465,-0.2627
8.9420,-0.1960,-0.9279,-0.2600
8.9420,-0.1960,-0.9279,-0.2600
8.9430,-0.1960,-0.9279,-0.2600
8.9610,-0.1747,-0.9086,-0.2691
8.9610,-0.1747,-0.9086,-0.2691
8.9620,-0.1747,-0.9086,-0.2691
8.9810,-0.1567,-0.9084,-0.2669
8.9820,-0.1567,-0.9084,-0.2669
8.9820,-0.1567,-0.9084,-0.2669
9.0020,-0.1747,-0.8991,-0.2730
9.0030,-0.1747,-0.8991,-0.2730
9.0030,-0.1747,-0.8991,-0.2730
9.0040,-0.1747,-0.8991,-0.2730
9.0040,-0.1747,-0.8991,-0.2730
9.0220,-0.1914,-0.8994,-0.2693
9.0230,-0.1914,-0.8994,-0.2693
9.0240,-0.1914,-0.8994,-0.2693
9.0420,-0.2072,-0.8920,-0.2605
9.0420,-0.2072,-0.8920,-0.2605
9.0430,-0.2072,-0.8920,-0.2605
9.0490,-0.2072,-0.8920,-0.2605
9.0610,-0.2295,-0.8864,-0.2666
9.0650,-0.2295,-0.8864,-0.2666
9.0650,-0.2295,-0.8864,-0.2666
9.0770,-0.2295,-0.8864,-0.2666
9.0830,-0.2417,-0.8959,-0.2591
9.0830,-0.2417,-0.8959,-0.2591
9.0840,-0.2417,-0.8959,-0.2591
9.0840,-0.2417,-0.8959,-0.2591
9.0850,-0.2417,-0.8959,-0.2591
9.1020,-0.2180,-0.9096,-0.2424
9.1020,-0.2180,-0.9096,-0.2424
9.1030,-0.2180,-0.9096,-0.2424
9.1210,-0.2141,-0.9182,-0.2422
9.1220,-0.2141,-0.9182,-0.2422
9.1220,-0.2141,-0.9182,-0.2422
9.1420,-0.2004,-0.9179,-0.2495
9.1430,-0.2004,-0.9179,-0.2495
9.1430,-0.2004,-0.9179,-0.2495
9.1610,-0.1830,-0.9218,-0.2522
9.1620,-0.1830,-0.9218,-0.2522
9.2360,-0.1830,-0.9218,-0.2522
9.2370,-0.1830,-0.9218,-0.2522
9.2370,-0.1830,-0.9218,-0.2522
9.2370,-0.1764,-0.9221,-0.2483
9.2370,-0.1764,-0.9221,-0.2483
9.2370,-0.1764,-0.9221,-0.2483
9.2370,-0.1742,-0.9045,-0.2649
9.2370,-0.1742,-0.9045,-0.2649
9.2380,-0.1742,-0.9045,-0.2649
9.2380,-0.1645,-0.9035,-0.2696
9.2380,-0.1645,-0.9035,-0.2696
9.2380,-0.1645,-0.9035,-0.2696
9.2380,-0.1645,-0.9094,-0.2639
9.2380,-0.1645,-0.9094,-0.2639
9.2380,-0.1645,-0.9094,-0.2639
9.2410,-0.1645,-0.9094,-0.2639
9.2410,-0.1645,-0.9094,-0.2639
9.2480,-0.1645,-0.9094,-0.2639
9.2590,-0.1777,-0.9040,-0.2730
9.2590,-0.1777,-0.9040,-0.2730
9.2600,-0.1777,-0.9040,-0.2730
9.2780,-0.2075,-0.8972,-0.2681
9.2780,-0.2075,-0.8972,-0.2681
9.2780,-0.2075,-0.8972,-0.2681
9.2980,-0.2190,-0.8964,-0.2715
9.2980,-0.2190,-0.8964,-0.2715
9.2980,-0.2190,-0.8964,-0.2715
9.3180,-0.2075,-0.9023,-0.2691
9.3180,-0.2075,-0.9023,-0.2691
9.3180,-0.2075,-0.9023,-0.2691
9.3190,-0.2075,-0.9023,-0.2691
9.3190,-0.2075,-0.9023,-0.2691
9.3400,-0.2068,-0.9162,-0.2544
9.3400,-0.2068,-0.9162,-0.2544
9.3400,-0.2068,-0.9162,-0.2544
9.3590,-0.1896,-0.9189,-0.2427
9.3590,-0.1896,-0.9189,-0.2427
9.3590,-0.1896,-0.9189,-0.2427
9.3810,-0.1865,-0.9101,-0.2383
9.3810,-0.1865,-0.9101,-0.2383
9.3810,-0.1865,-0.9101,-0.2383
9.4010,-0.1816,-0.8893,-0.2588
9.4010,-0.1816,-0.8893,-0.2588
9.4010,-0.1816,-0.8893,-0.2588
9.4020,-0.1816,-0.8893,-0.2588
9.4020,-0.1816,-0.8893,-0.2588
9.4210,-0.1779,-0.8935,-0.2683
9.4210,-0.1779,-0.8935,-0.2683
9.4210,-0.1779,-0.8935,-0.2683
9.4400,-0.1918,-0.9145,-0.2522
9.4400,-0.1918,-0.9145,-0.2522
9.4400,-0.1918,-0.9145,-0.2522
9.4460,-0.1918,-0.9145,-0.2522
9.4600,-0.1962,-0.9204,-0.2542
9.4600,-0.1962,-0.9204,-0.2542
9.4610,-0.1962,-0.9204,-0.2542
9.4800,-0.1662,-0.9216,-0.2610
9.4800,-0.1662,-0.9216,-0.2610
9.4810,-0.1662,-0.9216,-0.2610
9.4810,-0.1662,-0.9216,-0.2610
9.4810,-0.1662,-0.9216,-0.2610
9.4990,-0.1672,-0.9275,-0.2571
9.4990,-0.1672,-0.9275,-0.2571
9.5000,-0.1672,-0.9275,-0.2571
9.5200,-0.1764,-0.9284,-0.2578
9.5200,-0.1764,-0.9284,-0.2578
9.5200,-0.1764,-0.9284,-0.2578
9.5400,-0.1652,-0.9218,-0.2622
9.5400,-0.1652,-0.9218,-0.2622
9.5400,-0.1652,-0.9218,-0.2622
9.5600,-0.1701,-0.9074,-0.2620
9.5600,-0.1701,-0.9074,-0.2620
9.5600,-0.1701,-0.9074,-0.2620
9.5610,-0.1701,-0.9074,-0.2620
9.5610,-0.1701,-0.9074,-0.2620
9.5790,-0.1845,-0.8950,-0.2637
9.5800,-0.1845,-0.8950,-0.2637
9.5800,-0.1845,-0.8950,-0.2637
9.5990,-0.1887,-0.9001,-0.2657
9.6000,-0.1887,-0.9001,-0.2657
9.6000,-0.1887,-0.9001,-0.2657
9.6210,-0.1826,-0.9086,-0.2832
9.6210,-0.1826,-0.9086,-0.2832
9.6210,-0.1826,-0.9086,-0.2832
9.6400,-0.2124,-0.9050,-0.2583
9.6410,-0.2124,-0.9050,-0.2583
9.6410,-0.2124,-0.9050,-0.2583
9.6410,-0.2124,-0.9050,-0.2583
9.6410,-0.2124,-0.9050,-0.2583
9.6450,-0.2124,-0.9050,-0.2583
9.6600,-0.2151,-0.9035,-0.2510
9.6600,-0.2151,-0.9035,-0.2510
9.6600,-0.2151,-0.9035,-0.2510
9.6800,-0.2136,-0.9165,-0.2407
9.6800,-0.2136,-0.9165,-0.2407
9.6800,-0.2136,-0.9165,-0.2407
9.7000,-0.2187,-0.9067,-0.2564
9.7010,-0.2187,-0.9067,-0.2564
9.7010,-0.2187,-0.9067,-0.2564
9.7200,-0.1823,-0.9057,-0.2554
9.7670,-0.1823,-0.9057,-0.2554
9.7670,-0.1823,-0.9057,-0.2554
9.7670,-0.1823,-0.9057,-0.2554
9.7670,-0.1823,-0.9057,-0.2554
9.7670,-0.1811,-0.9165,-0.2507
9.7670,-0.1811,-0.9165,-0.2507
9.7670,-0.1811,-0.9165,-0.2507
9.7670,-0.1745,-0.9118,-0.2603
9.7680,-0.1745,-0.9118,-0.2603
9.7680,-0.1745,-0.9118,-0.2603
9.7780,-0.1703,-0.9116,-0.2669
9.7780,-0.1703,-0.9116,-0.2669
9.7780,-0.1703,-0.9116,-0.2669
9.7980,-0.1706,-0.9157,-0.2652
9.7980,-0.1706,-0.9157,-0.2652
9.7980,-0.1706,-0.9157,-0.2652
9.8000,-0.1706,-0.9157,-0.2652
9.8000,-0.1706,-0.9157,-0.2652
9.8190,-0.1728,-0.9116,-0.2723
9.8190,-0.1728,-0.9116,-0.2723
9.8190,-0.1728,-0.9116,-0.2723
9.8370,-0.1796,-0.9067,-0.2693
9.8380,-0.1796,-0.9067,-0.2693
9.8380,-0.1796,-0.9067,-0.2693
9.8430,-0.1796,-0.9067,-0.2693
9.8590,-0.2072,-0.9062,-0.2503
9.8590,-0.2072,-0.9062,-0.2503
9.8590,-0.2072,-0.9062,-0.2503
9.8800,-0.2158,-0.9145,-0.2507
9.8800,-0.2158,-0.9145,-0.2507
9.8800,-0.2158,-0.9145,-0.2507
9.8810,-0.2158,-0.9145,-0.2507
9.8810,-0.2158,-0.9145,-0.2507
9.8990,-0.1923,-0.9165,-0.2581
9.8990,-0.1923,-0.9165,-0.2581
9.8990,-0.1923,-0.9165,-0.2581
9.9180,-0.2126,-0.9104,-0.2571
9.9190,-0.2126,-0.9104,-0.2571
9.9190,-0.2126,-0.9104,-0.2571
9.9380,-0.2119,-0.9025,-0.2613
9.9390,-0.2119,-0.9025,-0.2613
9.9390,-0.2119,-0.9025,-0.2613
9.9590,-0.1852,-0.9067,-0.2598
9.9590,-0.1852,-0.9067,-0.2598
9.9590,-0.1852,-0.9067,-0.2598
9.9600,-0.1852,-0.9067,-0.2598
9.9600,-0.1852,-0.9067,-0.2598
9.9760,-0.1860,-0.9172,-0.2547
9.9770,-0.1860,-0.9172,-0.2547
9.9780,-0.1860,-0.9172,-0.2547
9.9990,-0.1874,-0.9099,-0.2605
9.9990,-0.1874,-0.9099,-0.2605
10.0000,-0.1874,-0.9099,-0.2605
10.0220,-0.1723,-0.9025,-0.2595
10.0230,-0.1723,-0.9025,-0.2595
10.0230,-0.1723,-0.9025,-0.2595
10.0360,-0.1857,-0.8981,-0.2537
10.0370,-0.1857,-0.8981,-0.2537
10.0370,-0.1857,-0.8981,-0.2537
10.0390,-0.1857,-0.8981,-0.2537
10.0420,-0.1857,-0.8981,-0.2537
10.0420,-0.1857,-0.8981,-0.2537
10.0540,-0.2068,-0.9067,-0.2400
10.0540,-0.2068,-0.9067,-0.2400
10.0550,-0.2068,-0.9067,-0.2400
10.0700,-0.2068,-0.9067,-0.2400
10.0750,-0.2121,-0.9182,-0.2505
10.0750,-0.2121,-0.9182,-0.2505
10.0750,-0.2121,-0.9182,-0.2505
10.0960,-0.1735,-0.9248,-0.2620
10.0960,-0.1735,-0.9248,-0.2620
10.0970,-0.1735,-0.9248,-0.2620
10.1190,-0.1718,-0.9245,-0.2520
10.1190,-0.1718,-0.9245,-0.2520
10.1200,-0.1718,-0.9245,-0.2520
10.1200,-0.1718,-0.9245,-0.2520
10.1200,-0.1718,-0.9245,-0.2520
10.1360,-0.1828,-0.9152,-0.2385
10.1360,-0.1828,-0.9152,-0.2385
10.1370,-0.1828,-0.9152,-0.2385
10.1560,-0.1774,-0.9055,-0.2397
10.1570,-0.1774,-0.9055,-0.2397
10.1580,-0.1774,-0.9055,-0.2397
10.1770,-0.1735,-0.9008,-0.2595
10.1780,-0.1735,-0.9008,-0.2595
10.1790,-0.1735,-0.9008,-0.2595
10.2000,-0.1860,-0.9079,-0.2747
10.2000,-0.1860,-0.9079,-0.2747
10.2010,-0.1860,-0.9079,-0.2747
10.2020,-0.1860,-0.9079,-0.2747
10.2020,-0.1860,-0.9079,-0.2747
10.2190,-0.1791,-0.9228,-0.2681
10.2200,-0.1791,-0.9228,-0.2681
10.2210,-0.1791,-0.9228,-0.2681
10.2400,-0.1774,-0.9238,-0.2598
10.2440,-0.1774,-0.9238,-0.2598
10.2450,-0.1774,-0.9238,-0.2598
10.2450,-0.1774,-0.9238,-0.2598
10.2540,-0.1950,-0.9055,-0.2454
10.2550,-0.1950,-0.9055,-0.2454
10.3470,-0.1950,-0.9055,-0.2454
10.3480,-0.1889,-0.8957,-0.2586
10.3480,-0.1889,-0.8957,-0.2586
10.3480,-0.1889,-0.8957,-0.2586
10.3480,-0.1889,-0.8957,-0.2586
10.3480,-0.1889,-0.8957,-0.2586
10.3490,-0.2065,-0.9030,-0.2532
10.3490,-0.2065,-0.9030,-0.2532
10.3490,-0.2065,-0.9030,-0.2532
10.3490,-0.2112,-0.9013,-0.2483
10.3490,-0.2112,-0.9013,-0.2483
10.3500,-0.2112,-0.9013,-0.2483
10.3500,-0.2119,-0.9033,-0.2583
10.3500,-0.2119,-0.9033,-0.2583
10.3500,-0.2119,-0.9033,-0.2583
10.3510,-0.2229,-0.9042,-0.2532
10.3520,-0.2229,-0.9042,-0.2532
10.3520,-0.2229,-0.9042,-0.2532
10.3530,-0.2229,-0.9042,-0.2532
10.3530,-0.2229,-0.9042,-0.2532
10.3730,-0.1967,-0.9106,-0.2488
10.3730,-0.1967,-0.9106,-0.2488
10.3730,-0.1967,-0.9106,-0.2488
10.3940,-0.1958,-0.9145,-0.2556
10.3950,-0.1958,-0.9145,-0.2556
10.3950,-0.1958,-0.9145,-0.2556
10.4130,-0.1999,-0.9108,-0.2456
10.4130,-0.1999,-0.9108,-0.2456
10.4140,-0.1999,-0.9108,-0.2456
10.4320,-0.1838,-0.9160,-0.2459
10.4330,-0.1838,-0.9160,-0.2459
10.4340,-0.1838,-0.9160,-0.2459
10.4350,-0.1838,-0.9160,-0.2459
10.4360,-0.1838,-0.9160,-0.2459
10.4400,-0.1838,-0.9160,-0.2459
10.4550,-0.1721,-0.9099,-0.2549
10.4560,-0.1721,-0.9099,-0.2549
10.4570,-0.1721,-0.9099,-0.2549
10.4740,-0.1786,-0.8981,-0.2627
10.4750,-0.1786,-0.8981,-0.2627
10.4750,-0.1786,-0.8981,-0.2627
10.5000,-0.1711,-0.8996,-0.2664
10.5010,-0.1711,-0.8996,-0.2664
10.5020,-0.1711,-0.8996,-0.2664
10.5150,-0.1713,-0.9101,-0.2581
10.5160,-0.1713,-0.9101,-0.2581
10.5180,-0.1713,-0.9101,-0.2581
10.5190,-0.1713,-0.9101,-0.2581
10.5190,-0.1713,-0.9101,-0.2581
10.5350,-0.1838,-0.9062,-0.2598
10.5360,-0.1838,-0.9062,-0.2598
10.5360,-0.1838,-0.9062,-0.2598
10.5530,-0.1911,-0.9018,-0.2556
10.5540,-0.1911,-0.9018,-0.2556
10.5580,-0.1911,-0.9018,-0.2556
10.5710,-0.1972,-0.9057,-0.2549
10.5720,-0.1972,-0.9057,-0.2549
10.5720,-0.1972,-0.9057,-0.2549
10.5920,-0.2006,-0.9138,-0.2683
10.5930,-0.2006,-0.9138,-0.2683
10.5930,-0.2006,-0.9138,-0.2683
10.5950,-0.2006,-0.9138,-0.2683
10.5950,-0.2006,-0.9138,-0.2683
10.6150,-0.2019,-0.9194,-0.2527
10.6160,-0.2019,-0.9194,-0.2527
10.6160,-0.2019,-0.9194,-0.2527
10.6350,-0.2351,-0.9074,-0.2258
10.6360,-0.2351,-0.9074,-0.2258
10.6370,-0.2351,-0.9074,-0.2258
10.6380,-0.2351,-0.9074,-0.2258
10.6530,-0.2209,-0.9013,-0.2295
10.6540,-0.2209,-0.9013,-0.2295
10.6550,-0.2209,-0.9013,-0.2295
10.6770,-0.1730,-0.9108,-0.2718
10.6790,-0.1730,-0.9108,-0.2718
10.6820,-0.1730,-0.9108,-0.2718
10.6830,-0.1730,-0.9108,-0.2718
10.6830,-0.1730,-0.9108,-0.2718
10.6930,-0.2026,-0.9206,-0.2485
10.6970,-0.2026,-0.9206,-0.2485
10.6990,-0.2026,-0.9206,-0.2485
10.7130,-0.1931,-0.9189,-0.2459
10.7170,-0.1931,-0.9189,-0.2459
10.7180,-0.1931,-0.9189,-0.2459
10.7330,-0.1620,-0.9226,-0.2569
10.7380,-0.1620,-0.9226,-0.2569
10.7390,-0.1620,-0.9226,-0.2569
10.7630,-0.1696,-0.9206,-0.2610
10.7640,-0.1696,-0.9206,-0.2610
10.7640,-0.1696,-0.9206,-0.2610
10.7650,-0.1696,-0.9206,-0.2610
10.7660,-0.1696,-0.9206,-0.2610
10.7730,-0.1918,-0.9201,-0.2701
10.7730,-0.1918,-0.9201,-0.2701
10.7740,-0.1918,-0.9201,-0.2701
10.7920,-0.1845,-0.9257,-0.2459
10.7920,-0.1845,-0.9257,-0.2459
10.7930,-0.1845,-0.9257,-0.2459
10.8120,-0.1674,-0.9182,-0.2339
10.8120,-0.1674,-0.9182,-0.2339
10.8940,-0.1674,-0.9182,-0.2339
10.8950,-0.1804,-0.9030,-0.2388
10.8960,-0.1804,-0.9030,-0.2388
10.8960,-0.1804,-0.9030,-0.2388
10.8960,-0.1804,-0.9030,-0.2388
10.8960,-0.1804,-0.9030,-0.2388
10.8960,-0.1804,-0.9030,-0.2388
10.8970,-0.2041,-0.9011,-0.2613
10.8970,-0.2041,-0.9011,-0.2613
10.8980,-0.2041,-0.9011,-0.2613
10.8980,-0.2041,-0.9011,-0.2613
10.8990,-0.1936,-0.9187,-0.2578
10.8990,-0.1936,-0.9187,-0.2578
10.8990,-0.1936,-0.9187,-0.2578
10.8990,-0.1723,-0.9245,-0.2490
10.8990,-0.1723,-0.9245,-0.2490
10.8990,-0.1723,-0.9245,-0.2490
10.9090,-0.1806,-0.9020,-0.2507
10.9090,-0.1806,-0.9020,-0.2507
10.9090,-0.1806,-0.9020,-0.2507
10.9110,-0.1806,-0.9020,-0.2507
10.9110,-0.1806,-0.9020,-0.2507
10.9320,-0.1960,-0.8908,-0.2701
10.9330,-0.1960,-0.8908,-0.2701
10.9330,-0.1960,-0.8908,-0.2701
10.9490,-0.1926,-0.8994,-0.2715
10.9490,-0.1926,-0.8994,-0.2715
10.9500,-0.1926,-0.8994,-0.2715
10.9710,-0.1884,-0.9057,-0.2622
10.9720,-0.1884,-0.9057,-0.2622
10.9720,-0.1884,-0.9057,-0.2622
10.9890,-0.2033,-0.9006,-0.2446
10.9900,-0.2033,-0.9006,-0.2446
10.9900,-0.2033,-0.9006,-0.2446
10.9910,-0.2033,-0.9006,-0.2446
10.9920,-0.2033,-0.9006,-0.2446
11.0100,-0.2102,-0.8952,-0.2300
11.0110,-0.2102,-0.8952,-0.2300
11.0120,-0.2102,-0.8952,-0.2300
11.0320,-0.2109,-0.9060,-0.2351
11.0330,-0.2109,-0.9060,-0.2351
11.0370,-0.2109,-0.9060,-0.2351
11.0390,-0.2109,-0.9060,-0.2351
11.0510,-0.2068,-0.9250,-0.2500
11.0510,-0.2068,-0.9250,-0.2500
11.0520,-0.2068,-0.9250,-0.2500
11.0680,-0.2072,-0.9216,-0.2515
11.0690,-0.2072,-0.9216,-0.2515
11.0690,-0.2072,-0.9216,-0.2515
11.0700,-0.2072,-0.9216,-0.2515
11.0700,-0.2072,-0.9216,-0.2515
11.0900,-0.2097,-0.9006,-0.2503
11.0900,-0.2097,-0.9006,-0.2503
11.0910,-0.2097,-0.9006,-0.2503
11.1100,-0.2019,-0.9057,-0.2534
11.1100,-0.2019,-0.9057,-0.2534
11.1110,-0.2019,-0.9057,-0.2534
11.1300,-0.1894,-0.9189,-0.2500
11.1300,-0.1894,-0.9189,-0.2500
11.1310,-0.1894,-0.9189,-0.2500
11.1500,-0.1833,-0.9184,-0.2441
11.1510,-0.1833,-0.9184,-0.2441
11.1510,-0.1833,-0.9184,-0.2441
11.1510,-0.1833,-0.9184,-0.2441
11.1520,-0.1833,-0.9184,-0.2441
11.1730,-0.1865,-0.9174,-0.2476
11.1730,-0.1865,-0.9174,-0.2476
11.1730,-0.1865,-0.9174,-0.2476
11.1920,-0.1777,-0.9064,-0.2456
11.1920,-0.1777,-0.9064,-0.2456
11.1930,-0.1777,-0.9064,-0.2456
11.2120,-0.1867,-0.8986,-0.2507
11.2130,-0.1867,-0.8986,-0.2507
11.2130,-0.1867,-0.8986,-0.2507
11.2300,-0.1987,-0.9038,-0.2456
11.2300,-0.1987,-0.9038,-0.2456
11.2310,-0.1987,-0.9038,-0.2456
11.2310,-0.1987,-0.9038,-0.2456
11.2320,-0.1987,-0.9038,-0.2456
11.2380,-0.1987,-0.9038,-0.2456
11.2510,-0.1960,-0.9143,-0.2424
11.2520,-0.1960,-0.9143,-0.2424
11.2520,-0.1960,-0.9143,-0.2424
11.2670,-0.1911,-0.9101,-0.2478
11.2700,-0.1911,-0.9101,-0.2478
11.2700,-0.1911,-0.9101,-0.2478
11.2870,-0.1906,-0.9135,-0.2551
11.2880,-0.1906,-0.9135,-0.2551
11.2880,-0.1906,-0.9135,-0.2551
11.3110,-0.1896,-0.9167,-0.2735
11.3110,-0.1896,-0.9167,-0.2735
11.3120,-0.1896,-0.9167,-0.2735
11.3120,-0.1896,-0.9167,-0.2735
11.3130,-0.1896,-0.9167,-0.2735
11.3290,-0.1936,-0.9243,-0.2608
11.3300,-0.1936,-0.9243,-0.2608
11.3300,-0.1936,-0.9243,-0.2608
11.3470,-0.2114,-0.9287,-0.2500
11.3480,-0.2114,-0.9287,-0.2500
11.3480,-0.2114,-0.9287,-0.2500
11.4300,-0.2065,-0.9250,-0.2495
11.4300,-0.2065,-0.9250,-0.2495
11.4300,-0.2065,-0.9250,-0.2495
11.4300,-0.1916,-0.9211,-0.2449
11.4300,-0.1916,-0.9211,-0.2449
11.4310,-0.1916,-0.9211,-0.2449
11.4310,-0.1916,-0.9211,-0.2449
11.4310,-0.1916,-0.9211,-0.2449
11.4310,-0.1896,-0.9116,-0.2451
11.4320,-0.1896,-0.9116,-0.2451
11.4320,-0.1896,-0.9116,-0.2451
11.4320,-0.2121,-0.9069,-0.2273
11.4320,-0.2121,-0.9069,-0.2273
11.4320,-0.2121,-0.9069,-0.2273
11.4320,-0.2121,-0.9069,-0.2273
11.4480,-0.2129,-0.9133,-0.2309
11.4490,-0.2129,-0.9133,-0.2309
11.4490,-0.2129,-0.9133,-0.2309
11.4650,-0.1980,-0.8998,-0.2493
11.4650,-0.1980,-0.8998,-0.2493
11.4660,-0.1980,-0.8998,-0.2493
11.4660,-0.1980,-0.8998,-0.2493
11.4670,-0.1980,-0.8998,-0.2493
11.4850,-0.1960,-0.8937,-0.2527
11.4850,-0.1960,-0.8937,-0.2527
11.4850,-0.1960,-0.8937,-0.2527
11.5090,-0.1887,-0.9138,-0.2500
11.5090,-0.1887,-0.9138,-0.2500
11.5100,-0.1887,-0.9138,-0.2500
11.5260,-0.1718,-0.9336,-0.2603
11.5260,-0.1718,-0.9336,-0.2603
11.5270,-0.1718,-0.9336,-0.2603
11.5480,-0.1865,-0.9245,-0.2571
11.5480,-0.1865,-0.9245,-0.2571
11.5490,-0.1865,-0.9245,-0.2571
11.5490,-0.1865,-0.9245,-0.2571
11.5500,-0.1865,-0.9245,-0.2571
11.5650,-0.1664,-0.9040,-0.2679
11.5650,-0.1664,-0.9040,-0.2679
11.5650,-0.1664,-0.9040,-0.2679
11.5860,-0.1601,-0.9001,-0.2703
11.5860,-0.1601,-0.9001,-0.2703
11.5860,-0.1601,-0.9001,-0.2703
11.6040,-0.1909,-0.9055,-0.2512
11.6050,-0.1909,-0.9055,-0.2512
11.6050,-0.1909,-0.9055,-0.2512
11.6240,-0.2131,-0.9016,-0.2522
11.6250,-0.2131,-0.9016,-0.2522
11.6260,-0.2131,-0.9016,-0.2522
11.6260,-0.2131,-0.9016,-0.2522
11.6270,-0.2131,-0.9016,-0.2522
11.6290,-0.2131,-0.9016,-0.2522
11.6440,-0.2055,-0.9035,-0.2439
11.6450,-0.2055,-0.9035,-0.2439
11.6450,-0.2055,-0.9035,-0.2439
11.6650,-0.2131,-0.9047,-0.2417
11.6650,-0.2131,-0.9047,-0.2417
11.6660,-0.2131,-0.9047,-0.2417
11.6840,-0.2292,-0.9108,-0.2371
11.6850,-0.2292,-0.9108,-0.2371
11.6850,-0.2292,-0.9108,-0.2371
11.7040,-0.2248,-0.9067,-0.2498
11.7050,-0.2248,-0.9067,-0.2498
11.7050,-0.2248,-0.9067,-0.2498
11.7060,-0.2248,-0.9067,-0.2498
11.7060,-0.2248,-0.9067,-0.2498
11.7240,-0.2021,-0.9104,-0.2471
11.7250,-0.2021,-0.9104,-0.2471
11.7250,-0.2021,-0.9104,-0.2471
11.7450,-0.1948,-0.8998,-0.2569
11.7460,-0.1948,-0.8998,-0.2569
11.7470,-0.1948,-0.8998,-0.2569
11.7660,-0.1940,-0.9008,-0.2542
11.7660,-0.1940,-0.9008,-0.2542
11.7670,-0.1940,-0.9008,-0.2542
11.7850,-0.1782,-0.9184,-0.2520
11.7860,-0.1782,-0.9184,-0.2520
11.7870,-0.1782,-0.9184,-0.2520
11.7870,-0.1782,-0.9184,-0.2520
11.7880,-0.1782,-0.9184,-0.2520
11.8030,-0.1779,-0.9228,-0.2503
11.8040,-0.1779,-0.9228,-0.2503
11.8040,-0.1779,-0.9228,-0.2503
11.8240,-0.1755,-0.9140,-0.2527
11.8240,-0.1755,-0.9140,-0.2527
11.8250,-0.1755,-0.9140,-0.2527
11.8300,-0.1755,-0.9140,-0.2527
11.8430,-0.1860,-0.9108,-0.2432
11.8440,-0.1860,-0.9108,-0.2432
11.8440,-0.1860,-0.9108,-0.2432
11.8550,-0.1860,-0.9108,-0.2432
11.8630,-0.2043,-0.9089,-0.2454
11.8640,-0.2043,-0.9089,-0.2454
11.8640,-0.2043,-0.9089,-0.2454
11.8650,-0.2043,-0.9089,-0.2454
11.8650,-0.2043,-0.9089,-0.2454
11.8820,-0.2080,-0.9162,-0.2559
11.8830,-0.2080,-0.9162,-0.2559
11.8830,-0.2080,-0.9162,-0.2559
11.9040,-0.1999,-0.9170,-0.2551
11.9570,-0.1999,-0.9170,-0.2551
11.9570,-0.1999,-0.9170,-0.2551
11.9570,-0.2116,-0.9062,-0.2551
11.9580,-0.2116,-0.9062,-0.2551
11.9580,-0.2116,-0.9062,-0.2551
11.9580,-0.2158,-0.9038,-0.2498
11.9580,-0.2158,-0.9038,-0.2498
11.9590,-0.2158,-0.9038,-0.2498
11.9590,-0.2158,-0.9038,-0.2498
11.9590,-0.2158,-0.9038,-0.2498
11.9610,-0.2055,-0.9091,-0.2610
11.9610,-0.2055,-0.9091,-0.2610
11.9610,-0.2055,-0.9091,-0.2610
11.9810,-0.1953,-0.9155,-0.2466
11.9820,-0.1953,-0.9155,-0.2466
11.9820,-0.1953,-0.9155,-0.2466
12.0000,-0.1833,-0.9062,-0.2481
12.0000,-0.1833,-0.9062,-0.2481
12.0010,-0.1833,-0.9062,-0.2481
12.0210,-0.1816,-0.8991,-0.2446
12.0220,-0.1816,-0.8991,-0.2446
12.0220,-0.1816,-0.8991,-0.2446
12.0230,-0.1816,-0.8991,-0.2446
12.0230,-0.1816,-0.8991,-0.2446
12.0260,-0.1816,-0.8991,-0.2446
12.0430,-0.2055,-0.9016,-0.2397
12.0430,-0.2055,-0.9016,-0.2397
12.0430,-0.2055,-0.9016,-0.2397
12.0520,-0.2055,-0.9016,-0.2397
12.0620,-0.2065,-0.9121,-0.2417
12.0620,-0.2065,-0.9121,-0.2417
12.0620,-0.2065,-0.9121,-0.2417
12.0810,-0.1767,-0.9199,-0.2483
12.0810,-0.1767,-0.9199,-0.2483
12.0820,-0.1767,-0.9199,-0.2483
12.1010,-0.1796,-0.9167,-0.2649
12.1010,-0.1796,-0.9167,-0.2649
12.1010,-0.1796,-0.9167,-0.2649
12.1030,-0.1796,-0.9167,-0.2649
12.1030,-0.1796,-0.9167,-0.2649
12.1200,-0.1823,-0.9218,-0.2569
12.1210,-0.1823,-0.9218,-0.2569
12.1210,-0.1823,-0.9218,-0.2569
12.1430,-0.1686,-0.9201,-0.2617
12.1430,-0.1686,-0.9201,-0.2617
12.1430,-0.1686,-0.9201,-0.2617
12.1610,-0.1628,-0.9060,-0.2549
12.1620,-0.1628,-0.9060,-0.2549
12.1630,-0.1628,-0.9060,-0.2549
12.1810,-0.1818,-0.8969,-0.2564
12.1820,-0.1818,-0.8969,-0.2564
12.1840,-0.1818,-0.8969,-0.2564
12.1850,-0.1818,-0.8969,-0.2564
12.1850,-0.1818,-0.8969,-0.2564
12.2020,-0.1806,-0.8984,-0.2600
12.2020,-0.1806,-0.8984,-0.2600
12.2030,-0.1806,-0.8984,-0.2600
12.2230,-0.1860,-0.9079,-0.2608
12.2240,-0.1860,-0.9079,-0.2608
12.2240,-0.1860,-0.9079,-0.2608
12.2250,-0.1860,-0.9079,-0.2608
12.2420,-0.2173,-0.9138,-0.2468
12.2420,-0.2173,-0.9138,-0.2468
12.2440,-0.2173,-0.9138,-0.2468
12.2530,-0.2173,-0.9138,-0.2468
12.2620,-0.2214,-0.9155,-0.2292
12.2620,-0.2214,-0.9155,-0.2292
12.2630,-0.2214,-0.9155,-0.2292
12.2650,-0.2214,-0.9155,-0.2292
12.2660,-0.2214,-0.9155,-0.2292
12.2820,-0.2019,-0.9194,-0.2251
12.2850,-0.2019,-0.9194,-0.2251
12.2860,-0.2019,-0.9194,-0.2251
12.3030,-0.2163,-0.9116,-0.2388
12.3030,-0.2163,-0.9116,-0.2388
12.3040,-0.2163,-0.9116,-0.2388
12.3250,-0.2050,-0.9123,-0.2358
12.3250,-0.2050,-0.9123,-0.2358
12.3260,-0.2050,-0.9123,-0.2358
12.3420,-0.1958,-0.9223,-0.2510
12.3430,-0.1958,-0.9223,-0.2510
12.3430,-0.1958,-0.9223,-0.2510
12.3440,-0.1958,-0.9223,-0.2510
12.3450,-0.1958,-0.9223,-0.2510
12.3600,-0.1982,-0.9233,-0.2683
12.3610,-0.1982,-0.9233,-0.2683
12.3610,-0.1982,-0.9233,-0.2683
12.3800,-0.1867,-0.9187,-0.2571
12.3820,-0.1867,-0.9187,-0.2571
12.3830,-0.1867,-0.9187,-0.2571
12.4010,-0.1325,-0.8835,-0.2960
12.4010,-0.1325,-0.8835,-0.2960
12.4020,-0.1325,-0.8835,-0.2960
12.4210,-0.1689,-0.8756,-0.2683
12.4220,-0.1689,-0.8756,-0.2683
12.4230,-0.1689,-0.8756,-0.2683
12.4230,-0.1689,-0.8756,-0.2683
12.4240,-0.1689,-0.8756,-0.2683
12.4240,-0.1689,-0.8756,-0.2683
12.4410,-0.1801,-0.9235,-0.2351
12.5180,-0.1801,-0.9235,-0.2351
12.5180,-0.1801,-0.9235,-0.2351
12.5190,-0.1801,-0.9235,-0.2351
12.5190,-0.2371,-0.9397,-0.2060
12.5190,-0.2371,-0.9397,-0.2060
12.5190,-0.2371,-0.9397,-0.2060
12.5190,-0.2226,-0.9275,-0.1970
12.5190,-0.2226,-0.9275,-0.1970
12.5190,-0.2226,-0.9275,-0.1970
12.5200,-0.1738,-0.9055,-0.2488
12.5200,-0.1738,-0.9055,-0.2488
12.5200,-0.1738,-0.9055,-0.2488
12.5200,-0.1738,-0.9055,-0.2488
12.5200,-0.1738,-0.9055,-0.2488
12.5200,-0.1896,-0.8896,-0.2867
12.5200,-0.1896,-0.8896,-0.2867
12.5210,-0.1896,-0.8896,-0.2867
12.5410,-0.2053,-0.9064,-0.2671
12.5420,-0.2053,-0.9064,-0.2671
12.5420,-0.2053,-0.9064,-0.2671
12.5570,-0.2329,-0.9106,-0.2415
12.5570,-0.2329,-0.9106,-0.2415
12.5570,-0.2329,-0.9106,-0.2415
12.5800,-0.2136,-0.9057,-0.2608
12.5800,-0.2136,-0.9057,-0.2608
12.5810,-0.2136,-0.9057,-0.2608
12.5810,-0.2136,-0.9057,-0.2608
12.5810,-0.2136,-0.9057,-0.2608
12.5990,-0.1896,-0.9067,-0.2647
12.6000,-0.1896,-0.9067,-0.2647
12.6000,-0.1896,-0.9067,-0.2647
12.6200,-0.1938,-0.9052,-0.2473
12.6200,-0.1938,-0.9052,-0.2473
12.6210,-0.1938,-0.9052,-0.2473
12.6220,-0.1938,-0.9052,-0.2473
12.6380,-0.2082,-0.9211,-0.2451
12.6390,-0.2082,-0.9211,-0.2451
12.6390,-0.2082,-0.9211,-0.2451
12.6590,-0.1918,-0.9265,-0.2417
12.6600,-0.1918,-0.9265,-0.2417
12.6600,-0.1918,-0.9265,-0.2417
12.6610,-0.1918,-0.9265,-0.2417
12.6610,-0.1918,-0.9265,-0.2417
12.6780,-0.1816,-0.9292,-0.2395
12.6780,-0.1816,-0.9292,-0.2395
12.6790,-0.1816,-0.9292,-0.2395
12.7020,-0.1867,-0.9128,-0.2395
12.7020,-0.1867,-0.9128,-0.2395
12.7030,-0.1867,-0.9128,-0.2395
12.7190,-0.1830,-0.9206,-0.2346
12.7200,-0.1830,-0.9206,-0.2346
12.7200,-0.1830,-0.9206,-0.2346
12.7390,-0.2109,-0.9074,-0.2324
12.7400,-0.2109,-0.9074,-0.2324
12.7400,-0.2109,-0.9074,-0.2324
12.7410,-0.2109,-0.9074,-0.2324
12.7410,-0.2109,-0.9074,-0.2324
12.7620,-0.2138,-0.8928,-0.2478
12.7630,-0.2138,-0.8928,-0.2478
12.7630,-0.2138,-0.8928,-0.2478
12.7790,-0.1650,-0.9257,-0.2512
12.7800,-0.1650,-0.9257,-0.2512
12.7800,-0.1650,-0.9257,-0.2512
12.7980,-0.1889,-0.9157,-0.2481
12.8010,-0.1889,-0.9157,-0.2481
12.8020,-0.1889,-0.9157,-0.2481
12.8230,-0.2138,-0.9008,-0.2319
12.8240,-0.2138,-0.9008,-0.2319
12.8250,-0.2138,-0.9008,-0.2319
12.8260,-0.2138,-0.9008,-0.2319
12.8260,-0.2138,-0.9008,-0.2319
12.8270,-0.2138,-0.9008,-0.2319
12.8400,-0.1940,-0.8984,-0.2512
12.8410,-0.1940,-0.8984,-0.2512
12.8420,-0.1940,-0.8984,-0.2512
12.8630,-0.1767,-0.8979,-0.2661
12.8640,-0.1767,-0.8979,-0.2661
12.8640,-0.1767,-0.8979,-0.2661
12.8800,-0.1843,-0.9038,-0.2571
12.8800,-0.1843,-0.9038,-0.2571
12.8810,-0.1843,-0.9038,-0.2571
12.8980,-0.1901,-0.9018,-0.2593
12.8990,-0.1901,-0.9018,-0.2593
12.8990,-0.1901,-0.9018,-0.2593
12.9000,-0.1901,-0.9018,-0.2593
12.9000,-0.1901,-0.9018,-0.2593
12.9190,-0.1948,-0.9172,-0.2476
12.9200,-0.1948,-0.9172,-0.2476
12.9200,-0.1948,-0.9172,-0.2476
12.9440,-0.1728,-0.9238,-0.2483
12.9450,-0.1728,-0.9238,-0.2483
12.9460,-0.1728,-0.9238,-0.2483
12.9600,-0.2160,-0.8942,-0.2478
12.9600,-0.2160,-0.8942,-0.2478
12.9610,-0.2160,-0.8942,-0.2478
12.9790,-0.2478,-0.8747,-0.2664
12.9820,-0.2478,-0.8747,-0.2664
12.9820,-0.2478,-0.8747,-0.2664
12.9830,-0.2478,-0.8747,-0.2664
12.9830,-0.2478,-0.8747,-0.2664
13.0670,-0.2197,-0.8930,-0.2749
13.0670,-0.2197,-0.8930,-0.2749
13.0670,-0.2197,-0.8930,-0.2749
13.0680,-0.1852,-0.9385,-0.2630
13.0680,-0.1852,-0.9385,-0.2630
13.0690,-0.1852,-0.9385,-0.2630
13.0690,-0.1852,-0.9385,-0.2630
13.0690,-0.1936,-0.9194,-0.2806
13.0690,-0.1936,-0.9194,-0.2806
13.0700,-0.1936,-0.9194,-0.2806
13.0700,-0.2126,-0.9011,-0.2806
13.0700,-0.2126,-0.9011,-0.2806
13.0700,-0.2126,-0.9011,-0.2806
13.0700,-0.2126,-0.9011,-0.2806
13.0710,-0.2126,-0.9011,-0.2806
13.0770,-0.1894,-0.9284,-0.2898
13.0770,-0.1894,-0.9284,-0.2898
13.0770,-0.1894,-0.9284,-0.2898
13.0960,-0.1464,-0.9375,-0.2737
13.0960,-0.1464,-0.9375,-0.2737
13.0960,-0.1464,-0.9375,-0.2737
13.1170,-0.1733,-0.9233,-0.2632
13.1170,-0.1733,-0.9233,-0.2632
13.1180,-0.1733,-0.9233,-0.2632
13.1370,-0.1838,-0.9155,-0.2510
13.1370,-0.1838,-0.9155,-0.2510
13.1370,-0.1838,-0.9155,-0.2510
13.1370,-0.1838,-0.9155,-0.2510
13.1380,-0.1838,-0.9155,-0.2510
13.1570,-0.1696,-0.9191,-0.2327
13.1570,-0.1696,-0.9191,-0.2327
13.1580,-0.1696,-0.9191,-0.2327
13.1780,-0.1481,-0.9309,-0.2256
13.1780,-0.1481,-0.9309,-0.2256
13.1780,-0.1481,-0.9309,-0.2256
13.1970,-0.1718,-0.9299,-0.1923
13.1970,-0.1718,-0.9299,-0.1923
13.1980,-0.1718,-0.9299,-0.1923
13.2170,-0.2138,-0.9020,-0.1852
13.2170,-0.2138,-0.9020,-0.1852
13.2170,-0.2138,-0.9020,-0.1852
13.2170,-0.2138,-0.9020,-0.1852
13.2170,-0.2138,-0.9020,-0.1852
13.2180,-0.2138,-0.9020,-0.1852
13.2360,-0.2302,-0.9077,-0.1845
13.2370,-0.2302,-0.9077,-0.1845
13.2370,-0.2302,-0.9077,-0.1845
13.2570,-0.2014,-0.8974,-0.2129
13.2570,-0.2014,-0.8974,-0.2129
13.2570,-0.2014,-0.8974,-0.2129
13.2740,-0.1596,-0.9245,-0.2041
13.2740,-0.1596,-0.9245,-0.2041
13.2740,-0.1596,-0.9245,-0.2041
13.2950,-0.1422,-0.9502,-0.1711
13.2960,-0.1422,-0.9502,-0.1711
13.2960,-0.1422,-0.9502,-0.1711
13.2970,-0.1422,-0.9502,-0.1711
13.2980,-0.1422,-0.9502,-0.1711
13.3150,-0.1447,-0.9404,-0.1642
13.3160,-0.1447,-0.9404,-0.1642
13.3160,-0.1447,-0.9404,-0.1642
