
time,AccelerometerX,AccelerometerY,AccelerometerZ
0.0100,-0.7779,-0.6014,-0.1178
0.0100,-0.7779,-0.6014,-0.1178
0.0100,-0.7779,-0.6014,-0.1178
0.0470,-0.7615,-0.6151,-0.1268
0.0480,-0.7615,-0.6151,-0.1268
0.0480,-0.7615,-0.6151,-0.1268
0.0530,-0.7574,-0.5944,-0.1349
0.0530,-0.7574,-0.5944,-0.1349
0.0530,-0.7574,-0.5944,-0.1349
0.0700,-0.7855,-0.5719,-0.1349
0.0700,-0.7855,-0.5719,-0.1349
0.0700,-0.7855,-0.5719,-0.1349
0.0730,-0.7855,-0.5719,-0.1349
0.0730,-0.7855,-0.5719,-0.1349
0.0890,-0.7623,-0.5936,-0.1229
0.0900,-0.7623,-0.5936,-0.1229
0.0900,-0.7623,-0.5936,-0.1229
0.1090,-0.7689,-0.5941,-0.1273
0.1090,-0.7689,-0.5941,-0.1273
0.1100,-0.7689,-0.5941,-0.1273
0.1290,-0.7769,-0.5873,-0.1251
0.1290,-0.7769,-0.5873,-0.1251
0.1300,-0.7769,-0.5873,-0.1251
0.1490,-0.7906,-0.5963,-0.1530
0.1500,-0.7906,-0.5963,-0.1530
0.1500,-0.7906,-0.5963,-0.1530
0.1530,-0.7906,-0.5963,-0.1530
0.1530,-0.7906,-0.5963,-0.1530
0.1700,-0.7789,-0.5995,-0.1633
0.1700,-0.7789,-0.5995,-0.1633
0.1700,-0.7789,-0.5995,-0.1633
0.1890,-0.7625,-0.6012,-0.1466
0.1900,-0.7625,-0.6012,-0.1466
0.1900,-0.7625,-0.6012,-0.1466
0.1920,-0.7625,-0.6012,-0.1466
0.2090,-0.7718,-0.5841,-0.1435
0.2090,-0.7718,-0.5841,-0.1435
0.2090,-0.7718,-0.5841,-0.1435
0.2110,-0.7718,-0.5841,-0.1435
0.2300,-0.7884,-0.5726,-0.1459
0.2300,-0.7884,-0.5726,-0.1459
0.2300,-0.7884,-0.5726,-0.1459
0.2330,-0.7884,-0.5726,-0.1459
0.2330,-0.7884,-0.5726,-0.1459
0.2490,-0.7847,-0.5819,-0.1488
0.2490,-0.7847,-0.5819,-0.1488
0.2490,-0.7847,-0.5819,-0.1488
0.2700,-0.8006,-0.5787,-0.1457
0.2700,-0.8006,-0.5787,-0.1457
0.2700,-0.8006,-0.5787,-0.1457
0.2890,-0.7989,-0.5731,-0.1369
0.2900,-0.7989,-0.5731,-0.1369
0.2900,-0.7989,-0.5731,-0.1369
0.3090,-0.8077,-0.5697,-0.1146
0.3090,-0.8077,-0.5697,-0.1146
0.3100,-0.8077,-0.5697,-0.1146
0.3120,-0.8077,-0.5697,-0.1146
0.3120,-0.8077,-0.5697,-0.1146
0.3290,-0.7899,-0.5750,-0.1158
0.3290,-0.7899,-0.5750,-0.1158
0.3290,-0.7899,-0.5750,-0.1158
0.3490,-0.7706,-0.5753,-0.1239
0.3490,-0.7706,-0.5753,-0.1239
0.3490,-0.7706,-0.5753,-0.1239
0.3690,-0.7732,-0.5707,-0.1315
0.3690,-0.7732,-0.5707,-0.1315
0.3700,-0.7732,-0.5707,-0.1315
0.3890,-0.7801,-0.5768,-0.1220
0.3890,-0.7801,-0.5768,-0.1220
0.3890,-0.7801,-0.5768,-0.1220
0.3910,-0.7801,-0.5768,-0.1220
0.3920,-0.7801,-0.5768,-0.1220
0.3940,-0.7801,-0.5768,-0.1220
0.4080,-0.7872,-0.5907,-0.1122
0.4080,-0.7872,-0.5907,-0.1122
0.4080,-0.7872,-0.5907,-0.1122
0.4280,-0.7779,-0.5975,-0.1176
0.4280,-0.7779,-0.5975,-0.1176
0.4290,-0.7779,-0.5975,-0.1176
0.4490,-0.7537,-0.6012,-0.1088
0.4490,-0.7537,-0.6012,-0.1088
0.4500,-0.7537,-0.6012,-0.1088
0.4690,-0.7667,-0.5961,-0.0987
0.4690,-0.7667,-0.5961,-0.0987
0.4700,-0.7667,-0.5961,-0.0987
0.4720,-0.7667,-0.5961,-0.0987
0.4720,-0.7667,-0.5961,-0.0987
0.4880,-0.7745,-0.5843,-0.0990
0.4880,-0.7745,-0.5843,-0.0990
0.4890,-0.7745,-0.5843,-0.0990
0.5080,-0.7759,-0.5731,-0.1034
0.5090,-0.7759,-0.5731,-0.1034
0.5090,-0.7759,-0.5731,-0.1034
0.5280,-0.7642,-0.5755,-0.1048
0.5280,-0.7642,-0.5755,-0.1048
0.5280,-0.7642,-0.5755,-0.1048
0.5470,-0.7742,-0.5645,-0.1095
0.5470,-0.7742,-0.5645,-0.1095
0.5470,-0.7742,-0.5645,-0.1095
0.5520,-0.7742,-0.5645,-0.1095
0.5520,-0.7742,-0.5645,-0.1095
0.5660,-0.7955,-0.5538,-0.1210
0.5670,-0.7955,-0.5538,-0.1210
0.5670,-0.7955,-0.5538,-0.1210
0.5870,-0.7970,-0.5692,-0.1044
0.5880,-0.7970,-0.5692,-0.1044
0.5880,-0.7970,-0.5692,-0.1044
0.5900,-0.7970,-0.5692,-0.1044
0.6070,-0.7977,-0.5780,-0.1031
0.6070,-0.7977,-0.5780,-0.1031
0.6080,-0.7977,-0.5780,-0.1031
0.6270,-0.7955,-0.5809,-0.1127
0.6270,-0.7955,-0.5809,-0.1127
0.6270,-0.7955,-0.5809,-0.1127
0.6310,-0.7955,-0.5809,-0.1127
0.6310,-0.7955,-0.5809,-0.1127
0.6470,-0.7816,-0.5897,-0.1127
0.6470,-0.7816,-0.5897,-0.1127
0.6480,-0.7816,-0.5897,-0.1127
0.6670,-0.7830,-0.6014,-0.1119
0.6670,-0.7830,-0.6014,-0.1119
0.6680,-0.7830,-0.6014,-0.1119
0.6870,-0.7896,-0.5956,-0.1156
0.6870,-0.7896,-0.5956,-0.1156
0.6870,-0.7896,-0.5956,-0.1156
0.7070,-0.7784,-0.5829,-0.1210
0.7070,-0.7784,-0.5829,-0.1210
0.7080,-0.7784,-0.5829,-0.1210
0.7100,-0.7784,-0.5829,-0.1210
0.7100,-0.7784,-0.5829,-0.1210
0.7260,-0.7681,-0.5760,-0.1281
0.7270,-0.7681,-0.5760,-0.1281
0.7270,-0.7681,-0.5760,-0.1281
0.7460,-0.7801,-0.5753,-0.1095
0.7470,-0.7801,-0.5753,-0.1095
0.7470,-0.7801,-0.5753,-0.1095
0.7670,-0.7982,-0.5716,-0.1036
0.7670,-0.7982,-0.5716,-0.1036
0.7670,-0.7982,-0.5716,-0.1036
0.8100,-0.7847,-0.5599,-0.1202
0.8110,-0.7847,-0.5599,-0.1202
0.8110,-0.7847,-0.5599,-0.1202
0.8110,-0.7847,-0.5599,-0.1202
0.8110,-0.7847,-0.5599,-0.1202
0.8110,-0.7847,-0.5599,-0.1202
0.8110,-0.7776,-0.5606,-0.1244
0.8110,-0.7776,-0.5606,-0.1244
0.8110,-0.7776,-0.5606,-0.1244
0.8250,-0.7816,-0.5790,-0.1051
0.8250,-0.7816,-0.5790,-0.1051
0.8250,-0.7816,-0.5790,-0.1051
0.8460,-0.7908,-0.5868,-0.1034
0.8460,-0.7908,-0.5868,-0.1034
0.8460,-0.7908,-0.5868,-0.1034
0.8660,-0.8111,-0.5716,-0.1129
0.8660,-0.8111,-0.5716,-0.1129
0.8660,-0.8111,-0.5716,-0.1129
0.8690,-0.8111,-0.5716,-0.1129
0.8700,-0.8111,-0.5716,-0.1129
0.8850,-0.8146,-0.5763,-0.1188
0.8860,-0.8146,-0.5763,-0.1188
0.8860,-0.8146,-0.5763,-0.1188
0.9060,-0.7911,-0.5880,-0.1132
0.9060,-0.7911,-0.5880,-0.1132
0.9060,-0.7911,-0.5880,-0.1132
0.9250,-0.7742,-0.5824,-0.1166
0.9250,-0.7742,-0.5824,-0.1166
0.9260,-0.7742,-0.5824,-0.1166
0.9470,-0.7830,-0.5780,-0.1051
0.9480,-0.7830,-0.5780,-0.1051
0.9480,-0.7830,-0.5780,-0.1051
0.9480,-0.7830,-0.5780,-0.1051
0.9480,-0.7830,-0.5780,-0.1051
0.9640,-0.8033,-0.5743,-0.1119
0.9650,-0.8033,-0.5743,-0.1119
0.9650,-0.8033,-0.5743,-0.1119
0.9880,-0.7852,-0.5785,-0.1107
0.9880,-0.7852,-0.5785,-0.1107
0.9880,-0.7852,-0.5785,-0.1107
0.9880,-0.7852,-0.5785,-0.1107
1.0070,-0.7772,-0.5851,-0.1061
1.0070,-0.7772,-0.5851,-0.1061
1.0070,-0.7772,-0.5851,-0.1061
1.0240,-0.7808,-0.5865,-0.1117
1.0240,-0.7808,-0.5865,-0.1117
1.0250,-0.7808,-0.5865,-0.1117
1.0280,-0.7808,-0.5865,-0.1117
1.0290,-0.7808,-0.5865,-0.1117
1.0450,-0.7899,-0.5900,-0.0912
1.0450,-0.7899,-0.5900,-0.0912
1.0450,-0.7899,-0.5900,-0.0912
1.0650,-0.7889,-0.5856,-0.0904
1.0660,-0.7889,-0.5856,-0.0904
1.0660,-0.7889,-0.5856,-0.0904
1.0860,-0.7808,-0.5809,-0.1066
1.0860,-0.7808,-0.5809,-0.1066
1.0860,-0.7808,-0.5809,-0.1066
1.1050,-0.7825,-0.5714,-0.1310
1.1050,-0.7825,-0.5714,-0.1310
1.1050,-0.7825,-0.5714,-0.1310
1.1070,-0.7825,-0.5714,-0.1310
1.1070,-0.7825,-0.5714,-0.1310
1.1230,-0.7864,-0.5809,-0.1053
1.1240,-0.7864,-0.5809,-0.1053
1.1250,-0.7864,-0.5809,-0.1053
1.1450,-0.7950,-0.5809,-0.0990
1.1460,-0.7950,-0.5809,-0.0990
1.1460,-0.7950,-0.5809,-0.0990
1.1660,-0.7950,-0.5755,-0.1007
1.1660,-0.7950,-0.5755,-0.1007
1.1660,-0.7950,-0.5755,-0.1007
1.1850,-0.7882,-0.5738,-0.1044
1.1850,-0.7882,-0.5738,-0.1044
1.1860,-0.7882,-0.5738,-0.1044
1.1860,-0.7882,-0.5738,-0.1044
1.1860,-0.7882,-0.5738,-0.1044
1.1880,-0.7882,-0.5738,-0.1044
1.2060,-0.7803,-0.5709,-0.1097
1.2060,-0.7803,-0.5709,-0.1097
1.2060,-0.7803,-0.5709,-0.1097
1.2260,-0.7877,-0.5719,-0.1107
1.2260,-0.7877,-0.5719,-0.1107
1.2270,-0.7877,-0.5719,-0.1107
1.2450,-0.7935,-0.5738,-0.0997
1.2460,-0.7935,-0.5738,-0.0997
1.2460,-0.7935,-0.5738,-0.0997
1.2660,-0.7874,-0.5709,-0.0980
1.2660,-0.7874,-0.5709,-0.0980
1.2670,-0.7874,-0.5709,-0.0980
1.2670,-0.7874,-0.5709,-0.0980
1.2680,-0.7874,-0.5709,-0.0980
1.2840,-0.7835,-0.5702,-0.1056
1.2840,-0.7835,-0.5702,-0.1056
1.2850,-0.7835,-0.5702,-0.1056
1.3050,-0.7764,-0.5731,-0.1090
1.3060,-0.7764,-0.5731,-0.1090
1.3060,-0.7764,-0.5731,-0.1090
1.3260,-0.7757,-0.5731,-0.1022
1.3270,-0.7757,-0.5731,-0.1022
1.3860,-0.7757,-0.5731,-0.1022
1.3860,-0.7798,-0.5763,-0.0938
1.3870,-0.7798,-0.5763,-0.0938
1.3870,-0.7798,-0.5763,-0.0938
1.3870,-0.7798,-0.5763,-0.0938
1.3870,-0.7798,-0.5763,-0.0938
1.3870,-0.7842,-0.5731,-0.1029
1.3870,-0.7842,-0.5731,-0.1029
1.3870,-0.7842,-0.5731,-0.1029
1.3870,-0.7930,-0.5689,-0.1034
1.3870,-0.7930,-0.5689,-0.1034
1.3880,-0.7930,-0.5689,-0.1034
1.3880,-0.7930,-0.5689,-0.1034
1.4040,-0.7965,-0.5719,-0.0992
1.4040,-0.7965,-0.5719,-0.0992
1.4040,-0.7965,-0.5719,-0.0992
1.4260,-0.7874,-0.5738,-0.1012
1.4260,-0.7874,-0.5738,-0.1012
1.4260,-0.7874,-0.5738,-0.1012
1.4260,-0.7874,-0.5738,-0.1012
1.4260,-0.7874,-0.5738,-0.1012
1.4480,-0.7845,-0.5724,-0.1124
1.4480,-0.7845,-0.5724,-0.1124
1.4480,-0.7845,-0.5724,-0.1124
1.4650,-0.7955,-0.5714,-0.1107
1.4650,-0.7955,-0.5714,-0.1107
1.4650,-0.7955,-0.5714,-0.1107
1.4850,-0.8089,-0.5736,-0.1078
1.4860,-0.8089,-0.5736,-0.1078
1.4860,-0.8089,-0.5736,-0.1078
1.5040,-0.7928,-0.5760,-0.1105
1.5040,-0.7928,-0.5760,-0.1105
1.5040,-0.7928,-0.5760,-0.1105
1.5070,-0.7928,-0.5760,-0.1105
1.5070,-0.7928,-0.5760,-0.1105
1.5270,-0.7718,-0.5821,-0.1029
1.5270,-0.7718,-0.5821,-0.1029
1.5270,-0.7718,-0.5821,-0.1029
1.5450,-0.7608,-0.5946,-0.0843
1.5460,-0.7608,-0.5946,-0.0843
1.5460,-0.7608,-0.5946,-0.0843
1.5660,-0.7798,-0.5992,-0.0821
1.5660,-0.7798,-0.5992,-0.0821
1.5660,-0.7798,-0.5992,-0.0821
1.5860,-0.7894,-0.5944,-0.0877
1.5860,-0.7894,-0.5944,-0.0877
1.5860,-0.7894,-0.5944,-0.0877
1.5870,-0.7894,-0.5944,-0.0877
1.5870,-0.7894,-0.5944,-0.0877
1.5870,-0.7894,-0.5944,-0.0877
1.6070,-0.7842,-0.6029,-0.0714
1.6080,-0.7842,-0.6029,-0.0714
1.6080,-0.7842,-0.6029,-0.0714
1.6260,-0.7894,-0.6073,-0.0780
1.6260,-0.7894,-0.6073,-0.0780
1.6260,-0.7894,-0.6073,-0.0780
1.6460,-0.7926,-0.5992,-0.0904
1.6460,-0.7926,-0.5992,-0.0904
1.6460,-0.7926,-0.5992,-0.0904
1.6660,-0.8060,-0.5834,-0.1024
1.6660,-0.8060,-0.5834,-0.1024
1.6660,-0.8060,-0.5834,-0.1024
1.6660,-0.8060,-0.5834,-0.1024
1.6670,-0.8060,-0.5834,-0.1024
1.6870,-0.8048,-0.5765,-0.1022
1.6870,-0.8048,-0.5765,-0.1022
1.6880,-0.8048,-0.5765,-0.1022
1.7070,-0.8006,-0.5777,-0.1070
1.7080,-0.8006,-0.5777,-0.1070
1.7080,-0.8006,-0.5777,-0.1070
1.7270,-0.7930,-0.5790,-0.1024
1.7270,-0.7930,-0.5790,-0.1024
1.7270,-0.7930,-0.5790,-0.1024
1.7470,-0.7828,-0.5829,-0.1007
1.7470,-0.7828,-0.5829,-0.1007
1.7470,-0.7828,-0.5829,-0.1007
1.7480,-0.7828,-0.5829,-0.1007
1.7480,-0.7828,-0.5829,-0.1007
1.7670,-0.7811,-0.5885,-0.0921
1.7670,-0.7811,-0.5885,-0.0921
1.7670,-0.7811,-0.5885,-0.0921
1.7850,-0.7745,-0.5961,-0.0926
1.7860,-0.7745,-0.5961,-0.0926
1.7860,-0.7745,-0.5961,-0.0926
1.7860,-0.7745,-0.5961,-0.0926
1.8050,-0.7862,-0.5895,-0.0909
1.8060,-0.7862,-0.5895,-0.0909
1.8060,-0.7862,-0.5895,-0.0909
1.8240,-0.7864,-0.5892,-0.0838
1.8250,-0.7864,-0.5892,-0.0838
1.8250,-0.7864,-0.5892,-0.0838
1.8250,-0.7864,-0.5892,-0.0838
1.8260,-0.7864,-0.5892,-0.0838
1.8460,-0.7623,-0.6000,-0.0804
1.8460,-0.7623,-0.6000,-0.0804
1.8460,-0.7623,-0.6000,-0.0804
1.8670,-0.7466,-0.6085,-0.0860
1.8670,-0.7466,-0.6085,-0.0860
1.8680,-0.7466,-0.6085,-0.0860
1.8870,-0.7219,-0.6200,-0.1107
1.9230,-0.7219,-0.6200,-0.1107
1.9230,-0.7219,-0.6200,-0.1107
1.9240,-0.7239,-0.6156,-0.1227
1.9240,-0.7239,-0.6156,-0.1227
1.9240,-0.7239,-0.6156,-0.1227
1.9240,-0.7239,-0.6156,-0.1227
1.9240,-0.7239,-0.6156,-0.1227
1.9240,-0.8036,-0.5807,-0.1014
1.9240,-0.8036,-0.5807,-0.1014
1.9240,-0.8036,-0.5807,-0.1014
1.9410,-0.7967,-0.5589,-0.0767
1.9410,-0.7967,-0.5589,-0.0767
1.9410,-0.7967,-0.5589,-0.0767
1.9610,-0.8182,-0.5741,-0.1031
1.9610,-0.8182,-0.5741,-0.1031
1.9610,-0.8182,-0.5741,-0.1031
1.9860,-0.8231,-0.5958,-0.1129
1.9860,-0.8231,-0.5958,-0.1129
1.9860,-0.8231,-0.5958,-0.1129
1.9870,-0.8231,-0.5958,-0.1129
1.9870,-0.8231,-0.5958,-0.1129
1.9870,-0.8231,-0.5958,-0.1129
2.0060,-0.7918,-0.5988,-0.1295
2.0060,-0.7918,-0.5988,-0.1295
2.0060,-0.7918,-0.5988,-0.1295
2.0250,-0.7706,-0.5904,-0.1342
2.0260,-0.7706,-0.5904,-0.1342
2.0260,-0.7706,-0.5904,-0.1342
2.0450,-0.7686,-0.5787,-0.1493
2.0460,-0.7686,-0.5787,-0.1493
2.0460,-0.7686,-0.5787,-0.1493
2.0640,-0.7759,-0.5809,-0.1469
2.0640,-0.7759,-0.5809,-0.1469
2.0640,-0.7759,-0.5809,-0.1469
2.0680,-0.7759,-0.5809,-0.1469
2.0680,-0.7759,-0.5809,-0.1469
2.0860,-0.7686,-0.5963,-0.1415
2.0860,-0.7686,-0.5963,-0.1415
2.0870,-0.7686,-0.5963,-0.1415
2.1010,-0.7566,-0.6039,-0.1444
2.1010,-0.7566,-0.6039,-0.1444
2.1010,-0.7566,-0.6039,-0.1444
2.1260,-0.7395,-0.5966,-0.1395
2.1260,-0.7395,-0.5966,-0.1395
2.1270,-0.7395,-0.5966,-0.1395
2.1430,-0.7530,-0.5926,-0.1298
2.1430,-0.7530,-0.5926,-0.1298
2.1440,-0.7530,-0.5926,-0.1298
2.1440,-0.7530,-0.5926,-0.1298
2.1440,-0.7530,-0.5926,-0.1298
2.1600,-0.7667,-0.5968,-0.1249
2.1600,-0.7667,-0.5968,-0.1249
2.1600,-0.7667,-0.5968,-0.1249
2.1800,-0.7754,-0.5880,-0.1237
2.1800,-0.7754,-0.5880,-0.1237
2.1800,-0.7754,-0.5880,-0.1237
2.1800,-0.7754,-0.5880,-0.1237
2.1990,-0.7850,-0.5765,-0.1266
2.1990,-0.7850,-0.5765,-0.1266
2.2000,-0.7850,-0.5765,-0.1266
2.2000,-0.7850,-0.5765,-0.1266
2.2190,-0.7818,-0.5831,-0.1417
2.2190,-0.7818,-0.5831,-0.1417
2.2190,-0.7818,-0.5831,-0.1417
2.2210,-0.7818,-0.5831,-0.1417
2.2210,-0.7818,-0.5831,-0.1417
2.2390,-0.8080,-0.5958,-0.1320
2.2390,-0.8080,-0.5958,-0.1320
2.2400,-0.8080,-0.5958,-0.1320
2.2590,-0.7891,-0.5919,-0.1464
2.2590,-0.7891,-0.5919,-0.1464
2.2590,-0.7891,-0.5919,-0.1464
2.2790,-0.7645,-0.5895,-0.1430
2.2800,-0.7645,-0.5895,-0.1430
2.2800,-0.7645,-0.5895,-0.1430
2.2990,-0.7745,-0.5882,-0.1268
2.2990,-0.7745,-0.5882,-0.1268
2.2990,-0.7745,-0.5882,-0.1268
2.2990,-0.7745,-0.5882,-0.1268
2.2990,-0.7745,-0.5882,-0.1268
2.3190,-0.7693,-0.5897,-0.1237
2.3190,-0.7693,-0.5897,-0.1237
2.3190,-0.7693,-0.5897,-0.1237
2.3380,-0.7740,-0.5919,-0.1239
2.3380,-0.7740,-0.5919,-0.1239
2.3380,-0.7740,-0.5919,-0.1239
2.3580,-0.7794,-0.5963,-0.1178
2.3580,-0.7794,-0.5963,-0.1178
2.3580,-0.7794,-0.5963,-0.1178
2.3780,-0.7918,-0.5946,-0.1051
2.3790,-0.7918,-0.5946,-0.1051
2.3790,-0.7918,-0.5946,-0.1051
2.3810,-0.7918,-0.5946,-0.1051
2.3810,-0.7918,-0.5946,-0.1051
2.3810,-0.7918,-0.5946,-0.1051
2.3990,-0.7669,-0.5929,-0.1158
2.3990,-0.7669,-0.5929,-0.1158
2.3990,-0.7669,-0.5929,-0.1158
2.3990,-0.7669,-0.5929,-0.1158
2.4180,-0.7559,-0.6027,-0.1369
2.4670,-0.7559,-0.6027,-0.1369
2.4670,-0.7559,-0.6027,-0.1369
2.4670,-0.7593,-0.6061,-0.1317
2.4670,-0.7593,-0.6061,-0.1317
2.4670,-0.7593,-0.6061,-0.1317
2.4680,-0.7586,-0.6002,-0.1166
2.4680,-0.7586,-0.6002,-0.1166
2.4680,-0.7586,-0.6002,-0.1166
2.4680,-0.7586,-0.6002,-0.1166
2.4680,-0.7586,-0.6002,-0.1166
2.4800,-0.7603,-0.5914,-0.1202
2.4800,-0.7603,-0.5914,-0.1202
2.4800,-0.7603,-0.5914,-0.1202
2.4990,-0.7684,-0.5819,-0.1373
2.4990,-0.7684,-0.5819,-0.1373
2.4990,-0.7684,-0.5819,-0.1373
2.5170,-0.7923,-0.5834,-0.1278
2.5180,-0.7923,-0.5834,-0.1278
2.5180,-0.7923,-0.5834,-0.1278
2.5380,-0.7847,-0.5912,-0.1124
2.5380,-0.7847,-0.5912,-0.1124
2.5380,-0.7847,-0.5912,-0.1124
2.5410,-0.7847,-0.5912,-0.1124
2.5410,-0.7847,-0.5912,-0.1124
2.5590,-0.7869,-0.5802,-0.1141
2.5600,-0.7869,-0.5802,-0.1141
2.5600,-0.7869,-0.5802,-0.1141
2.5790,-0.7818,-0.5831,-0.1156
2.5790,-0.7818,-0.5831,-0.1156
2.5800,-0.7818,-0.5831,-0.1156
2.5800,-0.7818,-0.5831,-0.1156
2.5970,-0.7818,-0.5831,-0.1156
2.5980,-0.7750,-0.5914,-0.1239
2.5980,-0.7750,-0.5914,-0.1239
2.5980,-0.7750,-0.5914,-0.1239
2.6160,-0.7796,-0.5858,-0.1395
2.6170,-0.7796,-0.5858,-0.1395
2.6170,-0.7796,-0.5858,-0.1395
2.6170,-0.7796,-0.5858,-0.1395
2.6170,-0.7796,-0.5858,-0.1395
2.6370,-0.7918,-0.5834,-0.1293
2.6370,-0.7918,-0.5834,-0.1293
2.6380,-0.7918,-0.5834,-0.1293
2.6590,-0.8001,-0.5792,-0.1092
2.6590,-0.8001,-0.5792,-0.1092
2.6590,-0.8001,-0.5792,-0.1092
2.6780,-0.7813,-0.5834,-0.1244
2.6790,-0.7813,-0.5834,-0.1244
2.6790,-0.7813,-0.5834,-0.1244
2.6980,-0.7806,-0.5970,-0.1290
2.6980,-0.7806,-0.5970,-0.1290
2.6980,-0.7806,-0.5970,-0.1290
2.6980,-0.7806,-0.5970,-0.1290
2.6990,-0.7806,-0.5970,-0.1290
2.7190,-0.7935,-0.5863,-0.1234
2.7190,-0.7935,-0.5863,-0.1234
2.7200,-0.7935,-0.5863,-0.1234
2.7370,-0.7703,-0.5755,-0.1452
2.7370,-0.7703,-0.5755,-0.1452
2.7370,-0.7703,-0.5755,-0.1452
2.7600,-0.7696,-0.5922,-0.1471
2.7600,-0.7696,-0.5922,-0.1471
2.7600,-0.7696,-0.5922,-0.1471
2.7790,-0.7786,-0.5892,-0.1259
2.7800,-0.7786,-0.5892,-0.1259
2.7800,-0.7786,-0.5892,-0.1259
2.7800,-0.7786,-0.5892,-0.1259
2.7800,-0.7786,-0.5892,-0.1259
2.7800,-0.7786,-0.5892,-0.1259
2.7970,-0.7754,-0.5733,-0.1215
2.7980,-0.7754,-0.5733,-0.1215
2.7980,-0.7754,-0.5733,-0.1215
2.8170,-0.7779,-0.5741,-0.1224
2.8170,-0.7779,-0.5741,-0.1224
2.8170,-0.7779,-0.5741,-0.1224
2.8360,-0.7732,-0.5812,-0.1361
2.8360,-0.7732,-0.5812,-0.1361
2.8360,-0.7732,-0.5812,-0.1361
2.8570,-0.7561,-0.5865,-0.1171
2.8570,-0.7561,-0.5865,-0.1171
2.8570,-0.7561,-0.5865,-0.1171
2.8600,-0.7561,-0.5865,-0.1171
2.8600,-0.7561,-0.5865,-0.1171
2.8780,-0.7610,-0.5731,-0.1134
2.8790,-0.7610,-0.5731,-0.1134
2.8790,-0.7610,-0.5731,-0.1134
2.8970,-0.7806,-0.5665,-0.1107
2.8980,-0.7806,-0.5665,-0.1107
2.8980,-0.7806,-0.5665,-0.1107
2.9160,-0.7786,-0.5816,-0.1075
2.9160,-0.7786,-0.5816,-0.1075
2.9160,-0.7786,-0.5816,-0.1075
2.9350,-0.7632,-0.6046,-0.1246
2.9360,-0.7632,-0.6046,-0.1246
2.9360,-0.7632,-0.6046,-0.1246
2.9360,-0.7632,-0.6046,-0.1246
2.9360,-0.7632,-0.6046,-0.1246
2.9580,-0.7745,-0.6061,-0.1342
2.9580,-0.7745,-0.6061,-0.1342
2.9590,-0.7745,-0.6061,-0.1342
3.0050,-0.7725,-0.5890,-0.1273
3.0050,-0.7725,-0.5890,-0.1273
3.0050,-0.7725,-0.5890,-0.1273
3.0050,-0.7725,-0.5890,-0.1273
3.0050,-0.7725,-0.5890,-0.1273
3.0050,-0.7618,-0.5900,-0.1224
3.0050,-0.7618,-0.5900,-0.1224
3.0060,-0.7618,-0.5900,-0.1224
3.0180,-0.7505,-0.5992,-0.1298
3.0180,-0.7505,-0.5992,-0.1298
3.0180,-0.7505,-0.5992,-0.1298
3.0180,-0.7505,-0.5992,-0.1298
3.0180,-0.7505,-0.5992,-0.1298
3.0380,-0.7576,-0.5956,-0.1224
3.0380,-0.7576,-0.5956,-0.1224
3.0380,-0.7576,-0.5956,-0.1224
3.0530,-0.7696,-0.5924,-0.1127
3.0540,-0.7696,-0.5924,-0.1127
3.0540,-0.7696,-0.5924,-0.1127
3.0740,-0.7818,-0.5836,-0.1198
3.0740,-0.7818,-0.5836,-0.1198
3.0740,-0.7818,-0.5836,-0.1198
3.0950,-0.8194,-0.5775,-0.1075
3.0950,-0.8194,-0.5775,-0.1075
3.0950,-0.8194,-0.5775,-0.1075
3.0950,-0.8194,-0.5775,-0.1075
3.0950,-0.8194,-0.5775,-0.1075
3.1180,-0.8236,-0.5838,-0.1044
3.1180,-0.8236,-0.5838,-0.1044
3.1180,-0.8236,-0.5838,-0.1044
3.1350,-0.8075,-0.5944,-0.1281
3.1350,-0.8075,-0.5944,-0.1281
3.1350,-0.8075,-0.5944,-0.1281
3.1540,-0.7884,-0.6041,-0.1413
3.1550,-0.7884,-0.6041,-0.1413
3.1550,-0.7884,-0.6041,-0.1413
3.1730,-0.7627,-0.6093,-0.1281
3.1730,-0.7627,-0.6093,-0.1281
3.1740,-0.7627,-0.6093,-0.1281
3.1760,-0.7627,-0.6093,-0.1281
3.1760,-0.7627,-0.6093,-0.1281
3.1760,-0.7627,-0.6093,-0.1281
3.1920,-0.7627,-0.6093,-0.1281
3.1960,-0.7554,-0.5995,-0.1220
3.1960,-0.7554,-0.5995,-0.1220
3.1960,-0.7554,-0.5995,-0.1220
3.2130,-0.7645,-0.5870,-0.1285
3.2130,-0.7645,-0.5870,-0.1285
3.2130,-0.7645,-0.5870,-0.1285
3.2350,-0.7596,-0.5970,-0.1193
3.2360,-0.7596,-0.5970,-0.1193
3.2360,-0.7596,-0.5970,-0.1193
3.2530,-0.7735,-0.5985,-0.1041
3.2530,-0.7735,-0.5985,-0.1041
3.2530,-0.7735,-0.5985,-0.1041
3.2530,-0.7735,-0.5985,-0.1041
3.2540,-0.7735,-0.5985,-0.1041
3.2770,-0.7874,-0.5939,-0.1229
3.2780,-0.7874,-0.5939,-0.1229
3.2780,-0.7874,-0.5939,-0.1229
3.2960,-0.7860,-0.5983,-0.1403
3.2960,-0.7860,-0.5983,-0.1403
3.2960,-0.7860,-0.5983,-0.1403
3.3140,-0.7811,-0.5975,-0.1378
3.3140,-0.7811,-0.5975,-0.1378
3.3140,-0.7811,-0.5975,-0.1378
3.3340,-0.7769,-0.5914,-0.1413
3.3340,-0.7769,-0.5914,-0.1413
3.3340,-0.7769,-0.5914,-0.1413
3.3370,-0.7769,-0.5914,-0.1413
3.3370,-0.7769,-0.5914,-0.1413
3.3540,-0.7495,-0.5900,-0.1491
3.3540,-0.7495,-0.5900,-0.1491
3.3540,-0.7495,-0.5900,-0.1491
3.3730,-0.7464,-0.5787,-0.1547
3.3730,-0.7464,-0.5787,-0.1547
3.3730,-0.7464,-0.5787,-0.1547
3.3740,-0.7464,-0.5787,-0.1547
3.3910,-0.7464,-0.5787,-0.1547
3.3910,-0.7750,-0.5826,-0.1161
3.3910,-0.7750,-0.5826,-0.1161
3.3920,-0.7750,-0.5826,-0.1161
3.4120,-0.7710,-0.5980,-0.0968
3.4120,-0.7710,-0.5980,-0.0968
3.4120,-0.7710,-0.5980,-0.0968
3.4130,-0.7710,-0.5980,-0.0968
3.4130,-0.7710,-0.5980,-0.0968
3.4330,-0.7630,-0.6034,-0.0963
3.4340,-0.7630,-0.6034,-0.0963
3.4340,-0.7630,-0.6034,-0.0963
3.4530,-0.7742,-0.5870,-0.1124
3.4530,-0.7742,-0.5870,-0.1124
3.4530,-0.7742,-0.5870,-0.1124
3.4720,-0.7583,-0.6007,-0.1139
3.4730,-0.7583,-0.6007,-0.1139
3.4730,-0.7583,-0.6007,-0.1139
3.4910,-0.7693,-0.6249,-0.1056
3.4920,-0.7693,-0.6249,-0.1056
3.4920,-0.7693,-0.6249,-0.1056
3.4920,-0.7693,-0.6249,-0.1056
3.5280,-0.7693,-0.6249,-0.1056
3.5280,-0.7410,-0.6129,-0.1381
3.5280,-0.7410,-0.6129,-0.1381
3.5280,-0.7410,-0.6129,-0.1381
3.5350,-0.7464,-0.5934,-0.1283
3.5350,-0.7464,-0.5934,-0.1283
3.5350,-0.7464,-0.5934,-0.1283
3.5480,-0.7684,-0.5772,-0.1266
3.5480,-0.7684,-0.5772,-0.1266
3.5480,-0.7684,-0.5772,-0.1266
3.5690,-0.7886,-0.5824,-0.1180
3.5690,-0.7886,-0.5824,-0.1180
3.5700,-0.7886,-0.5824,-0.1180
3.5730,-0.7886,-0.5824,-0.1180
3.5730,-0.7886,-0.5824,-0.1180
3.5740,-0.7886,-0.5824,-0.1180
3.5890,-0.7886,-0.5824,-0.1180
3.5890,-0.7715,-0.6017,-0.1254
3.5890,-0.7715,-0.6017,-0.1254
3.5890,-0.7715,-0.6017,-0.1254
3.6100,-0.7872,-0.6100,-0.1254
3.6100,-0.7872,-0.6100,-0.1254
3.6100,-0.7872,-0.6100,-0.1254
3.6300,-0.8153,-0.6049,-0.1178
3.6300,-0.8153,-0.6049,-0.1178
3.6300,-0.8153,-0.6049,-0.1178
3.6510,-0.7979,-0.6054,-0.1154
3.6510,-0.7979,-0.6054,-0.1154
3.6510,-0.7979,-0.6054,-0.1154
3.6520,-0.7979,-0.6054,-0.1154
3.6520,-0.7979,-0.6054,-0.1154
3.6700,-0.7791,-0.6137,-0.1315
3.6710,-0.7791,-0.6137,-0.1315
3.6710,-0.7791,-0.6137,-0.1315
3.6910,-0.7676,-0.6117,-0.1388
3.6920,-0.7676,-0.6117,-0.1388
3.6920,-0.7676,-0.6117,-0.1388
3.7090,-0.7525,-0.6044,-0.1163
3.7090,-0.7525,-0.6044,-0.1163
3.7100,-0.7525,-0.6044,-0.1163
3.7300,-0.7483,-0.6044,-0.1083
3.7300,-0.7483,-0.6044,-0.1083
3.7300,-0.7483,-0.6044,-0.1083
3.7310,-0.7483,-0.6044,-0.1083
3.7310,-0.7483,-0.6044,-0.1083
3.7510,-0.7371,-0.6012,-0.1178
3.7510,-0.7371,-0.6012,-0.1178
3.7510,-0.7371,-0.6012,-0.1178
3.7690,-0.7635,-0.5953,-0.1114
3.7700,-0.7635,-0.5953,-0.1114
3.7700,-0.7635,-0.5953,-0.1114
3.7700,-0.7635,-0.5953,-0.1114
3.7900,-0.7940,-0.5978,-0.1166
3.7900,-0.7940,-0.5978,-0.1166
3.7900,-0.7940,-0.5978,-0.1166
3.8090,-0.7901,-0.6124,-0.1205
3.8090,-0.7901,-0.6124,-0.1205
3.8090,-0.7901,-0.6124,-0.1205
3.8120,-0.7901,-0.6124,-0.1205
3.8120,-0.7901,-0.6124,-0.1205
3.8300,-0.7774,-0.6049,-0.1383
3.8300,-0.7774,-0.6049,-0.1383
3.8300,-0.7774,-0.6049,-0.1383
3.8490,-0.7767,-0.5953,-0.1405
3.8500,-0.7767,-0.5953,-0.1405
3.8500,-0.7767,-0.5953,-0.1405
3.8690,-0.7757,-0.5904,-0.1185
3.8690,-0.7757,-0.5904,-0.1185
3.8700,-0.7757,-0.5904,-0.1185
3.8900,-0.7525,-0.5790,-0.1381
3.8910,-0.7525,-0.5790,-0.1381
3.8910,-0.7525,-0.5790,-0.1381
3.8910,-0.7525,-0.5790,-0.1381
3.8910,-0.7525,-0.5790,-0.1381
3.9090,-0.7618,-0.5819,-0.1437
3.9090,-0.7618,-0.5819,-0.1437
3.9100,-0.7618,-0.5819,-0.1437
3.9280,-0.7794,-0.5909,-0.1188
3.9290,-0.7794,-0.5909,-0.1188
3.9290,-0.7794,-0.5909,-0.1188
3.9490,-0.7693,-0.5890,-0.1200
3.9490,-0.7693,-0.5890,-0.1200
3.9490,-0.7693,-0.5890,-0.1200
3.9690,-0.7693,-0.5890,-0.1200
3.9690,-0.7723,-0.5858,-0.1271
3.9690,-0.7723,-0.5858,-0.1271
3.9700,-0.7723,-0.5858,-0.1271
3.9700,-0.7723,-0.5858,-0.1271
3.9700,-0.7723,-0.5858,-0.1271
3.9870,-0.7723,-0.5858,-0.1271
3.9920,-0.7601,-0.5946,-0.1063
3.9920,-0.7601,-0.5946,-0.1063
3.9920,-0.7601,-0.5946,-0.1063
4.0090,-0.7398,-0.6058,-0.1034
4.0090,-0.7398,-0.6058,-0.1034
4.0090,-0.7398,-0.6058,-0.1034
4.0280,-0.7579,-0.6080,-0.1083
4.0280,-0.7579,-0.6080,-0.1083
4.0280,-0.7579,-0.6080,-0.1083
4.0480,-0.7466,-0.6063,-0.1281
4.0960,-0.7466,-0.6063,-0.1281
4.0960,-0.7466,-0.6063,-0.1281
4.0960,-0.7466,-0.6063,-0.1281
4.0970,-0.7466,-0.6063,-0.1281
4.0970,-0.7488,-0.6073,-0.1229
4.0970,-0.7488,-0.6073,-0.1229
4.0970,-0.7488,-0.6073,-0.1229
4.0970,-0.7845,-0.5941,-0.1161
4.0970,-0.7845,-0.5941,-0.1161
4.0970,-0.7845,-0.5941,-0.1161
4.1060,-0.7996,-0.5907,-0.1066
4.1060,-0.7996,-0.5907,-0.1066
4.1060,-0.7996,-0.5907,-0.1066
4.1260,-0.7652,-0.5944,-0.1122
4.1260,-0.7652,-0.5944,-0.1122
4.1260,-0.7652,-0.5944,-0.1122
4.1290,-0.7652,-0.5944,-0.1122
4.1290,-0.7652,-0.5944,-0.1122
4.1470,-0.7835,-0.5812,-0.1293
4.1470,-0.7835,-0.5812,-0.1293
4.1470,-0.7835,-0.5812,-0.1293
4.1680,-0.7835,-0.5812,-0.1293
4.1680,-0.8155,-0.5738,-0.1413
4.1680,-0.8155,-0.5738,-0.1413
4.1680,-0.8155,-0.5738,-0.1413
4.1860,-0.8155,-0.5738,-0.1413
4.1860,-0.7989,-0.5900,-0.1249
4.1870,-0.7989,-0.5900,-0.1249
4.1870,-0.7989,-0.5900,-0.1249
4.2060,-0.7752,-0.5939,-0.1498
4.2060,-0.7752,-0.5939,-0.1498
4.2060,-0.7752,-0.5939,-0.1498
4.2080,-0.7752,-0.5939,-0.1498
4.2080,-0.7752,-0.5939,-0.1498
4.2270,-0.7686,-0.5863,-0.1432
4.2270,-0.7686,-0.5863,-0.1432
4.2270,-0.7686,-0.5863,-0.1432
4.2460,-0.7737,-0.5799,-0.1207
4.2460,-0.7737,-0.5799,-0.1207
4.2460,-0.7737,-0.5799,-0.1207
4.2660,-0.7745,-0.5892,-0.1144
4.2660,-0.7745,-0.5892,-0.1144
4.2660,-0.7745,-0.5892,-0.1144
4.2860,-0.7720,-0.6029,-0.1205
4.2860,-0.7720,-0.6029,-0.1205
4.2860,-0.7720,-0.6029,-0.1205
4.2880,-0.7720,-0.6029,-0.1205
4.2880,-0.7720,-0.6029,-0.1205
4.3070,-0.7698,-0.5953,-0.1207
4.3070,-0.7698,-0.5953,-0.1207
4.3070,-0.7698,-0.5953,-0.1207
4.3270,-0.7725,-0.5848,-0.1276
4.3270,-0.7725,-0.5848,-0.1276
4.3270,-0.7725,-0.5848,-0.1276
4.3460,-0.7970,-0.5809,-0.1298
4.3460,-0.7970,-0.5809,-0.1298
4.3460,-0.7970,-0.5809,-0.1298
4.3660,-0.7970,-0.5809,-0.1298
4.3660,-0.7955,-0.5897,-0.1222
4.3660,-0.7955,-0.5897,-0.1222
4.3660,-0.7955,-0.5897,-0.1222
4.3680,-0.7955,-0.5897,-0.1222
4.3690,-0.7955,-0.5897,-0.1222
4.3870,-0.7569,-0.5988,-0.1342
4.3870,-0.7569,-0.5988,-0.1342
4.3870,-0.7569,-0.5988,-0.1342
4.4070,-0.7488,-0.5834,-0.1540
4.4070,-0.7488,-0.5834,-0.1540
4.4070,-0.7488,-0.5834,-0.1540
4.4270,-0.7630,-0.5802,-0.1322
4.4270,-0.7630,-0.5802,-0.1322
4.4270,-0.7630,-0.5802,-0.1322
4.4470,-0.7630,-0.5897,-0.1063
4.4480,-0.7630,-0.5897,-0.1063
4.4480,-0.7630,-0.5897,-0.1063
4.4480,-0.7630,-0.5897,-0.1063
4.4480,-0.7630,-0.5897,-0.1063
4.4670,-0.7681,-0.5870,-0.1198
4.4680,-0.7681,-0.5870,-0.1198
4.4680,-0.7681,-0.5870,-0.1198
4.4870,-0.7410,-0.6019,-0.1342
4.4870,-0.7410,-0.6019,-0.1342
4.4870,-0.7410,-0.6019,-0.1342
4.5080,-0.7781,-0.6127,-0.1007
4.5080,-0.7781,-0.6127,-0.1007
4.5080,-0.7781,-0.6127,-0.1007
4.5260,-0.7935,-0.5946,-0.1075
4.5260,-0.7935,-0.5946,-0.1075
4.5260,-0.7935,-0.5946,-0.1075
4.5290,-0.7935,-0.5946,-0.1075
4.5290,-0.7935,-0.5946,-0.1075
4.5460,-0.7708,-0.5926,-0.1410
4.5460,-0.7708,-0.5926,-0.1410
4.5470,-0.7708,-0.5926,-0.1410
4.5650,-0.7708,-0.5926,-0.1410
4.5660,-0.7483,-0.5988,-0.1469
4.5660,-0.7483,-0.5988,-0.1469
4.5660,-0.7483,-0.5988,-0.1469
4.5860,-0.7737,-0.5853,-0.1149
4.5860,-0.7737,-0.5853,-0.1149
4.6310,-0.7737,-0.5853,-0.1149
4.6310,-0.7825,-0.5772,-0.0990
4.6310,-0.7825,-0.5772,-0.0990
4.6310,-0.7825,-0.5772,-0.0990
4.6310,-0.7825,-0.5772,-0.0990
4.6310,-0.7825,-0.5772,-0.0990
4.6310,-0.7669,-0.5890,-0.1202
4.6310,-0.7669,-0.5890,-0.1202
4.6320,-0.7669,-0.5890,-0.1202
4.6440,-0.7583,-0.6144,-0.1329
4.6440,-0.7583,-0.6144,-0.1329
4.6440,-0.7583,-0.6144,-0.1329
4.6640,-0.7728,-0.6156,-0.1156
4.6640,-0.7728,-0.6156,-0.1156
4.6640,-0.7728,-0.6156,-0.1156
4.6850,-0.7889,-0.5790,-0.1271
4.6860,-0.7889,-0.5790,-0.1271
4.6860,-0.7889,-0.5790,-0.1271
4.6860,-0.7889,-0.5790,-0.1271
4.6860,-0.7889,-0.5790,-0.1271
4.7050,-0.7835,-0.5785,-0.1496
4.7050,-0.7835,-0.5785,-0.1496
4.7050,-0.7835,-0.5785,-0.1496
4.7300,-0.7742,-0.6164,-0.1378
4.7300,-0.7742,-0.6164,-0.1378
4.7300,-0.7742,-0.6164,-0.1378
4.7460,-0.7542,-0.6225,-0.1303
4.7460,-0.7542,-0.6225,-0.1303
4.7460,-0.7542,-0.6225,-0.1303
4.7660,-0.7542,-0.6225,-0.1303
4.7660,-0.7554,-0.6019,-0.1300
4.7660,-0.7554,-0.6019,-0.1300
4.7670,-0.7554,-0.6019,-0.1300
4.7670,-0.7554,-0.6019,-0.1300
4.7670,-0.7554,-0.6019,-0.1300
4.7860,-0.7708,-0.5912,-0.1569
4.7860,-0.7708,-0.5912,-0.1569
4.7860,-0.7708,-0.5912,-0.1569
4.8060,-0.7908,-0.6014,-0.1381
4.8060,-0.7908,-0.6014,-0.1381
4.8060,-0.7908,-0.6014,-0.1381
4.8260,-0.7676,-0.6054,-0.1053
4.8270,-0.7676,-0.6054,-0.1053
4.8270,-0.7676,-0.6054,-0.1053
4.8450,-0.7823,-0.5809,-0.1002
4.8460,-0.7823,-0.5809,-0.1002
4.8460,-0.7823,-0.5809,-0.1002
4.8460,-0.7823,-0.5809,-0.1002
4.8460,-0.7823,-0.5809,-0.1002
4.8650,-0.8097,-0.5597,-0.1075
4.8660,-0.8097,-0.5597,-0.1075
4.8660,-0.8097,-0.5597,-0.1075
4.8860,-0.7798,-0.5675,-0.1525
4.8870,-0.7798,-0.5675,-0.1525
4.8870,-0.7798,-0.5675,-0.1525
4.9050,-0.7532,-0.6024,-0.1435
4.9050,-0.7532,-0.6024,-0.1435
4.9050,-0.7532,-0.6024,-0.1435
4.9250,-0.7549,-0.6088,-0.1261
4.9250,-0.7549,-0.6088,-0.1261
4.9260,-0.7549,-0.6088,-0.1261
4.9260,-0.7549,-0.6088,-0.1261
4.9260,-0.7549,-0.6088,-0.1261
4.9450,-0.7615,-0.5875,-0.1337
4.9450,-0.7615,-0.5875,-0.1337
4.9460,-0.7615,-0.5875,-0.1337
4.9650,-0.7615,-0.5875,-0.1337
4.9650,-0.7693,-0.5838,-0.1503
4.9650,-0.7693,-0.5838,-0.1503
4.9660,-0.7693,-0.5838,-0.1503
4.9840,-0.7757,-0.6110,-0.1327
4.9850,-0.7757,-0.6110,-0.1327
4.9850,-0.7757,-0.6110,-0.1327
5.0040,-0.7517,-0.6247,-0.1283
5.0040,-0.7517,-0.6247,-0.1283
5.0040,-0.7517,-0.6247,-0.1283
5.0040,-0.7517,-0.6247,-0.1283
5.0050,-0.7517,-0.6247,-0.1283
5.0230,-0.7532,-0.6090,-0.1281
5.0230,-0.7532,-0.6090,-0.1281
5.0230,-0.7532,-0.6090,-0.1281
5.0450,-0.7632,-0.5890,-0.1354
5.0450,-0.7632,-0.5890,-0.1354
5.0460,-0.7632,-0.5890,-0.1354
5.0650,-0.7913,-0.5841,-0.1207
5.0650,-0.7913,-0.5841,-0.1207
5.0660,-0.7913,-0.5841,-0.1207
5.0840,-0.8089,-0.5856,-0.1105
5.0840,-0.8089,-0.5856,-0.1105
5.0840,-0.8089,-0.5856,-0.1105
5.0850,-0.8089,-0.5856,-0.1105
5.0850,-0.8089,-0.5856,-0.1105
5.1040,-0.7574,-0.5919,-0.1388
5.1050,-0.7574,-0.5919,-0.1388
5.1050,-0.7574,-0.5919,-0.1388
5.1250,-0.7395,-0.5958,-0.1515
5.1250,-0.7395,-0.5958,-0.1515
5.1250,-0.7395,-0.5958,-0.1515
5.1430,-0.7904,-0.5868,-0.1283
5.1440,-0.7904,-0.5868,-0.1283
5.1840,-0.7904,-0.5868,-0.1283
5.1850,-0.7904,-0.5868,-0.1283
5.1850,-0.8028,-0.5787,-0.1356
5.1860,-0.8028,-0.5787,-0.1356
5.1860,-0.8028,-0.5787,-0.1356
5.1860,-0.8028,-0.5787,-0.1356
5.1860,-0.8028,-0.5787,-0.1356
5.1860,-0.7715,-0.5882,-0.1574
5.1860,-0.7715,-0.5882,-0.1574
5.1860,-0.7715,-0.5882,-0.1574
5.2040,-0.7764,-0.5973,-0.1373
5.2050,-0.7764,-0.5973,-0.1373
5.2050,-0.7764,-0.5973,-0.1373
5.2200,-0.7671,-0.5966,-0.1300
5.2210,-0.7671,-0.5966,-0.1300
5.2210,-0.7671,-0.5966,-0.1300
5.2400,-0.7349,-0.5992,-0.1178
5.2400,-0.7349,-0.5992,-0.1178
5.2410,-0.7349,-0.5992,-0.1178
5.2430,-0.7349,-0.5992,-0.1178
5.2430,-0.7349,-0.5992,-0.1178
5.2610,-0.7557,-0.5841,-0.1100
5.2610,-0.7557,-0.5841,-0.1100
5.2610,-0.7557,-0.5841,-0.1100
5.2830,-0.8092,-0.5785,-0.1293
5.2830,-0.8092,-0.5785,-0.1293
5.2830,-0.8092,-0.5785,-0.1293
5.3050,-0.8072,-0.5948,-0.1373
5.3050,-0.8072,-0.5948,-0.1373
5.3050,-0.8072,-0.5948,-0.1373
5.3210,-0.7630,-0.6017,-0.1435
5.3210,-0.7630,-0.6017,-0.1435
5.3210,-0.7630,-0.6017,-0.1435
5.3240,-0.7630,-0.6017,-0.1435
5.3240,-0.7630,-0.6017,-0.1435
5.3440,-0.7723,-0.5990,-0.1547
5.3440,-0.7723,-0.5990,-0.1547
5.3440,-0.7723,-0.5990,-0.1547
5.3600,-0.7723,-0.5990,-0.1547
5.3630,-0.7772,-0.5944,-0.1581
5.3630,-0.7772,-0.5944,-0.1581
5.3630,-0.7772,-0.5944,-0.1581
5.3820,-0.7635,-0.5887,-0.1373
5.3820,-0.7635,-0.5887,-0.1373
5.3820,-0.7635,-0.5887,-0.1373
5.4030,-0.7417,-0.5834,-0.1327
5.4030,-0.7417,-0.5834,-0.1327
5.4030,-0.7417,-0.5834,-0.1327
5.4040,-0.7417,-0.5834,-0.1327
5.4040,-0.7417,-0.5834,-0.1327
5.4220,-0.7530,-0.5829,-0.1332
5.4230,-0.7530,-0.5829,-0.1332
5.4230,-0.7530,-0.5829,-0.1332
5.4450,-0.7461,-0.5878,-0.1442
5.4450,-0.7461,-0.5878,-0.1442
5.4460,-0.7461,-0.5878,-0.1442
5.4620,-0.7488,-0.6154,-0.1268
5.4630,-0.7488,-0.6154,-0.1268
5.4630,-0.7488,-0.6154,-0.1268
5.4850,-0.7982,-0.6144,-0.1029
5.4850,-0.7982,-0.6144,-0.1029
5.4850,-0.7982,-0.6144,-0.1029
5.4850,-0.7982,-0.6144,-0.1029
5.4860,-0.7982,-0.6144,-0.1029
5.5000,-0.7904,-0.5983,-0.1004
5.5000,-0.7904,-0.5983,-0.1004
5.5000,-0.7904,-0.5983,-0.1004
5.5260,-0.7816,-0.5929,-0.1351
5.5270,-0.7816,-0.5929,-0.1351
5.5270,-0.7816,-0.5929,-0.1351
5.5420,-0.7884,-0.5851,-0.1437
5.5420,-0.7884,-0.5851,-0.1437
5.5420,-0.7884,-0.5851,-0.1437
5.5560,-0.7884,-0.5851,-0.1437
5.5610,-0.7857,-0.5797,-0.1452
5.5610,-0.7857,-0.5797,-0.1452
5.5610,-0.7857,-0.5797,-0.1452
5.5610,-0.7857,-0.5797,-0.1452
5.5640,-0.7857,-0.5797,-0.1452
5.5810,-0.7691,-0.5831,-0.1452
5.5810,-0.7691,-0.5831,-0.1452
5.5810,-0.7691,-0.5831,-0.1452
5.6020,-0.7774,-0.5797,-0.1486
5.6020,-0.7774,-0.5797,-0.1486
5.6020,-0.7774,-0.5797,-0.1486
5.6210,-0.7977,-0.5848,-0.1427
5.6210,-0.7977,-0.5848,-0.1427
5.6210,-0.7977,-0.5848,-0.1427
5.6390,-0.8023,-0.6005,-0.1413
5.6390,-0.8023,-0.6005,-0.1413
5.6390,-0.8023,-0.6005,-0.1413
5.6400,-0.8023,-0.6005,-0.1413
5.6400,-0.8023,-0.6005,-0.1413
5.6620,-0.7891,-0.6115,-0.1290
5.6630,-0.7891,-0.6115,-0.1290
5.6630,-0.7891,-0.6115,-0.1290
5.6840,-0.7659,-0.6068,-0.1290
5.6840,-0.7659,-0.6068,-0.1290
5.6840,-0.7659,-0.6068,-0.1290
5.7000,-0.7530,-0.5961,-0.1273
5.7370,-0.7530,-0.5961,-0.1273
5.7370,-0.7530,-0.5961,-0.1273
5.7370,-0.7730,-0.5878,-0.1256
5.7370,-0.7730,-0.5878,-0.1256
5.7370,-0.7730,-0.5878,-0.1256
5.7380,-0.7730,-0.5878,-0.1256
5.7380,-0.7730,-0.5878,-0.1256
5.7380,-0.7930,-0.5750,-0.1117
5.7380,-0.7930,-0.5750,-0.1117
5.7380,-0.7930,-0.5750,-0.1117
5.7580,-0.7930,-0.5750,-0.1117
5.7610,-0.7725,-0.5782,-0.1388
5.7610,-0.7725,-0.5782,-0.1388
5.7610,-0.7725,-0.5782,-0.1388
5.7780,-0.7432,-0.5904,-0.1547
5.7790,-0.7432,-0.5904,-0.1547
5.7790,-0.7432,-0.5904,-0.1547
5.7970,-0.7513,-0.5829,-0.1581
5.7970,-0.7513,-0.5829,-0.1581
5.7970,-0.7513,-0.5829,-0.1581
5.7970,-0.7513,-0.5829,-0.1581
5.7980,-0.7513,-0.5829,-0.1581
5.8160,-0.7855,-0.5726,-0.1432
5.8170,-0.7855,-0.5726,-0.1432
5.8170,-0.7855,-0.5726,-0.1432
5.8380,-0.7820,-0.5816,-0.1508
5.8390,-0.7820,-0.5816,-0.1508
5.8390,-0.7820,-0.5816,-0.1508
5.8570,-0.7681,-0.6000,-0.1574
5.8570,-0.7681,-0.6000,-0.1574
5.8570,-0.7681,-0.6000,-0.1574
5.8790,-0.7576,-0.5953,-0.1430
5.8790,-0.7576,-0.5953,-0.1430
5.8790,-0.7576,-0.5953,-0.1430
5.8790,-0.7576,-0.5953,-0.1430
5.8790,-0.7576,-0.5953,-0.1430
5.8980,-0.7625,-0.5836,-0.1320
5.8980,-0.7625,-0.5836,-0.1320
5.8980,-0.7625,-0.5836,-0.1320
5.9210,-0.7786,-0.5812,-0.1202
5.9220,-0.7786,-0.5812,-0.1202
5.9220,-0.7786,-0.5812,-0.1202
5.9380,-0.7368,-0.6014,-0.1317
5.9390,-0.7368,-0.6014,-0.1317
5.9390,-0.7368,-0.6014,-0.1317
5.9550,-0.7368,-0.6014,-0.1317
5.9580,-0.7530,-0.6183,-0.1215
5.9580,-0.7530,-0.6183,-0.1215
5.9590,-0.7530,-0.6183,-0.1215
5.9590,-0.7530,-0.6183,-0.1215
5.9590,-0.7530,-0.6183,-0.1215
5.9780,-0.7884,-0.6000,-0.1202
5.9790,-0.7884,-0.6000,-0.1202
5.9790,-0.7884,-0.6000,-0.1202
6.0010,-0.7845,-0.5777,-0.1303
6.0010,-0.7845,-0.5777,-0.1303
6.0020,-0.7845,-0.5777,-0.1303
6.0190,-0.7723,-0.5792,-0.1452
6.0190,-0.7723,-0.5792,-0.1452
6.0190,-0.7723,-0.5792,-0.1452
6.0390,-0.7833,-0.5882,-0.1320
6.0390,-0.7833,-0.5882,-0.1320
6.0390,-0.7833,-0.5882,-0.1320
6.0390,-0.7833,-0.5882,-0.1320
6.0400,-0.7833,-0.5882,-0.1320
6.0590,-0.7867,-0.5946,-0.1234
6.0600,-0.7867,-0.5946,-0.1234
6.0600,-0.7867,-0.5946,-0.1234
6.0790,-0.7596,-0.5985,-0.1337
6.0790,-0.7596,-0.5985,-0.1337
6.0800,-0.7596,-0.5985,-0.1337
6.0980,-0.7503,-0.6056,-0.1303
6.0990,-0.7503,-0.6056,-0.1303
6.0990,-0.7503,-0.6056,-0.1303
6.1170,-0.7667,-0.6105,-0.1435
6.1170,-0.7667,-0.6105,-0.1435
6.1170,-0.7667,-0.6105,-0.1435
6.1200,-0.7667,-0.6105,-0.1435
6.1200,-0.7667,-0.6105,-0.1435
6.1350,-0.7918,-0.6044,-0.1202
6.1360,-0.7918,-0.6044,-0.1202
6.1360,-0.7918,-0.6044,-0.1202
6.1540,-0.7918,-0.6044,-0.1202
6.1560,-0.7923,-0.5885,-0.1114
6.1560,-0.7923,-0.5885,-0.1114
6.1560,-0.7923,-0.5885,-0.1114
6.1770,-0.8138,-0.5929,-0.1234
6.1770,-0.8138,-0.5929,-0.1234
6.1780,-0.8138,-0.5929,-0.1234
6.1980,-0.7828,-0.5946,-0.1378
6.1980,-0.7828,-0.5946,-0.1378
6.1980,-0.7828,-0.5946,-0.1378
6.1980,-0.7828,-0.5946,-0.1378
6.1990,-0.7828,-0.5946,-0.1378
6.2170,-0.7615,-0.5873,-0.1503
6.2170,-0.7615,-0.5873,-0.1503
6.2170,-0.7615,-0.5873,-0.1503
6.2360,-0.7794,-0.5978,-0.1483
6.2370,-0.7794,-0.5978,-0.1483
6.2370,-0.7794,-0.5978,-0.1483
6.2960,-0.7840,-0.6044,-0.1312
6.2960,-0.7840,-0.6044,-0.1312
6.2960,-0.7840,-0.6044,-0.1312
6.2960,-0.7679,-0.5907,-0.1388
6.2960,-0.7679,-0.5907,-0.1388
6.2960,-0.7679,-0.5907,-0.1388
6.2960,-0.7679,-0.5907,-0.1388
6.2960,-0.7679,-0.5907,-0.1388
6.2960,-0.7505,-0.5902,-0.1449
6.2970,-0.7505,-0.5902,-0.1449
6.2970,-0.7505,-0.5902,-0.1449
6.3170,-0.7532,-0.5944,-0.1276
6.3170,-0.7532,-0.5944,-0.1276
6.3170,-0.7532,-0.5944,-0.1276
6.3330,-0.7723,-0.5931,-0.1080
6.3330,-0.7723,-0.5931,-0.1080
6.3330,-0.7723,-0.5931,-0.1080
6.3500,-0.7723,-0.5931,-0.1080
6.3530,-0.7693,-0.6000,-0.1132
6.3540,-0.7693,-0.6000,-0.1132
6.3540,-0.7693,-0.6000,-0.1132
6.3540,-0.7693,-0.6000,-0.1132
6.3540,-0.7693,-0.6000,-0.1132
6.3750,-0.7317,-0.6159,-0.1234
6.3750,-0.7317,-0.6159,-0.1234
6.3750,-0.7317,-0.6159,-0.1234
6.3950,-0.7385,-0.6168,-0.1344
6.3960,-0.7385,-0.6168,-0.1344
6.3960,-0.7385,-0.6168,-0.1344
6.4140,-0.7598,-0.6007,-0.1259
6.4140,-0.7598,-0.6007,-0.1259
6.4140,-0.7598,-0.6007,-0.1259
6.4340,-0.7742,-0.5865,-0.1168
6.4340,-0.7742,-0.5865,-0.1168
6.4340,-0.7742,-0.5865,-0.1168
6.4350,-0.7742,-0.5865,-0.1168
6.4350,-0.7742,-0.5865,-0.1168
6.4540,-0.7569,-0.5880,-0.1295
6.4540,-0.7569,-0.5880,-0.1295
6.4540,-0.7569,-0.5880,-0.1295
6.4760,-0.7483,-0.5863,-0.1361
6.4760,-0.7483,-0.5863,-0.1361
6.4760,-0.7483,-0.5863,-0.1361
6.4930,-0.7926,-0.5922,-0.1229
6.4930,-0.7926,-0.5922,-0.1229
6.4940,-0.7926,-0.5922,-0.1229
6.5150,-0.7894,-0.5973,-0.1112
6.5160,-0.7894,-0.5973,-0.1112
6.5170,-0.7894,-0.5973,-0.1112
6.5170,-0.7894,-0.5973,-0.1112
6.5180,-0.7894,-0.5973,-0.1112
6.5340,-0.7838,-0.5880,-0.1244
6.5350,-0.7838,-0.5880,-0.1244
6.5350,-0.7838,-0.5880,-0.1244
6.5490,-0.7838,-0.5880,-0.1244
6.5540,-0.7926,-0.5902,-0.1425
6.5540,-0.7926,-0.5902,-0.1425
6.5550,-0.7926,-0.5902,-0.1425
6.5730,-0.7967,-0.6105,-0.1354
6.5730,-0.7967,-0.6105,-0.1354
6.5740,-0.7967,-0.6105,-0.1354
6.5940,-0.7967,-0.6068,-0.1251
6.5940,-0.7967,-0.6068,-0.1251
6.5950,-0.7967,-0.6068,-0.1251
6.5960,-0.7967,-0.6068,-0.1251
6.5960,-0.7967,-0.6068,-0.1251
6.6130,-0.7794,-0.5890,-0.1232
6.6140,-0.7794,-0.5890,-0.1232
6.6150,-0.7794,-0.5890,-0.1232
6.6340,-0.7676,-0.5875,-0.1198
6.6340,-0.7676,-0.5875,-0.1198
6.6350,-0.7676,-0.5875,-0.1198
6.6520,-0.7493,-0.5978,-0.1180
6.6530,-0.7493,-0.5978,-0.1180
6.6530,-0.7493,-0.5978,-0.1180
6.6720,-0.7752,-0.5995,-0.1315
6.6720,-0.7752,-0.5995,-0.1315
6.6730,-0.7752,-0.5995,-0.1315
6.6730,-0.7752,-0.5995,-0.1315
6.6740,-0.7752,-0.5995,-0.1315
6.6920,-0.7781,-0.5948,-0.1339
6.6920,-0.7781,-0.5948,-0.1339
6.6930,-0.7781,-0.5948,-0.1339
6.7140,-0.7835,-0.5917,-0.1479
6.7150,-0.7835,-0.5917,-0.1479
6.7150,-0.7835,-0.5917,-0.1479
6.7320,-0.8050,-0.5907,-0.1415
6.7330,-0.8050,-0.5907,-0.1415
6.7340,-0.8050,-0.5907,-0.1415
6.7490,-0.8050,-0.5907,-0.1415
6.7520,-0.7813,-0.5917,-0.1403
6.7520,-0.7813,-0.5917,-0.1403
6.7530,-0.7813,-0.5917,-0.1403
6.7540,-0.7813,-0.5917,-0.1403
6.7550,-0.7813,-0.5917,-0.1403
6.7730,-0.7400,-0.6010,-0.1288
6.7730,-0.7400,-0.6010,-0.1288
6.7740,-0.7400,-0.6010,-0.1288
6.7930,-0.7341,-0.6005,-0.1158
6.7930,-0.7341,-0.6005,-0.1158
6.8810,-0.7341,-0.6005,-0.1158
6.8820,-0.7324,-0.5953,-0.1180
6.8830,-0.7324,-0.5953,-0.1180
6.8830,-0.7324,-0.5953,-0.1180
6.8840,-0.7334,-0.6178,-0.1017
6.8840,-0.7334,-0.6178,-0.1017
6.8850,-0.7334,-0.6178,-0.1017
6.8850,-0.7334,-0.6178,-0.1017
6.8860,-0.7334,-0.6178,-0.1017
6.8860,-0.7574,-0.6242,-0.0970
6.8860,-0.7574,-0.6242,-0.0970
6.8860,-0.7574,-0.6242,-0.0970
6.8860,-0.7601,-0.5968,-0.1317
6.8860,-0.7601,-0.5968,-0.1317
6.8870,-0.7601,-0.5968,-0.1317
6.8890,-0.7913,-0.5736,-0.1437
6.8890,-0.7913,-0.5736,-0.1437
6.8900,-0.7913,-0.5736,-0.1437
6.9130,-0.8126,-0.5829,-0.1176
6.9130,-0.8126,-0.5829,-0.1176
6.9130,-0.8126,-0.5829,-0.1176
6.9140,-0.8126,-0.5829,-0.1176
6.9140,-0.8126,-0.5829,-0.1176
6.9290,-0.7698,-0.5900,-0.1307
6.9290,-0.7698,-0.5900,-0.1307
6.9290,-0.7698,-0.5900,-0.1307
6.9470,-0.7698,-0.5900,-0.1307
6.9510,-0.7701,-0.5917,-0.1254
6.9520,-0.7701,-0.5917,-0.1254
6.9520,-0.7701,-0.5917,-0.1254
6.9700,-0.8031,-0.5760,-0.1249
6.9700,-0.8031,-0.5760,-0.1249
6.9700,-0.8031,-0.5760,-0.1249
6.9900,-0.7838,-0.5831,-0.1239
6.9900,-0.7838,-0.5831,-0.1239
6.9900,-0.7838,-0.5831,-0.1239
6.9900,-0.7838,-0.5831,-0.1239
6.9900,-0.7838,-0.5831,-0.1239
7.0100,-0.7742,-0.6105,-0.1193
7.0110,-0.7742,-0.6105,-0.1193
7.0110,-0.7742,-0.6105,-0.1193
7.0330,-0.7671,-0.6134,-0.1393
7.0340,-0.7671,-0.6134,-0.1393
7.0340,-0.7671,-0.6134,-0.1393
7.0500,-0.7835,-0.5988,-0.1263
7.0500,-0.7835,-0.5988,-0.1263
7.0500,-0.7835,-0.5988,-0.1263
7.0700,-0.7884,-0.5917,-0.1083
7.0700,-0.7884,-0.5917,-0.1083
7.0710,-0.7884,-0.5917,-0.1083
7.0710,-0.7884,-0.5917,-0.1083
7.0710,-0.7884,-0.5917,-0.1083
7.0910,-0.7879,-0.5885,-0.1163
7.0910,-0.7879,-0.5885,-0.1163
7.0920,-0.7879,-0.5885,-0.1163
7.1100,-0.7828,-0.5900,-0.1425
7.1100,-0.7828,-0.5900,-0.1425
7.1110,-0.7828,-0.5900,-0.1425
7.1290,-0.7586,-0.6034,-0.1447
7.1300,-0.7586,-0.6034,-0.1447
7.1300,-0.7586,-0.6034,-0.1447
7.1460,-0.7586,-0.6034,-0.1447
7.1490,-0.7520,-0.6044,-0.1239
7.1500,-0.7520,-0.6044,-0.1239
7.1500,-0.7520,-0.6044,-0.1239
7.1530,-0.7520,-0.6044,-0.1239
7.1530,-0.7520,-0.6044,-0.1239
7.1700,-0.7691,-0.5780,-0.1207
7.1710,-0.7691,-0.5780,-0.1207
7.1710,-0.7691,-0.5780,-0.1207
7.1900,-0.7877,-0.5628,-0.1307
7.1910,-0.7877,-0.5628,-0.1307
7.1910,-0.7877,-0.5628,-0.1307
7.2090,-0.7750,-0.5790,-0.1344
7.2090,-0.7750,-0.5790,-0.1344
7.2090,-0.7750,-0.5790,-0.1344
7.2290,-0.7649,-0.5961,-0.1017
7.2290,-0.7649,-0.5961,-0.1017
7.2300,-0.7649,-0.5961,-0.1017
7.2300,-0.7649,-0.5961,-0.1017
7.2300,-0.7649,-0.5961,-0.1017
7.2500,-0.7862,-0.5904,-0.1039
7.2500,-0.7862,-0.5904,-0.1039
7.2500,-0.7862,-0.5904,-0.1039
7.2710,-0.7410,-0.5929,-0.1259
7.2720,-0.7410,-0.5929,-0.1259
7.2720,-0.7410,-0.5929,-0.1259
7.2900,-0.7429,-0.6051,-0.1156
7.2900,-0.7429,-0.6051,-0.1156
7.2900,-0.7429,-0.6051,-0.1156
7.3090,-0.7610,-0.5919,-0.1102
7.3090,-0.7610,-0.5919,-0.1102
7.3090,-0.7610,-0.5919,-0.1102
7.3090,-0.7610,-0.5919,-0.1102
7.3100,-0.7610,-0.5919,-0.1102
7.3280,-0.7532,-0.5826,-0.1293
7.3290,-0.7532,-0.5826,-0.1293
7.3290,-0.7532,-0.5826,-0.1293
7.3470,-0.7532,-0.5826,-0.1293
7.3500,-0.7786,-0.5983,-0.1263
7.3890,-0.7786,-0.5983,-0.1263
7.3890,-0.7786,-0.5983,-0.1263
7.3890,-0.7757,-0.6036,-0.1273
7.3890,-0.7757,-0.6036,-0.1273
7.3890,-0.7757,-0.6036,-0.1273
7.3890,-0.7830,-0.5865,-0.1207
7.3900,-0.7830,-0.5865,-0.1207
7.3900,-0.7830,-0.5865,-0.1207
7.3900,-0.7830,-0.5865,-0.1207
7.3900,-0.7830,-0.5865,-0.1207
7.4080,-0.7796,-0.5697,-0.1349
7.4080,-0.7796,-0.5697,-0.1349
7.4080,-0.7796,-0.5697,-0.1349
7.4280,-0.7945,-0.5804,-0.1178
7.4280,-0.7945,-0.5804,-0.1178
7.4290,-0.7945,-0.5804,-0.1178
7.4480,-0.8014,-0.5892,-0.1193
7.4480,-0.8014,-0.5892,-0.1193
7.4480,-0.8014,-0.5892,-0.1193
7.4680,-0.7913,-0.6014,-0.1298
7.4680,-0.7913,-0.6014,-0.1298
7.4680,-0.7913,-0.6014,-0.1298
7.4690,-0.7913,-0.6014,-0.1298
7.4690,-0.7913,-0.6014,-0.1298
7.4880,-0.7772,-0.6051,-0.1310
7.4880,-0.7772,-0.6051,-0.1310
7.4890,-0.7772,-0.6051,-0.1310
7.5100,-0.7667,-0.5997,-0.1359
7.5100,-0.7667,-0.5997,-0.1359
7.5100,-0.7667,-0.5997,-0.1359
7.5290,-0.7686,-0.6061,-0.1305
7.5290,-0.7686,-0.6061,-0.1305
7.5290,-0.7686,-0.6061,-0.1305
7.5470,-0.7686,-0.6061,-0.1305
7.5490,-0.7605,-0.5997,-0.1254
7.5500,-0.7605,-0.5997,-0.1254
7.5500,-0.7605,-0.5997,-0.1254
7.5500,-0.7605,-0.5997,-0.1254
7.5500,-0.7605,-0.5997,-0.1254
7.5700,-0.7725,-0.5992,-0.1251
7.5700,-0.7725,-0.5992,-0.1251
7.5700,-0.7725,-0.5992,-0.1251
7.5890,-0.7874,-0.6068,-0.1244
7.5900,-0.7874,-0.6068,-0.1244
7.5900,-0.7874,-0.6068,-0.1244
7.6080,-0.7952,-0.6093,-0.1178
7.6080,-0.7952,-0.6093,-0.1178
7.6090,-0.7952,-0.6093,-0.1178
7.6270,-0.7649,-0.5970,-0.1293
7.6270,-0.7649,-0.5970,-0.1293
7.6280,-0.7649,-0.5970,-0.1293
7.6300,-0.7649,-0.5970,-0.1293
7.6300,-0.7649,-0.5970,-0.1293
7.6480,-0.7608,-0.5848,-0.1303
7.6490,-0.7608,-0.5848,-0.1303
7.6490,-0.7608,-0.5848,-0.1303
7.6680,-0.7852,-0.5831,-0.1234
7.6690,-0.7852,-0.5831,-0.1234
7.6690,-0.7852,-0.5831,-0.1234
7.6890,-0.7948,-0.5914,-0.1176
7.6890,-0.7948,-0.5914,-0.1176
7.6900,-0.7948,-0.5914,-0.1176
7.7070,-0.7943,-0.5892,-0.1146
7.7070,-0.7943,-0.5892,-0.1146
7.7070,-0.7943,-0.5892,-0.1146
7.7070,-0.7943,-0.5892,-0.1146
7.7070,-0.7943,-0.5892,-0.1146
7.7280,-0.7674,-0.5860,-0.1129
7.7280,-0.7674,-0.5860,-0.1129
7.7280,-0.7674,-0.5860,-0.1129
7.7420,-0.7674,-0.5860,-0.1129
7.7470,-0.7351,-0.5939,-0.1366
7.7470,-0.7351,-0.5939,-0.1366
7.7470,-0.7351,-0.5939,-0.1366
7.7680,-0.7811,-0.5951,-0.1158
7.7680,-0.7811,-0.5951,-0.1158
7.7680,-0.7811,-0.5951,-0.1158
7.7880,-0.7796,-0.5904,-0.0941
7.7880,-0.7796,-0.5904,-0.0941
7.7880,-0.7796,-0.5904,-0.0941
7.7890,-0.7796,-0.5904,-0.0941
7.7890,-0.7796,-0.5904,-0.0941
7.8080,-0.7188,-0.5890,-0.1334
7.8090,-0.7188,-0.5890,-0.1334
7.8090,-0.7188,-0.5890,-0.1334
7.8300,-0.7571,-0.5829,-0.1305
7.8300,-0.7571,-0.5829,-0.1305
7.8300,-0.7571,-0.5829,-0.1305
7.8480,-0.7757,-0.5946,-0.1012
7.8480,-0.7757,-0.5946,-0.1012
7.8480,-0.7757,-0.5946,-0.1012
7.8670,-0.7671,-0.5944,-0.1080
7.8680,-0.7671,-0.5944,-0.1080
7.8680,-0.7671,-0.5944,-0.1080
7.8680,-0.7671,-0.5944,-0.1080
7.8680,-0.7671,-0.5944,-0.1080
7.8880,-0.8001,-0.5863,-0.1110
7.8890,-0.8001,-0.5863,-0.1110
7.8890,-0.8001,-0.5863,-0.1110
7.9090,-0.7877,-0.5853,-0.1371
7.9570,-0.7877,-0.5853,-0.1371
7.9570,-0.7877,-0.5853,-0.1371
7.9570,-0.7825,-0.5902,-0.1425
7.9580,-0.7825,-0.5902,-0.1425
7.9580,-0.7825,-0.5902,-0.1425
7.9580,-0.7825,-0.5902,-0.1425
7.9580,-0.7852,-0.5895,-0.1347
7.9580,-0.7852,-0.5895,-0.1347
7.9580,-0.7852,-0.5895,-0.1347
7.9580,-0.7852,-0.5895,-0.1347
7.9580,-0.7852,-0.5895,-0.1347
7.9630,-0.7864,-0.5826,-0.1215
7.9630,-0.7864,-0.5826,-0.1215
7.9630,-0.7864,-0.5826,-0.1215
7.9840,-0.7772,-0.5780,-0.1266
7.9840,-0.7772,-0.5780,-0.1266
7.9840,-0.7772,-0.5780,-0.1266
8.0090,-0.7605,-0.5856,-0.1195
8.0100,-0.7605,-0.5856,-0.1195
8.0100,-0.7605,-0.5856,-0.1195
8.0250,-0.7583,-0.5887,-0.1107
8.0250,-0.7583,-0.5887,-0.1107
8.0250,-0.7583,-0.5887,-0.1107
8.0250,-0.7583,-0.5887,-0.1107
8.0260,-0.7583,-0.5887,-0.1107
8.0450,-0.7860,-0.5841,-0.1110
8.0450,-0.7860,-0.5841,-0.1110
8.0450,-0.7860,-0.5841,-0.1110
8.0650,-0.8417,-0.5878,-0.1012
8.0650,-0.8417,-0.5878,-0.1012
8.0650,-0.8417,-0.5878,-0.1012
8.0860,-0.8121,-0.5944,-0.1232
8.0860,-0.8121,-0.5944,-0.1232
8.0870,-0.8121,-0.5944,-0.1232
8.1050,-0.7598,-0.5887,-0.1452
8.1060,-0.7598,-0.5887,-0.1452
8.1060,-0.7598,-0.5887,-0.1452
8.1070,-0.7598,-0.5887,-0.1452
8.1070,-0.7598,-0.5887,-0.1452
8.1250,-0.7544,-0.5880,-0.1366
8.1250,-0.7544,-0.5880,-0.1366
8.1270,-0.7544,-0.5880,-0.1366
8.1380,-0.7544,-0.5880,-0.1366
8.1460,-0.7640,-0.5917,-0.1246
8.1460,-0.7640,-0.5917,-0.1246
8.1470,-0.7640,-0.5917,-0.1246
8.1580,-0.7640,-0.5917,-0.1246
8.1650,-0.7794,-0.5934,-0.1234
8.1650,-0.7794,-0.5934,-0.1234
8.1680,-0.7794,-0.5934,-0.1234
8.1850,-0.7921,-0.5980,-0.1273
8.1860,-0.7921,-0.5980,-0.1273
8.1890,-0.7921,-0.5980,-0.1273
8.1900,-0.7921,-0.5980,-0.1273
8.1910,-0.7921,-0.5980,-0.1273
8.2050,-0.7696,-0.5944,-0.1224
8.2060,-0.7696,-0.5944,-0.1224
8.2060,-0.7696,-0.5944,-0.1224
8.2270,-0.7593,-0.5851,-0.1088
8.2280,-0.7593,-0.5851,-0.1088
8.2290,-0.7593,-0.5851,-0.1088
8.2450,-0.7676,-0.5851,-0.0858
8.2460,-0.7676,-0.5851,-0.0858
8.2470,-0.7676,-0.5851,-0.0858
8.2650,-0.7593,-0.5716,-0.1024
8.2660,-0.7593,-0.5716,-0.1024
8.2660,-0.7593,-0.5716,-0.1024
8.2670,-0.7593,-0.5716,-0.1024
8.2910,-0.7962,-0.5721,-0.1122
8.2920,-0.7962,-0.5721,-0.1122
8.2920,-0.7962,-0.5721,-0.1122
8.3070,-0.7984,-0.5914,-0.1095
8.3080,-0.7984,-0.5914,-0.1095
8.3090,-0.7984,-0.5914,-0.1095
8.3260,-0.7842,-0.5919,-0.1207
8.3270,-0.7842,-0.5919,-0.1207
8.3280,-0.7842,-0.5919,-0.1207
8.3370,-0.7842,-0.5919,-0.1207
8.3440,-0.7974,-0.5797,-0.1200
8.3440,-0.7974,-0.5797,-0.1200
8.3500,-0.7974,-0.5797,-0.1200
8.3510,-0.7974,-0.5797,-0.1200
8.3520,-0.7974,-0.5797,-0.1200
8.3540,-0.7974,-0.5797,-0.1200
8.3630,-0.8043,-0.5777,-0.1190
8.3630,-0.8043,-0.5777,-0.1190
8.3640,-0.8043,-0.5777,-0.1190
8.3800,-0.7926,-0.5870,-0.1210
8.3800,-0.7926,-0.5870,-0.1210
8.3810,-0.7926,-0.5870,-0.1210
8.4000,-0.7757,-0.5875,-0.1122
8.4010,-0.7757,-0.5875,-0.1122
8.4010,-0.7757,-0.5875,-0.1122
8.4190,-0.7713,-0.5831,-0.0980
8.4190,-0.7713,-0.5831,-0.0980
8.4190,-0.7713,-0.5831,-0.0980
8.4230,-0.7713,-0.5831,-0.0980
8.4240,-0.7713,-0.5831,-0.0980
8.4350,-0.7713,-0.5831,-0.0980
8.4490,-0.7994,-0.5834,-0.1151
8.4990,-0.7994,-0.5834,-0.1151
8.5000,-0.7994,-0.5834,-0.1151
8.5000,-0.7723,-0.5848,-0.1207
8.5000,-0.7723,-0.5848,-0.1207
8.5000,-0.7723,-0.5848,-0.1207
8.5000,-0.7549,-0.5824,-0.1210
8.5000,-0.7549,-0.5824,-0.1210
8.5000,-0.7549,-0.5824,-0.1210
8.5010,-0.7779,-0.5831,-0.1312
8.5010,-0.7779,-0.5831,-0.1312
8.5030,-0.7779,-0.5831,-0.1312
8.5030,-0.7779,-0.5831,-0.1312
8.5190,-0.7869,-0.5870,-0.1185
8.5190,-0.7869,-0.5870,-0.1185
8.5190,-0.7869,-0.5870,-0.1185
8.5330,-0.7869,-0.5870,-0.1185
8.5380,-0.7737,-0.5819,-0.1058
8.5380,-0.7737,-0.5819,-0.1058
8.5380,-0.7737,-0.5819,-0.1058
8.5590,-0.7615,-0.5753,-0.1307
8.5590,-0.7615,-0.5753,-0.1307
8.5590,-0.7615,-0.5753,-0.1307
8.5790,-0.7987,-0.5814,-0.1190
8.5790,-0.7987,-0.5814,-0.1190
8.5790,-0.7987,-0.5814,-0.1190
8.5830,-0.7987,-0.5814,-0.1190
8.5830,-0.7987,-0.5814,-0.1190
8.5990,-0.7762,-0.5821,-0.1105
8.5990,-0.7762,-0.5821,-0.1105
8.6000,-0.7762,-0.5821,-0.1105
8.6180,-0.7425,-0.5958,-0.1092
8.6180,-0.7425,-0.5958,-0.1092
8.6190,-0.7425,-0.5958,-0.1092
8.6390,-0.7796,-0.6036,-0.1014
8.6390,-0.7796,-0.6036,-0.1014
8.6400,-0.7796,-0.6036,-0.1014
8.6590,-0.7779,-0.5772,-0.1090
8.6590,-0.7779,-0.5772,-0.1090
8.6600,-0.7779,-0.5772,-0.1090
8.6620,-0.7779,-0.5772,-0.1090
8.6620,-0.7779,-0.5772,-0.1090
8.6790,-0.7860,-0.5665,-0.1158
8.6800,-0.7860,-0.5665,-0.1158
8.6800,-0.7860,-0.5665,-0.1158
8.6990,-0.7864,-0.5848,-0.1176
8.7000,-0.7864,-0.5848,-0.1176
8.7000,-0.7864,-0.5848,-0.1176
8.7190,-0.7630,-0.5936,-0.1266
8.7190,-0.7630,-0.5936,-0.1266
8.7190,-0.7630,-0.5936,-0.1266
8.7320,-0.7630,-0.5936,-0.1266
8.7450,-0.7955,-0.5870,-0.1144
8.7450,-0.7955,-0.5870,-0.1144
8.7450,-0.7955,-0.5870,-0.1144
8.7450,-0.7955,-0.5870,-0.1144
8.7460,-0.7955,-0.5870,-0.1144
8.7600,-0.8285,-0.5758,-0.1127
8.7600,-0.8285,-0.5758,-0.1127
8.7610,-0.8285,-0.5758,-0.1127
8.7800,-0.7962,-0.5809,-0.1207
8.7800,-0.7962,-0.5809,-0.1207
8.7800,-0.7962,-0.5809,-0.1207
8.7990,-0.7794,-0.5909,-0.1295
8.8000,-0.7794,-0.5909,-0.1295
8.8000,-0.7794,-0.5909,-0.1295
8.8210,-0.7813,-0.5909,-0.1193
8.8220,-0.7813,-0.5909,-0.1193
8.8220,-0.7813,-0.5909,-0.1193
8.8220,-0.7813,-0.5909,-0.1193
8.8220,-0.7813,-0.5909,-0.1193
8.8390,-0.7798,-0.5826,-0.0975
8.8390,-0.7798,-0.5826,-0.0975
8.8390,-0.7798,-0.5826,-0.0975
8.8590,-0.7816,-0.5812,-0.1158
8.8590,-0.7816,-0.5812,-0.1158
8.8590,-0.7816,-0.5812,-0.1158
8.8800,-0.7948,-0.5919,-0.1254
8.8800,-0.7948,-0.5919,-0.1254
8.8800,-0.7948,-0.5919,-0.1254
8.8990,-0.7823,-0.5936,-0.1256
8.8990,-0.7823,-0.5936,-0.1256
8.8990,-0.7823,-0.5936,-0.1256
8.9000,-0.7823,-0.5936,-0.1256
8.9000,-0.7823,-0.5936,-0.1256
8.9190,-0.7921,-0.5826,-0.1200
8.9190,-0.7921,-0.5826,-0.1200
8.9190,-0.7921,-0.5826,-0.1200
8.9300,-0.7921,-0.5826,-0.1200
8.9390,-0.7933,-0.5792,-0.1263
8.9390,-0.7933,-0.5792,-0.1263
8.9390,-0.7933,-0.5792,-0.1263
8.9590,-0.7691,-0.5821,-0.1366
8.9590,-0.7691,-0.5821,-0.1366
8.9590,-0.7691,-0.5821,-0.1366
8.9770,-0.7732,-0.5863,-0.1281
8.9770,-0.7732,-0.5863,-0.1281
8.9780,-0.7732,-0.5863,-0.1281
8.9800,-0.7732,-0.5863,-0.1281
8.9810,-0.7732,-0.5863,-0.1281
8.9980,-0.7791,-0.5797,-0.1092
9.0350,-0.7791,-0.5797,-0.1092
9.0350,-0.7791,-0.5797,-0.1092
9.0360,-0.7730,-0.5792,-0.1036
9.0360,-0.7730,-0.5792,-0.1036
9.0360,-0.7730,-0.5792,-0.1036
9.0380,-0.7346,-0.5836,-0.1188
9.0380,-0.7346,-0.5836,-0.1188
9.0380,-0.7346,-0.5836,-0.1188
9.0580,-0.7491,-0.5975,-0.1180
9.0580,-0.7491,-0.5975,-0.1180
9.0580,-0.7491,-0.5975,-0.1180
9.0600,-0.7491,-0.5975,-0.1180
9.0600,-0.7491,-0.5975,-0.1180
9.0780,-0.8072,-0.5961,-0.0882
9.0780,-0.8072,-0.5961,-0.0882
9.0780,-0.8072,-0.5961,-0.0882
9.0970,-0.7860,-0.5860,-0.1136
9.0970,-0.7860,-0.5860,-0.1136
9.0980,-0.7860,-0.5860,-0.1136
9.1180,-0.7623,-0.5870,-0.1378
9.1180,-0.7623,-0.5870,-0.1378
9.1180,-0.7623,-0.5870,-0.1378
9.1300,-0.7623,-0.5870,-0.1378
9.1370,-0.7464,-0.5963,-0.1334
9.1370,-0.7464,-0.5963,-0.1334
9.1370,-0.7464,-0.5963,-0.1334
9.1400,-0.7464,-0.5963,-0.1334
9.1410,-0.7464,-0.5963,-0.1334
9.1580,-0.7798,-0.5988,-0.0936
9.1580,-0.7798,-0.5988,-0.0936
9.1580,-0.7798,-0.5988,-0.0936
9.1760,-0.7864,-0.5802,-0.1053
9.1770,-0.7864,-0.5802,-0.1053
9.1770,-0.7864,-0.5802,-0.1053
9.1970,-0.7732,-0.5794,-0.1295
9.1980,-0.7732,-0.5794,-0.1295
9.1980,-0.7732,-0.5794,-0.1295
9.2160,-0.7689,-0.5907,-0.1276
9.2160,-0.7689,-0.5907,-0.1276
9.2160,-0.7689,-0.5907,-0.1276
9.2200,-0.7689,-0.5907,-0.1276
9.2200,-0.7689,-0.5907,-0.1276
9.2370,-0.7872,-0.5948,-0.1058
9.2370,-0.7872,-0.5948,-0.1058
9.2370,-0.7872,-0.5948,-0.1058
9.2600,-0.8255,-0.5829,-0.0924
9.2600,-0.8255,-0.5829,-0.0924
9.2600,-0.8255,-0.5829,-0.0924
9.2760,-0.8282,-0.5714,-0.1200
9.2770,-0.8282,-0.5714,-0.1200
9.2770,-0.8282,-0.5714,-0.1200
9.2970,-0.7860,-0.5824,-0.1342
9.2970,-0.7860,-0.5824,-0.1342
9.2980,-0.7860,-0.5824,-0.1342
9.3000,-0.7860,-0.5824,-0.1342
9.3000,-0.7860,-0.5824,-0.1342
9.3160,-0.7928,-0.5914,-0.1180
9.3160,-0.7928,-0.5914,-0.1180
9.3160,-0.7928,-0.5914,-0.1180
9.3270,-0.7928,-0.5914,-0.1180
9.3360,-0.7703,-0.5975,-0.1166
9.3360,-0.7703,-0.5975,-0.1166
9.3360,-0.7703,-0.5975,-0.1166
9.3560,-0.7483,-0.5995,-0.1244
9.3560,-0.7483,-0.5995,-0.1244
9.3560,-0.7483,-0.5995,-0.1244
9.3770,-0.7784,-0.5926,-0.1427
9.3770,-0.7784,-0.5926,-0.1427
9.3780,-0.7784,-0.5926,-0.1427
9.3800,-0.7784,-0.5926,-0.1427
9.3800,-0.7784,-0.5926,-0.1427
9.3990,-0.7891,-0.6039,-0.1107
9.4000,-0.7891,-0.6039,-0.1107
9.4000,-0.7891,-0.6039,-0.1107
9.4190,-0.7794,-0.5917,-0.1083
9.4190,-0.7794,-0.5917,-0.1083
9.4190,-0.7794,-0.5917,-0.1083
9.4380,-0.7510,-0.5750,-0.1212
9.4380,-0.7510,-0.5750,-0.1212
9.4390,-0.7510,-0.5750,-0.1212
9.4550,-0.7574,-0.5895,-0.1075
9.4550,-0.7574,-0.5895,-0.1075
9.4560,-0.7574,-0.5895,-0.1075
9.4580,-0.7574,-0.5895,-0.1075
9.4590,-0.7574,-0.5895,-0.1075
9.4760,-0.7742,-0.5892,-0.1048
9.4760,-0.7742,-0.5892,-0.1048
9.4760,-0.7742,-0.5892,-0.1048
9.4950,-0.7813,-0.5814,-0.1241
9.4960,-0.7813,-0.5814,-0.1241
9.4960,-0.7813,-0.5814,-0.1241
9.5160,-0.7845,-0.5897,-0.1322
9.5160,-0.7845,-0.5897,-0.1322
9.5160,-0.7845,-0.5897,-0.1322
9.5290,-0.7845,-0.5897,-0.1322
9.5350,-0.7747,-0.6032,-0.1241
9.5350,-0.7747,-0.6032,-0.1241
9.5350,-0.7747,-0.6032,-0.1241
9.5390,-0.7747,-0.6032,-0.1241
9.5390,-0.7747,-0.6032,-0.1241
9.5770,-0.7852,-0.6058,-0.1024
9.5770,-0.7852,-0.6058,-0.1024
9.5770,-0.7852,-0.6058,-0.1024
9.5780,-0.7757,-0.5838,-0.1034
9.5780,-0.7757,-0.5838,-0.1034
9.5780,-0.7757,-0.5838,-0.1034
9.5970,-0.7679,-0.5665,-0.1271
9.5970,-0.7679,-0.5665,-0.1271
9.5970,-0.7679,-0.5665,-0.1271
9.6160,-0.7921,-0.5728,-0.1212
9.6160,-0.7921,-0.5728,-0.1212
9.6160,-0.7921,-0.5728,-0.1212
9.6200,-0.7921,-0.5728,-0.1212
9.6200,-0.7921,-0.5728,-0.1212
9.6350,-0.7845,-0.5970,-0.1110
9.6350,-0.7845,-0.5970,-0.1110
9.6350,-0.7845,-0.5970,-0.1110
9.6540,-0.7610,-0.6058,-0.1246
9.6540,-0.7610,-0.6058,-0.1246
9.6550,-0.7610,-0.6058,-0.1246
9.6750,-0.7835,-0.5995,-0.1210
9.6750,-0.7835,-0.5995,-0.1210
9.6750,-0.7835,-0.5995,-0.1210
9.6960,-0.7906,-0.5875,-0.1132
9.6960,-0.7906,-0.5875,-0.1132
9.6960,-0.7906,-0.5875,-0.1132
9.6970,-0.7906,-0.5875,-0.1132
9.6970,-0.7906,-0.5875,-0.1132
9.7140,-0.7781,-0.5887,-0.0990
9.7150,-0.7781,-0.5887,-0.0990
9.7150,-0.7781,-0.5887,-0.0990
9.7270,-0.7781,-0.5887,-0.0990
9.7340,-0.7630,-0.6029,-0.1009
9.7340,-0.7630,-0.6029,-0.1009
9.7350,-0.7630,-0.6029,-0.1009
9.7550,-0.7659,-0.6022,-0.1053
9.7550,-0.7659,-0.6022,-0.1053
9.7550,-0.7659,-0.6022,-0.1053
9.7740,-0.7896,-0.5897,-0.1154
9.7740,-0.7896,-0.5897,-0.1154
9.7740,-0.7896,-0.5897,-0.1154
9.7770,-0.7896,-0.5897,-0.1154
9.7780,-0.7896,-0.5897,-0.1154
9.7930,-0.8163,-0.5912,-0.1039
9.7940,-0.8163,-0.5912,-0.1039
9.7940,-0.8163,-0.5912,-0.1039
9.8130,-0.7962,-0.5895,-0.0912
9.8130,-0.7962,-0.5895,-0.0912
9.8140,-0.7962,-0.5895,-0.0912
9.8330,-0.7593,-0.5848,-0.1026
9.8340,-0.7593,-0.5848,-0.1026
9.8340,-0.7593,-0.5848,-0.1026
9.8540,-0.7605,-0.5912,-0.1107
9.8540,-0.7605,-0.5912,-0.1107
9.8540,-0.7605,-0.5912,-0.1107
9.8570,-0.7605,-0.5912,-0.1107
9.8570,-0.7605,-0.5912,-0.1107
9.8730,-0.7623,-0.6029,-0.1271
9.8730,-0.7623,-0.6029,-0.1271
9.8730,-0.7623,-0.6029,-0.1271
9.8930,-0.7657,-0.6232,-0.1327
9.8930,-0.7657,-0.6232,-0.1327
9.8930,-0.7657,-0.6232,-0.1327
9.9140,-0.7808,-0.6156,-0.1339
9.9140,-0.7808,-0.6156,-0.1339
9.9140,-0.7808,-0.6156,-0.1339
9.9260,-0.7808,-0.6156,-0.1339
9.9340,-0.7813,-0.5912,-0.1351
9.9340,-0.7813,-0.5912,-0.1351
9.9350,-0.7813,-0.5912,-0.1351
9.9380,-0.7813,-0.5912,-0.1351
9.9380,-0.7813,-0.5912,-0.1351
9.9530,-0.7620,-0.5853,-0.1207
9.9530,-0.7620,-0.5853,-0.1207
9.9540,-0.7620,-0.5853,-0.1207
9.9730,-0.7681,-0.5738,-0.1202
9.9730,-0.7681,-0.5738,-0.1202
9.9730,-0.7681,-0.5738,-0.1202
9.9920,-0.7943,-0.5711,-0.1041
9.9920,-0.7943,-0.5711,-0.1041
9.9920,-0.7943,-0.5711,-0.1041
10.0120,-0.7495,-0.5875,-0.1110
10.0120,-0.7495,-0.5875,-0.1110
10.0120,-0.7495,-0.5875,-0.1110
10.0160,-0.7495,-0.5875,-0.1110
10.0170,-0.7495,-0.5875,-0.1110
10.0320,-0.7581,-0.5953,-0.1149
10.0320,-0.7581,-0.5953,-0.1149
10.0320,-0.7581,-0.5953,-0.1149
10.0520,-0.8014,-0.5956,-0.1168
10.0520,-0.8014,-0.5956,-0.1168
10.0520,-0.8014,-0.5956,-0.1168
10.0730,-0.8084,-0.5878,-0.1056
10.0730,-0.8084,-0.5878,-0.1056
10.0730,-0.8084,-0.5878,-0.1056
10.0920,-0.8177,-0.5770,-0.0946
10.0920,-0.8177,-0.5770,-0.0946
10.0920,-0.8177,-0.5770,-0.0946
10.0960,-0.8177,-0.5770,-0.0946
10.0960,-0.8177,-0.5770,-0.0946
10.1420,-0.7825,-0.5819,-0.1188
10.1420,-0.7825,-0.5819,-0.1188
10.1430,-0.7825,-0.5819,-0.1188
10.1430,-0.7825,-0.5819,-0.1188
10.1430,-0.7664,-0.5968,-0.1249
10.1430,-0.7664,-0.5968,-0.1249
10.1430,-0.7664,-0.5968,-0.1249
10.1510,-0.7422,-0.6022,-0.1195
10.1510,-0.7422,-0.6022,-0.1195
10.1510,-0.7422,-0.6022,-0.1195
10.1700,-0.7561,-0.5958,-0.1180
10.1700,-0.7561,-0.5958,-0.1180
10.1710,-0.7561,-0.5958,-0.1180
10.1730,-0.7561,-0.5958,-0.1180
10.1730,-0.7561,-0.5958,-0.1180
10.1900,-0.7713,-0.5912,-0.1019
10.1900,-0.7713,-0.5912,-0.1019
10.1900,-0.7713,-0.5912,-0.1019
10.2100,-0.7500,-0.5868,-0.1097
10.2100,-0.7500,-0.5868,-0.1097
10.2100,-0.7500,-0.5868,-0.1097
10.2300,-0.7725,-0.5799,-0.1063
10.2300,-0.7725,-0.5799,-0.1063
10.2300,-0.7725,-0.5799,-0.1063
10.2500,-0.7886,-0.5775,-0.1044
10.2500,-0.7886,-0.5775,-0.1044
10.2500,-0.7886,-0.5775,-0.1044
10.2530,-0.7886,-0.5775,-0.1044
10.2530,-0.7886,-0.5775,-0.1044
10.2720,-0.7679,-0.5878,-0.1193
10.2720,-0.7679,-0.5878,-0.1193
10.2720,-0.7679,-0.5878,-0.1193
10.2900,-0.7647,-0.5934,-0.1202
10.2900,-0.7647,-0.5934,-0.1202
10.2910,-0.7647,-0.5934,-0.1202
10.3100,-0.8026,-0.5758,-0.0956
10.3110,-0.8026,-0.5758,-0.0956
10.3110,-0.8026,-0.5758,-0.0956
10.3220,-0.8026,-0.5758,-0.0956
10.3300,-0.7952,-0.5614,-0.1009
10.3310,-0.7952,-0.5614,-0.1009
10.3310,-0.7952,-0.5614,-0.1009
10.3330,-0.7952,-0.5614,-0.1009
10.3340,-0.7952,-0.5614,-0.1009
10.3500,-0.7916,-0.5873,-0.1347
10.3510,-0.7916,-0.5873,-0.1347
10.3510,-0.7916,-0.5873,-0.1347
10.3690,-0.8072,-0.6124,-0.1163
10.3700,-0.8072,-0.6124,-0.1163
10.3700,-0.8072,-0.6124,-0.1163
10.3900,-0.7889,-0.6044,-0.1097
10.3900,-0.7889,-0.6044,-0.1097
10.3900,-0.7889,-0.6044,-0.1097
10.4100,-0.7662,-0.5843,-0.1232
10.4100,-0.7662,-0.5843,-0.1232
10.4100,-0.7662,-0.5843,-0.1232
10.4130,-0.7662,-0.5843,-0.1232
10.4130,-0.7662,-0.5843,-0.1232
10.4310,-0.7549,-0.5812,-0.1305
10.4310,-0.7549,-0.5812,-0.1305
10.4310,-0.7549,-0.5812,-0.1305
10.4500,-0.7664,-0.5851,-0.1088
10.4500,-0.7664,-0.5851,-0.1088
10.4500,-0.7664,-0.5851,-0.1088
10.4700,-0.7627,-0.5880,-0.1041
10.4710,-0.7627,-0.5880,-0.1041
10.4710,-0.7627,-0.5880,-0.1041
10.4890,-0.7671,-0.5929,-0.1092
10.4890,-0.7671,-0.5929,-0.1092
10.4890,-0.7671,-0.5929,-0.1092
10.4930,-0.7671,-0.5929,-0.1092
10.4940,-0.7671,-0.5929,-0.1092
10.5090,-0.7828,-0.5885,-0.1246
10.5090,-0.7828,-0.5885,-0.1246
10.5090,-0.7828,-0.5885,-0.1246
10.5200,-0.7828,-0.5885,-0.1246
10.5290,-0.8016,-0.5902,-0.1139
10.5300,-0.8016,-0.5902,-0.1139
10.5300,-0.8016,-0.5902,-0.1139
10.5490,-0.7999,-0.5926,-0.1090
10.5490,-0.7999,-0.5926,-0.1090
10.5490,-0.7999,-0.5926,-0.1090
10.5700,-0.8055,-0.5858,-0.1205
10.5700,-0.8055,-0.5858,-0.1205
10.5700,-0.8055,-0.5858,-0.1205
10.5710,-0.8055,-0.5858,-0.1205
10.5710,-0.8055,-0.5858,-0.1205
10.5900,-0.7840,-0.5853,-0.1332
10.5900,-0.7840,-0.5853,-0.1332
10.5900,-0.7840,-0.5853,-0.1332
10.6090,-0.7701,-0.5897,-0.1241
10.6090,-0.7701,-0.5897,-0.1241
10.6100,-0.7701,-0.5897,-0.1241
10.6300,-0.7945,-0.5892,-0.0960
10.6300,-0.7945,-0.5892,-0.0960
10.6300,-0.7945,-0.5892,-0.0960
10.6490,-0.7879,-0.5892,-0.0924
10.6490,-0.7879,-0.5892,-0.0924
10.6490,-0.7879,-0.5892,-0.0924
10.6520,-0.7879,-0.5892,-0.0924
10.7090,-0.7879,-0.5892,-0.0924
10.7090,-0.7720,-0.5961,-0.1090
10.7090,-0.7720,-0.5961,-0.1090
10.7090,-0.7720,-0.5961,-0.1090
10.7090,-0.7806,-0.5958,-0.1083
10.7100,-0.7806,-0.5958,-0.1083
10.7100,-0.7806,-0.5958,-0.1083
10.7100,-0.8114,-0.5868,-0.0762
10.7100,-0.8114,-0.5868,-0.0762
10.7100,-0.8114,-0.5868,-0.0762
10.7170,-0.8114,-0.5868,-0.0762
10.7260,-0.7689,-0.5878,-0.0863
10.7260,-0.7689,-0.5878,-0.0863
10.7260,-0.7689,-0.5878,-0.0863
10.7300,-0.7689,-0.5878,-0.0863
10.7300,-0.7689,-0.5878,-0.0863
10.7470,-0.7657,-0.5992,-0.1078
10.7480,-0.7657,-0.5992,-0.1078
10.7480,-0.7657,-0.5992,-0.1078
10.7670,-0.7513,-0.5929,-0.1395
10.7680,-0.7513,-0.5929,-0.1395
10.7680,-0.7513,-0.5929,-0.1395
10.7870,-0.7569,-0.5900,-0.1198
10.7870,-0.7569,-0.5900,-0.1198
10.7870,-0.7569,-0.5900,-0.1198
10.8070,-0.7483,-0.5875,-0.1080
10.8070,-0.7483,-0.5875,-0.1080
10.8070,-0.7483,-0.5875,-0.1080
10.8090,-0.7483,-0.5875,-0.1080
10.8100,-0.7483,-0.5875,-0.1080
10.8260,-0.7361,-0.5814,-0.1070
10.8270,-0.7361,-0.5814,-0.1070
10.8270,-0.7361,-0.5814,-0.1070
10.8460,-0.7544,-0.5799,-0.1068
10.8460,-0.7544,-0.5799,-0.1068
10.8460,-0.7544,-0.5799,-0.1068
10.8670,-0.8155,-0.5868,-0.0762
10.8670,-0.8155,-0.5868,-0.0762
10.8670,-0.8155,-0.5868,-0.0762
10.8870,-0.8106,-0.5870,-0.0814
10.8870,-0.8106,-0.5870,-0.0814
10.8870,-0.8106,-0.5870,-0.0814
10.8900,-0.8106,-0.5870,-0.0814
10.8910,-0.8106,-0.5870,-0.0814
10.9060,-0.7679,-0.5995,-0.1102
10.9060,-0.7679,-0.5995,-0.1102
10.9070,-0.7679,-0.5995,-0.1102
10.9170,-0.7679,-0.5995,-0.1102
10.9260,-0.7608,-0.6115,-0.1114
10.9280,-0.7608,-0.6115,-0.1114
10.9280,-0.7608,-0.6115,-0.1114
10.9460,-0.7989,-0.5875,-0.1012
10.9470,-0.7989,-0.5875,-0.1012
10.9470,-0.7989,-0.5875,-0.1012
10.9700,-0.7879,-0.5765,-0.1036
10.9720,-0.7879,-0.5765,-0.1036
10.9730,-0.7879,-0.5765,-0.1036
10.9730,-0.7879,-0.5765,-0.1036
10.9740,-0.7879,-0.5765,-0.1036
10.9860,-0.7488,-0.5956,-0.1278
10.9860,-0.7488,-0.5956,-0.1278
10.9870,-0.7488,-0.5956,-0.1278
11.0080,-0.7571,-0.6056,-0.1278
11.0080,-0.7571,-0.6056,-0.1278
11.0090,-0.7571,-0.6056,-0.1278
11.0290,-0.7803,-0.5992,-0.1046
11.0310,-0.7803,-0.5992,-0.1046
11.0310,-0.7803,-0.5992,-0.1046
11.0460,-0.8150,-0.5802,-0.0890
11.0460,-0.8150,-0.5802,-0.0890
11.0470,-0.8150,-0.5802,-0.0890
11.0470,-0.8150,-0.5802,-0.0890
11.0470,-0.8150,-0.5802,-0.0890
11.0660,-0.8058,-0.5853,-0.1017
11.0670,-0.8058,-0.5853,-0.1017
11.0680,-0.8058,-0.5853,-0.1017
11.0880,-0.7955,-0.6029,-0.1097
11.0890,-0.7955,-0.6029,-0.1097
11.0900,-0.7955,-0.6029,-0.1097
11.1070,-0.7938,-0.5968,-0.1129
11.1070,-0.7938,-0.5968,-0.1129
11.1080,-0.7938,-0.5968,-0.1129
11.1150,-0.7938,-0.5968,-0.1129
11.1280,-0.7926,-0.5738,-0.1105
11.1290,-0.7926,-0.5738,-0.1105
11.1300,-0.7926,-0.5738,-0.1105
11.1300,-0.7926,-0.5738,-0.1105
11.1310,-0.7926,-0.5738,-0.1105
11.1460,-0.7918,-0.5777,-0.1097
11.1470,-0.7918,-0.5777,-0.1097
11.1470,-0.7918,-0.5777,-0.1097
11.1670,-0.7933,-0.5931,-0.1080
11.1690,-0.7933,-0.5931,-0.1080
11.1700,-0.7933,-0.5931,-0.1080
11.1850,-0.7779,-0.5944,-0.1044
11.1860,-0.7779,-0.5944,-0.1044
11.1870,-0.7779,-0.5944,-0.1044
11.2070,-0.7796,-0.5914,-0.1078
11.2100,-0.7796,-0.5914,-0.1078
11.2100,-0.7796,-0.5914,-0.1078
11.2840,-0.7796,-0.5914,-0.1078
11.2880,-0.7796,-0.5914,-0.1078
11.2880,-0.7728,-0.5907,-0.1156
11.2880,-0.7728,-0.5907,-0.1156
11.2880,-0.7728,-0.5907,-0.1156
11.2890,-0.7928,-0.5880,-0.0953
11.2890,-0.7928,-0.5880,-0.0953
11.2890,-0.7928,-0.5880,-0.0953
11.2890,-0.8014,-0.5782,-0.0865
11.2890,-0.8014,-0.5782,-0.0865
11.2890,-0.8014,-0.5782,-0.0865
11.2900,-0.7593,-0.5733,-0.1092
11.2900,-0.7593,-0.5733,-0.1092
11.2900,-0.7593,-0.5733,-0.1092
11.2900,-0.7593,-0.5733,-0.1092
11.2900,-0.7593,-0.5733,-0.1092
11.3010,-0.7493,-0.5697,-0.1190
11.3020,-0.7493,-0.5697,-0.1190
11.3020,-0.7493,-0.5697,-0.1190
11.3100,-0.7493,-0.5697,-0.1190
11.3240,-0.7828,-0.5689,-0.1061
11.3240,-0.7828,-0.5689,-0.1061
11.3240,-0.7828,-0.5689,-0.1061
11.3450,-0.7791,-0.5829,-0.0855
11.3450,-0.7791,-0.5829,-0.0855
11.3460,-0.7791,-0.5829,-0.0855
11.3630,-0.7530,-0.5919,-0.1227
11.3660,-0.7530,-0.5919,-0.1227
11.3670,-0.7530,-0.5919,-0.1227
11.3680,-0.7530,-0.5919,-0.1227
11.3690,-0.7530,-0.5919,-0.1227
11.3850,-0.7388,-0.6056,-0.1139
11.3850,-0.7388,-0.6056,-0.1139
11.3860,-0.7388,-0.6056,-0.1139
11.4060,-0.7965,-0.6073,-0.0797
11.4060,-0.7965,-0.6073,-0.0797
11.4070,-0.7965,-0.6073,-0.0797
11.4270,-0.7798,-0.5934,-0.0897
11.4270,-0.7798,-0.5934,-0.0897
11.4280,-0.7798,-0.5934,-0.0897
11.4450,-0.7657,-0.5804,-0.1193
11.4460,-0.7657,-0.5804,-0.1193
11.4460,-0.7657,-0.5804,-0.1193
11.4470,-0.7657,-0.5804,-0.1193
11.4470,-0.7657,-0.5804,-0.1193
11.4670,-0.7957,-0.5748,-0.1078
11.4680,-0.7957,-0.5748,-0.1078
11.4680,-0.7957,-0.5748,-0.1078
11.4850,-0.7796,-0.5707,-0.0992
11.4860,-0.7796,-0.5707,-0.0992
11.4860,-0.7796,-0.5707,-0.0992
11.5050,-0.7732,-0.5780,-0.1022
11.5060,-0.7732,-0.5780,-0.1022
11.5060,-0.7732,-0.5780,-0.1022
11.5110,-0.7732,-0.5780,-0.1022
11.5270,-0.8070,-0.5853,-0.0982
11.5290,-0.8070,-0.5853,-0.0982
11.5290,-0.8070,-0.5853,-0.0982
11.5300,-0.8070,-0.5853,-0.0982
11.5300,-0.8070,-0.5853,-0.0982
11.5460,-0.8114,-0.5858,-0.0973
11.5460,-0.8114,-0.5858,-0.0973
11.5470,-0.8114,-0.5858,-0.0973
11.5650,-0.7943,-0.5843,-0.1212
11.5660,-0.7943,-0.5843,-0.1212
11.5660,-0.7943,-0.5843,-0.1212
11.5850,-0.7798,-0.5885,-0.1222
11.5860,-0.7798,-0.5885,-0.1222
11.5860,-0.7798,-0.5885,-0.1222
11.6050,-0.7693,-0.5917,-0.1195
11.6060,-0.7693,-0.5917,-0.1195
11.6060,-0.7693,-0.5917,-0.1195
11.6070,-0.7693,-0.5917,-0.1195
11.6070,-0.7693,-0.5917,-0.1195
11.6240,-0.7781,-0.5895,-0.1085
11.6260,-0.7781,-0.5895,-0.1085
11.6260,-0.7781,-0.5895,-0.1085
11.6460,-0.7940,-0.5829,-0.0899
11.6470,-0.7940,-0.5829,-0.0899
11.6470,-0.7940,-0.5829,-0.0899
11.6660,-0.7945,-0.5841,-0.0880
11.6670,-0.7945,-0.5841,-0.0880
11.6680,-0.7945,-0.5841,-0.0880
11.6860,-0.7860,-0.5936,-0.0987
11.6860,-0.7860,-0.5936,-0.0987
11.6870,-0.7860,-0.5936,-0.0987
11.6870,-0.7860,-0.5936,-0.0987
11.6880,-0.7860,-0.5936,-0.0987
11.7060,-0.7569,-0.5931,-0.1144
11.7070,-0.7569,-0.5931,-0.1144
11.7070,-0.7569,-0.5931,-0.1144
11.7080,-0.7569,-0.5931,-0.1144
11.7260,-0.7698,-0.5838,-0.1188
11.7300,-0.7698,-0.5838,-0.1188
11.7310,-0.7698,-0.5838,-0.1188
11.7460,-0.8067,-0.5834,-0.1017
11.7470,-0.8067,-0.5834,-0.1017
11.7480,-0.8067,-0.5834,-0.1017
11.7680,-0.7901,-0.5890,-0.1053
11.7690,-0.7901,-0.5890,-0.1053
11.8440,-0.7901,-0.5890,-0.1053
11.8440,-0.7901,-0.5890,-0.1053
11.8440,-0.7901,-0.5890,-0.1053
11.8440,-0.7662,-0.5934,-0.1105
11.8440,-0.7662,-0.5934,-0.1105
11.8440,-0.7662,-0.5934,-0.1105
11.8450,-0.7703,-0.5868,-0.1224
11.8450,-0.7703,-0.5868,-0.1224
11.8450,-0.7703,-0.5868,-0.1224
11.8450,-0.7940,-0.5929,-0.0934
11.8450,-0.7940,-0.5929,-0.0934
11.8450,-0.7940,-0.5929,-0.0934
11.8450,-0.7803,-0.5875,-0.0858
11.8460,-0.7803,-0.5875,-0.0858
11.8460,-0.7803,-0.5875,-0.0858
11.8460,-0.7803,-0.5875,-0.0858
11.8460,-0.7803,-0.5875,-0.0858
11.8600,-0.7530,-0.5851,-0.1019
11.8600,-0.7530,-0.5851,-0.1019
11.8600,-0.7530,-0.5851,-0.1019
11.8790,-0.7838,-0.6012,-0.0960
11.8800,-0.7838,-0.6012,-0.0960
11.8800,-0.7838,-0.6012,-0.0960
11.9040,-0.7840,-0.6032,-0.1007
11.9040,-0.7840,-0.6032,-0.1007
11.9050,-0.7840,-0.6032,-0.1007
11.9060,-0.7840,-0.6032,-0.1007
11.9240,-0.7508,-0.5985,-0.1092
11.9250,-0.7508,-0.5985,-0.1092
11.9260,-0.7508,-0.5985,-0.1092
11.9260,-0.7508,-0.5985,-0.1092
11.9270,-0.7508,-0.5985,-0.1092
11.9450,-0.7728,-0.5919,-0.1070
11.9460,-0.7728,-0.5919,-0.1070
11.9460,-0.7728,-0.5919,-0.1070
11.9620,-0.7921,-0.5780,-0.1014
11.9630,-0.7921,-0.5780,-0.1014
11.9640,-0.7921,-0.5780,-0.1014
11.9830,-0.7862,-0.5802,-0.1107
11.9850,-0.7862,-0.5802,-0.1107
11.9880,-0.7862,-0.5802,-0.1107
12.0020,-0.7940,-0.5917,-0.0953
12.0020,-0.7940,-0.5917,-0.0953
12.0030,-0.7940,-0.5917,-0.0953
12.0060,-0.7940,-0.5917,-0.0953
12.0070,-0.7940,-0.5917,-0.0953
12.0210,-0.8128,-0.5841,-0.0929
12.0220,-0.8128,-0.5841,-0.0929
12.0220,-0.8128,-0.5841,-0.0929
12.0440,-0.8018,-0.5741,-0.0978
12.0450,-0.8018,-0.5741,-0.0978
12.0460,-0.8018,-0.5741,-0.0978
12.0650,-0.7774,-0.5829,-0.1034
12.0650,-0.7774,-0.5829,-0.1034
12.0660,-0.7774,-0.5829,-0.1034
12.0820,-0.7669,-0.5878,-0.1217
12.0830,-0.7669,-0.5878,-0.1217
12.0830,-0.7669,-0.5878,-0.1217
12.0840,-0.7669,-0.5878,-0.1217
12.0840,-0.7669,-0.5878,-0.1217
12.1020,-0.7899,-0.5856,-0.1139
12.1030,-0.7899,-0.5856,-0.1139
12.1030,-0.7899,-0.5856,-0.1139
12.1060,-0.7899,-0.5856,-0.1139
12.1260,-0.8028,-0.5961,-0.0968
12.1270,-0.8028,-0.5961,-0.0968
12.1270,-0.8028,-0.5961,-0.0968
12.1420,-0.7825,-0.6027,-0.0997
12.1430,-0.7825,-0.6027,-0.0997
12.1440,-0.7825,-0.6027,-0.0997
12.1610,-0.7693,-0.5939,-0.1180
12.1630,-0.7693,-0.5939,-0.1180
12.1640,-0.7693,-0.5939,-0.1180
12.1650,-0.7693,-0.5939,-0.1180
12.1650,-0.7693,-0.5939,-0.1180
12.1830,-0.8040,-0.5834,-0.0995
12.1860,-0.8040,-0.5834,-0.0995
12.1890,-0.8040,-0.5834,-0.0995
12.2070,-0.7879,-0.5768,-0.1068
12.2080,-0.7879,-0.5768,-0.1068
12.2090,-0.7879,-0.5768,-0.1068
12.2260,-0.7669,-0.5878,-0.1195
12.2260,-0.7669,-0.5878,-0.1195
12.2290,-0.7669,-0.5878,-0.1195
12.2400,-0.7779,-0.5988,-0.0997
12.2430,-0.7779,-0.5988,-0.0997
12.2440,-0.7779,-0.5988,-0.0997
12.2450,-0.7779,-0.5988,-0.0997
12.2460,-0.7779,-0.5988,-0.0997
12.2620,-0.7779,-0.5736,-0.1031
12.2630,-0.7779,-0.5736,-0.1031
12.2630,-0.7779,-0.5736,-0.1031
12.2810,-0.7791,-0.5604,-0.1222
12.2820,-0.7791,-0.5604,-0.1222
12.2820,-0.7791,-0.5604,-0.1222
12.3040,-0.7735,-0.5814,-0.1058
12.3060,-0.7735,-0.5814,-0.1058
12.3060,-0.7735,-0.5814,-0.1058
12.3070,-0.7735,-0.5814,-0.1058
12.3210,-0.7889,-0.6010,-0.0816
12.4180,-0.7889,-0.6010,-0.0816
12.4190,-0.7889,-0.6010,-0.0816
12.4190,-0.7889,-0.6010,-0.0816
12.4190,-0.7889,-0.6010,-0.0816
12.4190,-0.7818,-0.5836,-0.0819
12.4190,-0.7818,-0.5836,-0.0819
12.4200,-0.7818,-0.5836,-0.0819
12.4200,-0.7486,-0.5663,-0.1166
12.4200,-0.7486,-0.5663,-0.1166
12.4200,-0.7486,-0.5663,-0.1166
12.4210,-0.7684,-0.5912,-0.0885
12.4210,-0.7684,-0.5912,-0.0885
12.4210,-0.7684,-0.5912,-0.0885
12.4210,-0.7710,-0.5953,-0.0965
12.4220,-0.7710,-0.5953,-0.0965
12.4220,-0.7710,-0.5953,-0.0965
12.4220,-0.7710,-0.5953,-0.0965
12.4220,-0.7710,-0.5953,-0.0965
12.4220,-0.7769,-0.5782,-0.1088
12.4230,-0.7769,-0.5782,-0.1088
12.4230,-0.7769,-0.5782,-0.1088
12.4390,-0.7845,-0.5750,-0.1178
12.4390,-0.7845,-0.5750,-0.1178
12.4390,-0.7845,-0.5750,-0.1178
12.4570,-0.7850,-0.5804,-0.1114
12.4570,-0.7850,-0.5804,-0.1114
12.4570,-0.7850,-0.5804,-0.1114
12.4770,-0.8011,-0.5860,-0.1075
12.4770,-0.8011,-0.5860,-0.1075
12.4770,-0.8011,-0.5860,-0.1075
12.4780,-0.8011,-0.5860,-0.1075
12.4780,-0.8011,-0.5860,-0.1075
12.4960,-0.8031,-0.5814,-0.1068
12.4960,-0.8031,-0.5814,-0.1068
12.4970,-0.8031,-0.5814,-0.1068
12.5040,-0.8031,-0.5814,-0.1068
12.5160,-0.7862,-0.5758,-0.1036
12.5160,-0.7862,-0.5758,-0.1036
12.5160,-0.7862,-0.5758,-0.1036
12.5240,-0.7862,-0.5758,-0.1036
12.5350,-0.7732,-0.5777,-0.1114
12.5360,-0.7732,-0.5777,-0.1114
12.5360,-0.7732,-0.5777,-0.1114
12.5560,-0.7935,-0.5809,-0.0912
12.5570,-0.7935,-0.5809,-0.0912
12.5580,-0.7935,-0.5809,-0.0912
12.5580,-0.7935,-0.5809,-0.0912
12.5590,-0.7935,-0.5809,-0.0912
12.5770,-0.8004,-0.5814,-0.0846
12.5770,-0.8004,-0.5814,-0.0846
12.5780,-0.8004,-0.5814,-0.0846
12.5980,-0.8009,-0.5851,-0.1051
12.5990,-0.8009,-0.5851,-0.1051
12.5990,-0.8009,-0.5851,-0.1051
12.6170,-0.7855,-0.5880,-0.1119
12.6170,-0.7855,-0.5880,-0.1119
12.6180,-0.7855,-0.5880,-0.1119
12.6360,-0.7779,-0.5831,-0.1083
12.6360,-0.7779,-0.5831,-0.1083
12.6370,-0.7779,-0.5831,-0.1083
12.6380,-0.7779,-0.5831,-0.1083
12.6390,-0.7779,-0.5831,-0.1083
12.6590,-0.7916,-0.5794,-0.1100
12.6590,-0.7916,-0.5794,-0.1100
12.6600,-0.7916,-0.5794,-0.1100
12.6780,-0.8026,-0.5753,-0.1073
12.6780,-0.8026,-0.5753,-0.1073
12.6790,-0.8026,-0.5753,-0.1073
12.6960,-0.7737,-0.5709,-0.1195
12.6960,-0.7737,-0.5709,-0.1195
12.6970,-0.7737,-0.5709,-0.1195
12.7050,-0.7737,-0.5709,-0.1195
12.7180,-0.7752,-0.5777,-0.1119
12.7180,-0.7752,-0.5777,-0.1119
12.7190,-0.7752,-0.5777,-0.1119
12.7190,-0.7752,-0.5777,-0.1119
12.7200,-0.7752,-0.5777,-0.1119
12.7370,-0.8006,-0.5880,-0.0897
12.7380,-0.8006,-0.5880,-0.0897
12.7380,-0.8006,-0.5880,-0.0897
12.7560,-0.7808,-0.5856,-0.0963
12.7570,-0.7808,-0.5856,-0.0963
12.7570,-0.7808,-0.5856,-0.0963
12.7740,-0.7803,-0.5733,-0.0943
12.7750,-0.7803,-0.5733,-0.0943
12.7760,-0.7803,-0.5733,-0.0943
12.7990,-0.7962,-0.5638,-0.1095
12.7990,-0.7962,-0.5638,-0.1095
12.8000,-0.7962,-0.5638,-0.1095
12.8000,-0.7962,-0.5638,-0.1095
12.8030,-0.7962,-0.5638,-0.1095
12.8180,-0.7877,-0.5748,-0.1019
12.8190,-0.7877,-0.5748,-0.1019
12.8190,-0.7877,-0.5748,-0.1019
12.8360,-0.7864,-0.5870,-0.0767
12.8360,-0.7864,-0.5870,-0.0767
12.8360,-0.7864,-0.5870,-0.0767
12.8560,-0.7943,-0.5829,-0.0916
12.8570,-0.7943,-0.5829,-0.0916
12.8570,-0.7943,-0.5829,-0.0916
12.9410,-0.7381,-0.5895,-0.1188
12.9420,-0.7381,-0.5895,-0.1188
12.9420,-0.7381,-0.5895,-0.1188
12.9420,-0.7381,-0.5895,-0.1188
12.9420,-0.7381,-0.5895,-0.1188
12.9420,-0.7857,-0.5963,-0.0978
12.9430,-0.7857,-0.5963,-0.0978
12.9430,-0.7857,-0.5963,-0.0978
12.9430,-0.7857,-0.5963,-0.0978
12.9430,-0.8072,-0.5807,-0.0784
12.9430,-0.8072,-0.5807,-0.0784
12.9440,-0.8072,-0.5807,-0.0784
12.9440,-0.7828,-0.5750,-0.0875
12.9440,-0.7828,-0.5750,-0.0875
12.9440,-0.7828,-0.5750,-0.0875
12.9530,-0.7779,-0.5831,-0.0860
12.9530,-0.7779,-0.5831,-0.0860
12.9540,-0.7779,-0.5831,-0.0860
12.9550,-0.7779,-0.5831,-0.0860
12.9550,-0.7779,-0.5831,-0.0860
12.9730,-0.7764,-0.5777,-0.1085
12.9730,-0.7764,-0.5777,-0.1085
12.9740,-0.7764,-0.5777,-0.1085
12.9930,-0.7847,-0.5836,-0.1026
12.9930,-0.7847,-0.5836,-0.1026
12.9940,-0.7847,-0.5836,-0.1026
13.0130,-0.8280,-0.5834,-0.0853
13.0130,-0.8280,-0.5834,-0.0853
13.0140,-0.8280,-0.5834,-0.0853
13.0340,-0.7974,-0.5777,-0.1039
13.0380,-0.7974,-0.5777,-0.1039
13.0380,-0.7974,-0.5777,-0.1039
13.0390,-0.7974,-0.5777,-0.1039
13.0390,-0.7974,-0.5777,-0.1039
13.0540,-0.7662,-0.5816,-0.1224
13.0550,-0.7662,-0.5816,-0.1224
13.0550,-0.7662,-0.5816,-0.1224
13.0740,-0.7855,-0.5770,-0.1009
13.0750,-0.7855,-0.5770,-0.1009
13.0750,-0.7855,-0.5770,-0.1009
13.0930,-0.7879,-0.5777,-0.0846
13.0940,-0.7879,-0.5777,-0.0846
13.0950,-0.7879,-0.5777,-0.0846
13.0980,-0.7879,-0.5777,-0.0846
13.1150,-0.7808,-0.5922,-0.0887
13.1160,-0.7808,-0.5922,-0.0887
13.1160,-0.7808,-0.5922,-0.0887
13.1240,-0.7808,-0.5922,-0.0887
13.1250,-0.7808,-0.5922,-0.0887
13.1350,-0.7989,-0.5900,-0.0960
13.1360,-0.7989,-0.5900,-0.0960
13.1360,-0.7989,-0.5900,-0.0960
13.1550,-0.7901,-0.5770,-0.1063
13.1550,-0.7901,-0.5770,-0.1063
13.1560,-0.7901,-0.5770,-0.1063
13.1730,-0.7852,-0.5758,-0.1254
13.1730,-0.7852,-0.5758,-0.1254
13.1740,-0.7852,-0.5758,-0.1254
13.1940,-0.8126,-0.5824,-0.0992
13.1950,-0.8126,-0.5824,-0.0992
13.1950,-0.8126,-0.5824,-0.0992
13.1950,-0.8126,-0.5824,-0.0992
13.1960,-0.8126,-0.5824,-0.0992
13.2120,-0.8014,-0.5746,-0.0946
13.2130,-0.8014,-0.5746,-0.0946
13.2130,-0.8014,-0.5746,-0.0946
13.2340,-0.7862,-0.5704,-0.1217
13.2350,-0.7862,-0.5704,-0.1217
13.2360,-0.7862,-0.5704,-0.1217
13.2520,-0.7945,-0.5819,-0.1058
13.2530,-0.7945,-0.5819,-0.1058
13.2530,-0.7945,-0.5819,-0.1058
13.2720,-0.7754,-0.5831,-0.0958
13.2730,-0.7754,-0.5831,-0.0958
13.2740,-0.7754,-0.5831,-0.0958
13.2750,-0.7754,-0.5831,-0.0958
13.2750,-0.7754,-0.5831,-0.0958
13.2930,-0.7537,-0.5838,-0.0931
13.2950,-0.7537,-0.5838,-0.0931
13.2960,-0.7537,-0.5838,-0.0931
13.2960,-0.7537,-0.5838,-0.0931
13.3120,-0.7493,-0.5870,-0.0916
13.3120,-0.7493,-0.5870,-0.0916
13.3130,-0.7493,-0.5870,-0.0916
13.3310,-0.7728,-0.5824,-0.0951
13.3320,-0.7728,-0.5824,-0.0951
13.3320,-0.7728,-0.5824,-0.0951
13.3540,-0.8182,-0.5946,-0.0694
13.3550,-0.8182,-0.5946,-0.0694
13.3550,-0.8182,-0.5946,-0.0694
13.3560,-0.8182,-0.5946,-0.0694
13.3570,-0.8182,-0.5946,-0.0694
13.3710,-0.7930,-0.5953,-0.0882
13.3720,-0.7930,-0.5953,-0.0882
13.3720,-0.7930,-0.5953,-0.0882
13.3910,-0.7571,-0.5797,-0.1154
13.3920,-0.7571,-0.5797,-0.1154
13.3920,-0.7571,-0.5797,-0.1154
13.4110,-0.7576,-0.5704,-0.1070
13.4120,-0.7576,-0.5704,-0.1070
13.4820,-0.7576,-0.5704,-0.1070
13.4830,-0.7904,-0.5633,-0.0965
13.4830,-0.7904,-0.5633,-0.0965
13.4830,-0.7904,-0.5633,-0.0965
13.4830,-0.7904,-0.5633,-0.0965
13.4840,-0.7904,-0.5633,-0.0965
13.4840,-0.7952,-0.5658,-0.0897
13.4840,-0.7952,-0.5658,-0.0897
13.4840,-0.7952,-0.5658,-0.0897
13.4850,-0.8077,-0.5741,-0.0853
13.4850,-0.8077,-0.5741,-0.0853
13.4850,-0.8077,-0.5741,-0.0853
13.4940,-0.8187,-0.5741,-0.0987
13.4950,-0.8187,-0.5741,-0.0987
13.4950,-0.8187,-0.5741,-0.0987
13.4950,-0.8187,-0.5741,-0.0987
13.5090,-0.8170,-0.5755,-0.1124
13.5090,-0.8170,-0.5755,-0.1124
13.5090,-0.8170,-0.5755,-0.1124
13.5120,-0.8170,-0.5755,-0.1124
13.5120,-0.8170,-0.5755,-0.1124
13.5120,-0.8170,-0.5755,-0.1124
13.5290,-0.8084,-0.5802,-0.1161
13.5290,-0.8084,-0.5802,-0.1161
13.5300,-0.8084,-0.5802,-0.1161
13.5480,-0.7840,-0.5831,-0.1070
13.5480,-0.7840,-0.5831,-0.1070
13.5480,-0.7840,-0.5831,-0.1070
13.5690,-0.7689,-0.5792,-0.0992
13.5690,-0.7689,-0.5792,-0.0992
13.5690,-0.7689,-0.5792,-0.0992
13.5900,-0.7776,-0.5768,-0.0953
13.5910,-0.7776,-0.5768,-0.0953
13.5920,-0.7776,-0.5768,-0.0953
13.5920,-0.7776,-0.5768,-0.0953
13.5930,-0.7776,-0.5768,-0.0953
13.6110,-0.7820,-0.5897,-0.0745
13.6120,-0.7820,-0.5897,-0.0745
13.6120,-0.7820,-0.5897,-0.0745
13.6310,-0.7757,-0.5951,-0.0968
13.6310,-0.7757,-0.5951,-0.0968
13.6320,-0.7757,-0.5951,-0.0968
13.6490,-0.7889,-0.5890,-0.1134
13.6490,-0.7889,-0.5890,-0.1134
13.6500,-0.7889,-0.5890,-0.1134
13.6690,-0.7938,-0.5787,-0.0980
13.6700,-0.7938,-0.5787,-0.0980
13.6720,-0.7938,-0.5787,-0.0980
13.6720,-0.7938,-0.5787,-0.0980
13.6720,-0.7938,-0.5787,-0.0980
13.6890,-0.8033,-0.5689,-0.0904
13.6890,-0.8033,-0.5689,-0.0904
13.6900,-0.8033,-0.5689,-0.0904
13.6930,-0.8033,-0.5689,-0.0904
13.7080,-0.8133,-0.5672,-0.0841
13.7090,-0.8133,-0.5672,-0.0841
13.7090,-0.8133,-0.5672,-0.0841
13.7300,-0.8006,-0.5689,-0.0980
13.7300,-0.8006,-0.5689,-0.0980
13.7310,-0.8006,-0.5689,-0.0980
13.7500,-0.7632,-0.5711,-0.1129
13.7500,-0.7632,-0.5711,-0.1129
13.7510,-0.7632,-0.5711,-0.1129
13.7510,-0.7632,-0.5711,-0.1129
13.7520,-0.7632,-0.5711,-0.1129
13.7690,-0.7591,-0.5772,-0.1117
13.7700,-0.7591,-0.5772,-0.1117
13.7700,-0.7591,-0.5772,-0.1117
13.7900,-0.7908,-0.5812,-0.0846
13.7910,-0.7908,-0.5812,-0.0846
13.7920,-0.7908,-0.5812,-0.0846
13.8090,-0.8072,-0.5812,-0.0711
13.8100,-0.8072,-0.5812,-0.0711
13.8100,-0.8072,-0.5812,-0.0711
13.8290,-0.7816,-0.5741,-0.0948
13.8310,-0.7816,-0.5741,-0.0948
13.8320,-0.7816,-0.5741,-0.0948
13.8360,-0.7816,-0.5741,-0.0948
13.8390,-0.7816,-0.5741,-0.0948
13.8480,-0.7757,-0.5936,-0.1036
13.8490,-0.7757,-0.5936,-0.1036
13.8490,-0.7757,-0.5936,-0.1036
13.8680,-0.7872,-0.5970,-0.0897
13.8680,-0.7872,-0.5970,-0.0897
13.8680,-0.7872,-0.5970,-0.0897
13.8890,-0.7801,-0.5741,-0.0926
13.8900,-0.7801,-0.5741,-0.0926
13.8900,-0.7801,-0.5741,-0.0926
13.8920,-0.7801,-0.5741,-0.0926
13.9090,-0.7654,-0.5768,-0.1007
13.9100,-0.7654,-0.5768,-0.1007
13.9110,-0.7654,-0.5768,-0.1007
13.9110,-0.7654,-0.5768,-0.1007
13.9120,-0.7654,-0.5768,-0.1007
13.9290,-0.7772,-0.5821,-0.1039
13.9300,-0.7772,-0.5821,-0.1039
13.9300,-0.7772,-0.5821,-0.1039
13.9500,-0.8072,-0.5746,-0.0987
13.9510,-0.8072,-0.5746,-0.0987
13.9520,-0.8072,-0.5746,-0.0987
14.0100,-0.8104,-0.5826,-0.0912
14.0100,-0.8104,-0.5826,-0.0912
14.0110,-0.8104,-0.5826,-0.0912
14.0110,-0.7884,-0.5851,-0.0938
14.0110,-0.7884,-0.5851,-0.0938
14.0110,-0.7884,-0.5851,-0.0938
14.0110,-0.7884,-0.5851,-0.0938
14.0110,-0.7884,-0.5851,-0.0938
14.0120,-0.8038,-0.5682,-0.0914
14.0120,-0.8038,-0.5682,-0.0914
14.0120,-0.8038,-0.5682,-0.0914
14.0250,-0.8214,-0.5672,-0.0899
14.0250,-0.8214,-0.5672,-0.0899
14.0250,-0.8214,-0.5672,-0.0899
14.0450,-0.8138,-0.5807,-0.0978
14.0460,-0.8138,-0.5807,-0.0978
14.0460,-0.8138,-0.5807,-0.0978
14.0650,-0.7840,-0.5836,-0.1198
14.0660,-0.7840,-0.5836,-0.1198
14.0660,-0.7840,-0.5836,-0.1198
14.0690,-0.7840,-0.5836,-0.1198
14.0690,-0.7840,-0.5836,-0.1198
14.0850,-0.7754,-0.5782,-0.1056
14.0860,-0.7754,-0.5782,-0.1056
14.0860,-0.7754,-0.5782,-0.1056
14.0900,-0.7754,-0.5782,-0.1056
14.1050,-0.7835,-0.5802,-0.0968
14.1050,-0.7835,-0.5802,-0.0968
14.1050,-0.7835,-0.5802,-0.0968
14.1270,-0.7794,-0.5868,-0.0975
14.1280,-0.7794,-0.5868,-0.0975
14.1280,-0.7794,-0.5868,-0.0975
14.1470,-0.8847,-0.5799,-0.0347
14.1520,-0.8847,-0.5799,-0.0347
14.1520,-0.8847,-0.5799,-0.0347
14.1530,-0.8847,-0.5799,-0.0347
14.1530,-0.8847,-0.5799,-0.0347
14.1660,-0.8688,-0.6339,-0.0591
14.1670,-0.8688,-0.6339,-0.0591
14.1670,-0.8688,-0.6339,-0.0591
14.1870,-0.7129,-0.6166,-0.1205
14.1880,-0.7129,-0.6166,-0.1205
14.1890,-0.7129,-0.6166,-0.1205
14.2060,-0.7036,-0.5438,-0.1525
14.2060,-0.7036,-0.5438,-0.1525
14.2070,-0.7036,-0.5438,-0.1525
14.2290,-0.7464,-0.5088,-0.1249
14.2290,-0.7464,-0.5088,-0.1249
14.2300,-0.7464,-0.5088,-0.1249
14.2310,-0.7464,-0.5088,-0.1249
14.2320,-0.7464,-0.5088,-0.1249
14.2470,-0.7723,-0.5391,-0.0880
14.2470,-0.7723,-0.5391,-0.0880
14.2480,-0.7723,-0.5391,-0.0880
14.2670,-0.7784,-0.6132,-0.0978
14.2680,-0.7784,-0.6132,-0.0978
14.2690,-0.7784,-0.6132,-0.0978
14.2920,-0.7940,-0.5929,-0.0359
14.2930,-0.7940,-0.5929,-0.0359
14.2930,-0.7940,-0.5929,-0.0359
14.2940,-0.7940,-0.5929,-0.0359
14.3070,-0.8285,-0.5804,-0.1317
14.3080,-0.8285,-0.5804,-0.1317
14.3090,-0.8285,-0.5804,-0.1317
14.3090,-0.8285,-0.5804,-0.1317
14.3100,-0.8285,-0.5804,-0.1317
14.3270,-0.8175,-0.5411,-0.0799
14.3280,-0.8175,-0.5411,-0.0799
14.3290,-0.8175,-0.5411,-0.0799
14.3470,-0.7283,-0.5709,-0.1303
14.3470,-0.7283,-0.5709,-0.1303
14.3480,-0.7283,-0.5709,-0.1303
14.3670,-0.7833,-0.6215,-0.0890
14.3680,-0.7833,-0.6215,-0.0890
14.3680,-0.7833,-0.6215,-0.0890
14.3870,-0.7845,-0.6347,-0.0616
14.3880,-0.7845,-0.6347,-0.0616
14.3890,-0.7845,-0.6347,-0.0616
14.3890,-0.7845,-0.6347,-0.0616
14.3900,-0.7845,-0.6347,-0.0616
14.4100,-0.8148,-0.5692,-0.0689
14.4120,-0.8148,-0.5692,-0.0689
14.4140,-0.8148,-0.5692,-0.0689
14.4260,-0.8204,-0.5455,-0.0677
14.4270,-0.8204,-0.5455,-0.0677
14.4280,-0.8204,-0.5455,-0.0677
14.4470,-0.7708,-0.5467,-0.1310
14.4480,-0.7708,-0.5467,-0.1310
14.4480,-0.7708,-0.5467,-0.1310
14.4680,-0.7476,-0.5577,-0.1290
14.4690,-0.7476,-0.5577,-0.1290
14.4690,-0.7476,-0.5577,-0.1290
14.4700,-0.7476,-0.5577,-0.1290
14.4700,-0.7476,-0.5577,-0.1290
14.4870,-0.7471,-0.5841,-0.1168
14.4880,-0.7471,-0.5841,-0.1168
14.4890,-0.7471,-0.5841,-0.1168
14.4910,-0.7471,-0.5841,-0.1168
14.5080,-0.7984,-0.6098,-0.1207
14.5090,-0.7984,-0.6098,-0.1207
14.5810,-0.7984,-0.6098,-0.1207
14.5810,-0.8507,-0.5902,-0.1112
14.5810,-0.8507,-0.5902,-0.1112
14.5820,-0.8507,-0.5902,-0.1112
14.5820,-0.8302,-0.5636,-0.0951
14.5820,-0.8302,-0.5636,-0.0951
14.5820,-0.8302,-0.5636,-0.0951
14.5820,-0.8302,-0.5636,-0.0951
14.5820,-0.8302,-0.5636,-0.0951
14.5830,-0.7825,-0.5924,-0.0868
14.5830,-0.7825,-0.5924,-0.0868
14.5830,-0.7825,-0.5924,-0.0868
14.5830,-0.7855,-0.5797,-0.0907
14.5830,-0.7855,-0.5797,-0.0907
14.5830,-0.7855,-0.5797,-0.0907
14.6060,-0.8121,-0.5482,-0.0831
14.6060,-0.8121,-0.5482,-0.0831
14.6060,-0.8121,-0.5482,-0.0831
14.6250,-0.8275,-0.5491,-0.0794
14.6260,-0.8275,-0.5491,-0.0794
14.6260,-0.8275,-0.5491,-0.0794
14.6260,-0.8275,-0.5491,-0.0794
14.6260,-0.8275,-0.5491,-0.0794
14.6490,-0.7904,-0.5643,-0.1036
14.6490,-0.7904,-0.5643,-0.1036
14.6490,-0.7904,-0.5643,-0.1036
14.6620,-0.7547,-0.5772,-0.1009
14.6620,-0.7547,-0.5772,-0.1009
14.6630,-0.7547,-0.5772,-0.1009
14.6830,-0.7774,-0.5787,-0.1068
14.6830,-0.7774,-0.5787,-0.1068
14.6830,-0.7774,-0.5787,-0.1068
14.6840,-0.7774,-0.5787,-0.1068
14.7040,-0.7867,-0.5868,-0.0929
14.7040,-0.7867,-0.5868,-0.0929
14.7050,-0.7867,-0.5868,-0.0929
14.7060,-0.7867,-0.5868,-0.0929
14.7060,-0.7867,-0.5868,-0.0929
14.7290,-0.8260,-0.5660,-0.0804
14.7300,-0.8260,-0.5660,-0.0804
14.7310,-0.8260,-0.5660,-0.0804
14.7440,-0.8082,-0.5401,-0.1019
14.7450,-0.8082,-0.5401,-0.1019
14.7450,-0.8082,-0.5401,-0.1019
14.7640,-0.7889,-0.5575,-0.1102
14.7660,-0.7889,-0.5575,-0.1102
14.7670,-0.7889,-0.5575,-0.1102
14.7870,-0.7945,-0.5663,-0.0938
14.7880,-0.7945,-0.5663,-0.0938
14.7910,-0.7945,-0.5663,-0.0938
14.7920,-0.7945,-0.5663,-0.0938
14.7930,-0.7945,-0.5663,-0.0938
14.8060,-0.7852,-0.5582,-0.0853
14.8070,-0.7852,-0.5582,-0.0853
14.8080,-0.7852,-0.5582,-0.0853
14.8240,-0.7928,-0.5587,-0.0887
14.8250,-0.7928,-0.5587,-0.0887
14.8270,-0.7928,-0.5587,-0.0887
14.8470,-0.7962,-0.5728,-0.0841
14.8480,-0.7962,-0.5728,-0.0841
14.8490,-0.7962,-0.5728,-0.0841
14.8640,-0.7847,-0.5799,-0.0885
14.8640,-0.7847,-0.5799,-0.0885
14.8650,-0.7847,-0.5799,-0.0885
14.8670,-0.7847,-0.5799,-0.0885
14.8670,-0.7847,-0.5799,-0.0885
14.8830,-0.8006,-0.5765,-0.0877
14.8840,-0.8006,-0.5765,-0.0877
14.8840,-0.8006,-0.5765,-0.0877
14.8860,-0.8006,-0.5765,-0.0877
14.9030,-0.8358,-0.5741,-0.0631
14.9040,-0.8358,-0.5741,-0.0631
14.9090,-0.8358,-0.5741,-0.0631
14.9210,-0.8295,-0.5538,-0.0709
14.9210,-0.8295,-0.5538,-0.0709
14.9210,-0.8295,-0.5538,-0.0709
14.9410,-0.8126,-0.5416,-0.1293
14.9410,-0.8126,-0.5416,-0.1293
14.9410,-0.8126,-0.5416,-0.1293
14.9420,-0.8126,-0.5416,-0.1293
14.9430,-0.8126,-0.5416,-0.1293
14.9630,-0.8033,-0.5333,-0.1366
14.9630,-0.8033,-0.5333,-0.1366
14.9630,-0.8033,-0.5333,-0.1366
14.9810,-0.8199,-0.5440,-0.0880
14.9810,-0.8199,-0.5440,-0.0880
14.9820,-0.8199,-0.5440,-0.0880
15.0010,-0.8182,-0.5726,-0.0877
15.0010,-0.8182,-0.5726,-0.0877
15.0010,-0.8182,-0.5726,-0.0877
15.0210,-0.7850,-0.5760,-0.0833
15.0210,-0.7850,-0.5760,-0.0833
15.0220,-0.7850,-0.5760,-0.0833
15.0240,-0.7850,-0.5760,-0.0833
15.0240,-0.7850,-0.5760,-0.0833
15.0420,-0.7867,-0.5792,-0.0653
15.0420,-0.7867,-0.5792,-0.0653
15.0420,-0.7867,-0.5792,-0.0653
15.0600,-0.7908,-0.5692,-0.0596
15.0600,-0.7908,-0.5692,-0.0596
15.0960,-0.7908,-0.5692,-0.0596
15.0960,-0.8011,-0.5460,-0.0706
15.0960,-0.8011,-0.5460,-0.0706
15.0970,-0.8011,-0.5460,-0.0706
15.0970,-0.8011,-0.5460,-0.0706
15.0990,-0.7916,-0.5504,-0.0890
15.0990,-0.7916,-0.5504,-0.0890
15.0990,-0.7916,-0.5504,-0.0890
15.1010,-0.7916,-0.5504,-0.0890
15.1020,-0.7916,-0.5504,-0.0890
