
time,AccelerometerX,AccelerometerY,AccelerometerZ
0.0090,-0.2153,-0.9712,0.0230
0.0100,-0.2153,-0.9712,0.0230
0.0100,-0.2153,-0.9712,0.0230
0.0490,-0.1655,-0.9328,-0.0054
0.0500,-0.1655,-0.9328,-0.0054
0.0500,-0.1655,-0.9328,-0.0054
0.0520,-0.2148,-0.9211,0.0188
0.0520,-0.2148,-0.9211,0.0188
0.0530,-0.2148,-0.9211,0.0188
0.0530,-0.2148,-0.9211,0.0188
0.0540,-0.2148,-0.9211,0.0188
0.0540,-0.2148,-0.9211,0.0188
0.0730,-0.2437,-0.9221,0.0513
0.0730,-0.2437,-0.9221,0.0513
0.0730,-0.2437,-0.9221,0.0513
0.0870,-0.2178,-0.9402,0.0279
0.0880,-0.2178,-0.9402,0.0279
0.0880,-0.2178,-0.9402,0.0279
0.1080,-0.2200,-0.9453,0.0029
0.1080,-0.2200,-0.9453,0.0029
0.1080,-0.2200,-0.9453,0.0029
0.1280,-0.2136,-0.9336,-0.0034
0.1280,-0.2136,-0.9336,-0.0034
0.1280,-0.2136,-0.9336,-0.0034
0.1290,-0.2136,-0.9336,-0.0034
0.1290,-0.2136,-0.9336,-0.0034
0.1460,-0.2136,-0.9336,-0.0034
0.1500,-0.2060,-0.9309,0.0112
0.1500,-0.2060,-0.9309,0.0112
0.1500,-0.2060,-0.9309,0.0112
0.1670,-0.2024,-0.9353,0.0535
0.1690,-0.2024,-0.9353,0.0535
0.1690,-0.2024,-0.9353,0.0535
0.1870,-0.2561,-0.9732,0.0755
0.1880,-0.2561,-0.9732,0.0755
0.1880,-0.2561,-0.9732,0.0755
0.2070,-0.2097,-0.9502,0.0349
0.2070,-0.2097,-0.9502,0.0349
0.2070,-0.2097,-0.9502,0.0349
0.2090,-0.2097,-0.9502,0.0349
0.2090,-0.2097,-0.9502,0.0349
0.2290,-0.1711,-0.9326,-0.0037
0.2290,-0.1711,-0.9326,-0.0037
0.2290,-0.1711,-0.9326,-0.0037
0.2470,-0.1972,-0.9404,0.0042
0.2470,-0.1972,-0.9404,0.0042
0.2480,-0.1972,-0.9404,0.0042
0.2480,-0.1972,-0.9404,0.0042
0.2660,-0.2058,-0.9411,0.0261
0.2660,-0.2058,-0.9411,0.0261
0.2670,-0.2058,-0.9411,0.0261
0.2860,-0.1916,-0.9475,0.0374
0.2870,-0.1916,-0.9475,0.0374
0.2870,-0.1916,-0.9475,0.0374
0.2880,-0.1916,-0.9475,0.0374
0.2880,-0.1916,-0.9475,0.0374
0.3090,-0.1950,-0.9524,0.0462
0.3090,-0.1950,-0.9524,0.0462
0.3090,-0.1950,-0.9524,0.0462
0.3260,-0.2175,-0.9431,0.0479
0.3260,-0.2175,-0.9431,0.0479
0.3270,-0.2175,-0.9431,0.0479
0.3450,-0.2175,-0.9431,0.0479
0.3460,-0.2178,-0.9433,0.0371
0.3470,-0.2178,-0.9433,0.0371
0.3480,-0.2178,-0.9433,0.0371
0.3660,-0.1997,-0.9575,0.0325
0.3670,-0.1997,-0.9575,0.0325
0.3670,-0.1997,-0.9575,0.0325
0.3680,-0.1997,-0.9575,0.0325
0.3680,-0.1997,-0.9575,0.0325
0.3900,-0.1740,-0.9585,0.0301
0.3900,-0.1740,-0.9585,0.0301
0.3900,-0.1740,-0.9585,0.0301
0.4080,-0.1491,-0.9539,0.0618
0.4080,-0.1491,-0.9539,0.0618
0.4080,-0.1491,-0.9539,0.0618
0.4260,-0.1486,-0.9514,0.0714
0.4260,-0.1486,-0.9514,0.0714
0.4260,-0.1486,-0.9514,0.0714
0.4460,-0.2522,-0.9409,0.0528
0.4470,-0.2522,-0.9409,0.0528
0.4470,-0.2522,-0.9409,0.0528
0.4480,-0.2522,-0.9409,0.0528
0.4480,-0.2522,-0.9409,0.0528
0.4680,-0.3013,-0.9585,0.0594
0.4680,-0.3013,-0.9585,0.0594
0.4680,-0.3013,-0.9585,0.0594
0.4850,-0.2263,-0.9382,0.0369
0.4850,-0.2263,-0.9382,0.0369
0.4850,-0.2263,-0.9382,0.0369
0.5050,-0.1821,-0.9199,0.0181
0.5050,-0.1821,-0.9199,0.0181
0.5060,-0.1821,-0.9199,0.0181
0.5260,-0.1911,-0.9402,0.0220
0.5260,-0.1911,-0.9402,0.0220
0.5270,-0.1911,-0.9402,0.0220
0.5270,-0.1911,-0.9402,0.0220
0.5270,-0.1911,-0.9402,0.0220
0.5440,-0.1911,-0.9402,0.0220
0.5480,-0.2043,-0.9507,0.0110
0.5480,-0.2043,-0.9507,0.0110
0.5480,-0.2043,-0.9507,0.0110
0.5650,-0.2041,-0.9448,0.0298
0.5660,-0.2041,-0.9448,0.0298
0.5660,-0.2041,-0.9448,0.0298
0.6050,-0.1884,-0.9382,0.0540
0.6060,-0.1884,-0.9382,0.0540
0.6060,-0.1884,-0.9382,0.0540
0.6060,-0.1835,-0.9407,0.0672
0.6060,-0.1835,-0.9407,0.0672
0.6060,-0.1835,-0.9407,0.0672
0.6060,-0.1835,-0.9407,0.0672
0.6060,-0.1835,-0.9407,0.0672
0.6270,-0.2050,-0.9512,0.0626
0.6270,-0.2050,-0.9512,0.0626
0.6270,-0.2050,-0.9512,0.0626
0.6450,-0.2251,-0.9622,0.0711
0.6450,-0.2251,-0.9622,0.0711
0.6450,-0.2251,-0.9622,0.0711
0.6450,-0.2251,-0.9622,0.0711
0.6650,-0.2068,-0.9651,0.0682
0.6650,-0.2068,-0.9651,0.0682
0.6650,-0.2068,-0.9651,0.0682
0.6850,-0.1701,-0.9575,0.0440
0.6850,-0.1701,-0.9575,0.0440
0.6850,-0.1701,-0.9575,0.0440
0.6850,-0.1701,-0.9575,0.0440
0.6850,-0.1701,-0.9575,0.0440
0.7060,-0.1796,-0.9497,0.0286
0.7060,-0.1796,-0.9497,0.0286
0.7070,-0.1796,-0.9497,0.0286
0.7250,-0.2158,-0.9429,0.0218
0.7250,-0.2158,-0.9429,0.0218
0.7260,-0.2158,-0.9429,0.0218
0.7420,-0.2158,-0.9429,0.0218
0.7450,-0.2209,-0.9397,0.0235
0.7450,-0.2209,-0.9397,0.0235
0.7450,-0.2209,-0.9397,0.0235
0.7650,-0.2053,-0.9297,0.0098
0.7650,-0.2053,-0.9297,0.0098
0.7650,-0.2053,-0.9297,0.0098
0.7650,-0.2053,-0.9297,0.0098
0.7650,-0.2053,-0.9297,0.0098
0.7850,-0.2011,-0.9248,-0.0098
0.7850,-0.2011,-0.9248,-0.0098
0.7860,-0.2011,-0.9248,-0.0098
0.8040,-0.1943,-0.9365,0.0027
0.8040,-0.1943,-0.9365,0.0027
0.8040,-0.1943,-0.9365,0.0027
0.8250,-0.1938,-0.9411,0.0327
0.8250,-0.1938,-0.9411,0.0327
0.8260,-0.1938,-0.9411,0.0327
0.8450,-0.1916,-0.9480,0.0606
0.8450,-0.1916,-0.9480,0.0606
0.8450,-0.1916,-0.9480,0.0606
0.8450,-0.1916,-0.9480,0.0606
0.8460,-0.1916,-0.9480,0.0606
0.8640,-0.1786,-0.9668,0.0653
0.8650,-0.1786,-0.9668,0.0653
0.8650,-0.1786,-0.9668,0.0653
0.8830,-0.1977,-0.9592,0.0684
0.8830,-0.1977,-0.9592,0.0684
0.8830,-0.1977,-0.9592,0.0684
0.9030,-0.2234,-0.9460,0.0518
0.9030,-0.2234,-0.9460,0.0518
0.9030,-0.2234,-0.9460,0.0518
0.9230,-0.2258,-0.9431,0.0327
0.9240,-0.2258,-0.9431,0.0327
0.9240,-0.2258,-0.9431,0.0327
0.9240,-0.2258,-0.9431,0.0327
0.9240,-0.2258,-0.9431,0.0327
0.9410,-0.2258,-0.9431,0.0327
0.9440,-0.2170,-0.9517,0.0335
0.9440,-0.2170,-0.9517,0.0335
0.9440,-0.2170,-0.9517,0.0335
0.9630,-0.1943,-0.9419,0.0279
0.9640,-0.1943,-0.9419,0.0279
0.9640,-0.1943,-0.9419,0.0279
0.9830,-0.1845,-0.9397,0.0332
0.9830,-0.1845,-0.9397,0.0332
0.9830,-0.1845,-0.9397,0.0332
1.0030,-0.1784,-0.9473,0.0330
1.0030,-0.1784,-0.9473,0.0330
1.0040,-0.1784,-0.9473,0.0330
1.0040,-0.1784,-0.9473,0.0330
1.0050,-0.1784,-0.9473,0.0330
1.0240,-0.1747,-0.9526,0.0303
1.0240,-0.1747,-0.9526,0.0303
1.0240,-0.1747,-0.9526,0.0303
1.0430,-0.1855,-0.9463,0.0059
1.0430,-0.1855,-0.9463,0.0059
1.0440,-0.1855,-0.9463,0.0059
1.0440,-0.1855,-0.9463,0.0059
1.0630,-0.1906,-0.9336,0.0088
1.0630,-0.1906,-0.9336,0.0088
1.0630,-0.1906,-0.9336,0.0088
1.0820,-0.2028,-0.9382,0.0183
1.0820,-0.2028,-0.9382,0.0183
1.0820,-0.2028,-0.9382,0.0183
1.0840,-0.2028,-0.9382,0.0183
1.0840,-0.2028,-0.9382,0.0183
1.1040,-0.2134,-0.9370,0.0186
1.1040,-0.2134,-0.9370,0.0186
1.1040,-0.2134,-0.9370,0.0186
1.1230,-0.1999,-0.9397,0.0347
1.1600,-0.1999,-0.9397,0.0347
1.1600,-0.1999,-0.9397,0.0347
1.1610,-0.1999,-0.9397,0.0347
1.1610,-0.1865,-0.9580,0.0428
1.1610,-0.1865,-0.9580,0.0428
1.1610,-0.1865,-0.9580,0.0428
1.1620,-0.1764,-0.9646,0.0486
1.1620,-0.1764,-0.9646,0.0486
1.1620,-0.1764,-0.9646,0.0486
1.1630,-0.1764,-0.9646,0.0486
1.1640,-0.1764,-0.9646,0.0486
1.1830,-0.1799,-0.9707,0.0543
1.1840,-0.1799,-0.9707,0.0543
1.1840,-0.1799,-0.9707,0.0543
1.2010,-0.1960,-0.9651,0.0408
1.2020,-0.1960,-0.9651,0.0408
1.2020,-0.1960,-0.9651,0.0408
1.2230,-0.2200,-0.9568,0.0376
1.2230,-0.2200,-0.9568,0.0376
1.2230,-0.2200,-0.9568,0.0376
1.2430,-0.2104,-0.9411,0.0269
1.2430,-0.2104,-0.9411,0.0269
1.2430,-0.2104,-0.9411,0.0269
1.2440,-0.2104,-0.9411,0.0269
1.2440,-0.2104,-0.9411,0.0269
1.2440,-0.2104,-0.9411,0.0269
1.2630,-0.1865,-0.9531,0.0467
1.2630,-0.1865,-0.9531,0.0467
1.2630,-0.1865,-0.9531,0.0467
1.2810,-0.2068,-0.9436,0.0261
1.2820,-0.2068,-0.9436,0.0261
1.2820,-0.2068,-0.9436,0.0261
1.3020,-0.1823,-0.9365,0.0056
1.3030,-0.1823,-0.9365,0.0056
1.3030,-0.1823,-0.9365,0.0056
1.3200,-0.1716,-0.9546,0.0071
1.3200,-0.1716,-0.9546,0.0071
1.3210,-0.1716,-0.9546,0.0071
1.3220,-0.1716,-0.9546,0.0071
1.3220,-0.1716,-0.9546,0.0071
1.3370,-0.1716,-0.9546,0.0071
1.3440,-0.1872,-0.9631,0.0440
1.3440,-0.1872,-0.9631,0.0440
1.3440,-0.1872,-0.9631,0.0440
1.3600,-0.2046,-0.9627,0.0738
1.3600,-0.2046,-0.9627,0.0738
1.3600,-0.2046,-0.9627,0.0738
1.3800,-0.1764,-0.9507,0.0379
1.3800,-0.1764,-0.9507,0.0379
1.3800,-0.1764,-0.9507,0.0379
1.4010,-0.1911,-0.9460,-0.0098
1.4010,-0.1911,-0.9460,-0.0098
1.4010,-0.1911,-0.9460,-0.0098
1.4020,-0.1911,-0.9460,-0.0098
1.4030,-0.1911,-0.9460,-0.0098
1.4230,-0.2280,-0.9311,-0.0061
1.4230,-0.2280,-0.9311,-0.0061
1.4230,-0.2280,-0.9311,-0.0061
1.4410,-0.2280,-0.9311,-0.0061
1.4410,-0.2219,-0.9350,-0.0296
1.4420,-0.2219,-0.9350,-0.0296
1.4420,-0.2219,-0.9350,-0.0296
1.4600,-0.2075,-0.9451,-0.0499
1.4610,-0.2075,-0.9451,-0.0499
1.4610,-0.2075,-0.9451,-0.0499
1.4800,-0.1965,-0.9304,0.0022
1.4800,-0.1965,-0.9304,0.0022
1.4800,-0.1965,-0.9304,0.0022
1.4830,-0.1965,-0.9304,0.0022
1.4830,-0.1965,-0.9304,0.0022
1.5010,-0.1830,-0.9316,0.0677
1.5010,-0.1830,-0.9316,0.0677
1.5010,-0.1830,-0.9316,0.0677
1.5200,-0.1840,-0.9421,0.0880
1.5200,-0.1840,-0.9421,0.0880
1.5200,-0.1840,-0.9421,0.0880
1.5370,-0.1840,-0.9421,0.0880
1.5400,-0.1896,-0.9695,0.0819
1.5400,-0.1896,-0.9695,0.0819
1.5400,-0.1896,-0.9695,0.0819
1.5600,-0.2151,-0.9741,0.0354
1.5600,-0.2151,-0.9741,0.0354
1.5610,-0.2151,-0.9741,0.0354
1.5610,-0.2151,-0.9741,0.0354
1.5610,-0.2151,-0.9741,0.0354
1.5800,-0.2209,-0.9565,0.0000
1.5800,-0.2209,-0.9565,0.0000
1.5800,-0.2209,-0.9565,0.0000
1.6010,-0.2200,-0.9272,-0.0193
1.6020,-0.2200,-0.9272,-0.0193
1.6030,-0.2200,-0.9272,-0.0193
1.6200,-0.2314,-0.9350,0.0117
1.6210,-0.2314,-0.9350,0.0117
1.6210,-0.2314,-0.9350,0.0117
1.6440,-0.1870,-0.9487,0.0281
1.6460,-0.1870,-0.9487,0.0281
1.6460,-0.1870,-0.9487,0.0281
1.6490,-0.1870,-0.9487,0.0281
1.6490,-0.1870,-0.9487,0.0281
1.6620,-0.1127,-0.9646,0.0572
1.7340,-0.1127,-0.9646,0.0572
1.7340,-0.1127,-0.9646,0.0572
1.7340,-0.1381,-0.9631,0.0679
1.7350,-0.1381,-0.9631,0.0679
1.7350,-0.1381,-0.9631,0.0679
1.7350,-0.1625,-0.9519,0.0345
1.7350,-0.1625,-0.9519,0.0345
1.7350,-0.1625,-0.9519,0.0345
1.7360,-0.1623,-0.9636,-0.0044
1.7360,-0.1623,-0.9636,-0.0044
1.7360,-0.1623,-0.9636,-0.0044
1.7360,-0.1623,-0.9636,-0.0044
1.7370,-0.1623,-0.9636,-0.0044
1.7370,-0.1623,-0.9636,-0.0044
1.7390,-0.1899,-0.9570,0.0149
1.7400,-0.1899,-0.9570,0.0149
1.7400,-0.1899,-0.9570,0.0149
1.7590,-0.2256,-0.9433,0.0501
1.7590,-0.2256,-0.9433,0.0501
1.7590,-0.2256,-0.9433,0.0501
1.7790,-0.2158,-0.9441,0.0325
1.7790,-0.2158,-0.9441,0.0325
1.7800,-0.2158,-0.9441,0.0325
1.8010,-0.1874,-0.9429,0.0230
1.8020,-0.1874,-0.9429,0.0230
1.8020,-0.1874,-0.9429,0.0230
1.8020,-0.1874,-0.9429,0.0230
1.8030,-0.1874,-0.9429,0.0230
1.8220,-0.1955,-0.9519,0.0396
1.8230,-0.1955,-0.9519,0.0396
1.8230,-0.1955,-0.9519,0.0396
1.8410,-0.1936,-0.9595,0.0474
1.8410,-0.1936,-0.9595,0.0474
1.8420,-0.1936,-0.9595,0.0474
1.8600,-0.1884,-0.9436,0.0144
1.8610,-0.1884,-0.9436,0.0144
1.8620,-0.1884,-0.9436,0.0144
1.8800,-0.1943,-0.9385,0.0164
1.8810,-0.1943,-0.9385,0.0164
1.8840,-0.1943,-0.9385,0.0164
1.8850,-0.1943,-0.9385,0.0164
1.8850,-0.1943,-0.9385,0.0164
1.9020,-0.1980,-0.9485,0.0384
1.9030,-0.1980,-0.9485,0.0384
1.9030,-0.1980,-0.9485,0.0384
1.9200,-0.1943,-0.9673,0.0753
1.9200,-0.1943,-0.9673,0.0753
1.9200,-0.1943,-0.9673,0.0753
1.9330,-0.1943,-0.9673,0.0753
1.9370,-0.1840,-0.9592,0.0545
1.9370,-0.1840,-0.9592,0.0545
1.9370,-0.1840,-0.9592,0.0545
1.9570,-0.1706,-0.9365,0.0137
1.9570,-0.1706,-0.9365,0.0137
1.9570,-0.1706,-0.9365,0.0137
1.9580,-0.1706,-0.9365,0.0137
1.9590,-0.1706,-0.9365,0.0137
1.9760,-0.2114,-0.9565,0.0218
1.9760,-0.2114,-0.9565,0.0218
1.9770,-0.2114,-0.9565,0.0218
1.9980,-0.1948,-0.9597,0.0164
1.9980,-0.1948,-0.9597,0.0164
1.9990,-0.1948,-0.9597,0.0164
2.0170,-0.1535,-0.9421,0.0022
2.0170,-0.1535,-0.9421,0.0022
2.0170,-0.1535,-0.9421,0.0022
2.0370,-0.1894,-0.9294,-0.0132
2.0370,-0.1894,-0.9294,-0.0132
2.0370,-0.1894,-0.9294,-0.0132
2.0370,-0.1894,-0.9294,-0.0132
2.0570,-0.1984,-0.9270,0.0117
2.0570,-0.1984,-0.9270,0.0117
2.0570,-0.1984,-0.9270,0.0117
2.0770,-0.1757,-0.9592,0.0484
2.0780,-0.1757,-0.9592,0.0484
2.0780,-0.1757,-0.9592,0.0484
2.0970,-0.1625,-0.9556,0.0484
2.0980,-0.1625,-0.9556,0.0484
2.0990,-0.1625,-0.9556,0.0484
2.1190,-0.1852,-0.9367,0.0418
2.1190,-0.1852,-0.9367,0.0418
2.1190,-0.1852,-0.9367,0.0418
2.1200,-0.1852,-0.9367,0.0418
2.1200,-0.1852,-0.9367,0.0418
2.1340,-0.1852,-0.9367,0.0418
2.1380,-0.1879,-0.9546,0.0288
2.1390,-0.1879,-0.9546,0.0288
2.1390,-0.1879,-0.9546,0.0288
2.1600,-0.1745,-0.9553,0.0115
2.1610,-0.1745,-0.9553,0.0115
2.1610,-0.1745,-0.9553,0.0115
2.1770,-0.1914,-0.9341,0.0095
2.1780,-0.1914,-0.9341,0.0095
2.1780,-0.1914,-0.9341,0.0095
2.1980,-0.1762,-0.9319,0.0303
2.2000,-0.1762,-0.9319,0.0303
2.2000,-0.1762,-0.9319,0.0303
2.2010,-0.1762,-0.9319,0.0303
2.2010,-0.1762,-0.9319,0.0303
2.2190,-0.1652,-0.9551,0.0462
2.3060,-0.1652,-0.9551,0.0462
2.3060,-0.1652,-0.9551,0.0462
2.3070,-0.1958,-0.9578,0.0533
2.3070,-0.1958,-0.9578,0.0533
2.3070,-0.1958,-0.9578,0.0533
2.3070,-0.1997,-0.9536,0.0550
2.3070,-0.1997,-0.9536,0.0550
2.3080,-0.1997,-0.9536,0.0550
2.3080,-0.1745,-0.9634,0.0413
2.3080,-0.1745,-0.9634,0.0413
2.3080,-0.1745,-0.9634,0.0413
2.3090,-0.1745,-0.9634,0.0413
2.3090,-0.1745,-0.9634,0.0413
2.3090,-0.1655,-0.9553,0.0242
2.3090,-0.1655,-0.9553,0.0242
2.3090,-0.1655,-0.9553,0.0242
2.3160,-0.1843,-0.9534,0.0462
2.3160,-0.1843,-0.9534,0.0462
2.3160,-0.1843,-0.9534,0.0462
2.3310,-0.1843,-0.9534,0.0462
2.3360,-0.2243,-0.9658,0.0491
2.3360,-0.2243,-0.9658,0.0491
2.3360,-0.2243,-0.9658,0.0491
2.3550,-0.1960,-0.9600,0.0269
2.3560,-0.1960,-0.9600,0.0269
2.3560,-0.1960,-0.9600,0.0269
2.3580,-0.1960,-0.9600,0.0269
2.3580,-0.1960,-0.9600,0.0269
2.3760,-0.1613,-0.9580,0.0117
2.3770,-0.1613,-0.9580,0.0117
2.3770,-0.1613,-0.9580,0.0117
2.3970,-0.1708,-0.9424,0.0046
2.3970,-0.1708,-0.9424,0.0046
2.3980,-0.1708,-0.9424,0.0046
2.4160,-0.1738,-0.9262,-0.0044
2.4170,-0.1738,-0.9262,-0.0044
2.4170,-0.1738,-0.9262,-0.0044
2.4350,-0.1769,-0.9536,0.0313
2.4360,-0.1769,-0.9536,0.0313
2.4370,-0.1769,-0.9536,0.0313
2.4400,-0.1769,-0.9536,0.0313
2.4410,-0.1769,-0.9536,0.0313
2.4570,-0.1999,-0.9563,0.0755
2.4580,-0.1999,-0.9563,0.0755
2.4590,-0.1999,-0.9563,0.0755
2.4770,-0.1725,-0.9338,0.0594
2.4770,-0.1725,-0.9338,0.0594
2.4780,-0.1725,-0.9338,0.0594
2.4950,-0.1613,-0.9607,0.0296
2.5150,-0.1613,-0.9607,0.0296
2.5160,-0.1613,-0.9607,0.0296
2.5350,-0.1794,-0.9602,0.0242
2.5470,-0.1794,-0.9602,0.0242
2.5470,-0.1794,-0.9602,0.0242
2.5490,-0.1794,-0.9602,0.0242
2.5740,-0.1794,-0.9602,0.0242
2.5750,-0.1872,-0.9468,0.0007
2.5750,-0.1872,-0.9468,0.0007
2.5760,-0.1872,-0.9468,0.0007
2.5760,-0.1872,-0.9468,0.0007
2.5760,-0.1738,-0.9609,-0.0007
2.5760,-0.1892,-0.9482,0.0303
2.5770,-0.1892,-0.9482,0.0303
2.5770,-0.1892,-0.9482,0.0303
2.5770,-0.1892,-0.9482,0.0303
2.5770,-0.1892,-0.9482,0.0303
2.5950,-0.1992,-0.9426,0.0464
2.5950,-0.1992,-0.9426,0.0464
2.5960,-0.1992,-0.9426,0.0464
2.5970,-0.1992,-0.9426,0.0464
2.5980,-0.1992,-0.9426,0.0464
2.5980,-0.1992,-0.9426,0.0464
2.6150,-0.1557,-0.9487,0.0516
2.6150,-0.1557,-0.9487,0.0516
2.6150,-0.1557,-0.9487,0.0516
2.6330,-0.1293,-0.9536,0.0682
2.6330,-0.1293,-0.9536,0.0682
2.6330,-0.1293,-0.9536,0.0682
2.6540,-0.1413,-0.9551,0.0594
2.6540,-0.1413,-0.9551,0.0594
2.6540,-0.1413,-0.9551,0.0594
2.6730,-0.1742,-0.9673,0.0376
2.6730,-0.1742,-0.9673,0.0376
2.6730,-0.1742,-0.9673,0.0376
2.6740,-0.1742,-0.9673,0.0376
2.6750,-0.1742,-0.9673,0.0376
2.6960,-0.1757,-0.9675,0.0210
2.6970,-0.1757,-0.9675,0.0210
2.6970,-0.1757,-0.9675,0.0210
2.7140,-0.1713,-0.9385,-0.0154
2.7150,-0.1713,-0.9385,-0.0154
2.7150,-0.1713,-0.9385,-0.0154
2.7300,-0.1713,-0.9385,-0.0154
2.7330,-0.2011,-0.9231,-0.0166
2.7330,-0.2011,-0.9231,-0.0166
2.7340,-0.2011,-0.9231,-0.0166
2.7560,-0.2207,-0.9389,0.0056
2.7560,-0.2207,-0.9389,0.0056
2.7570,-0.2207,-0.9389,0.0056
2.7570,-0.2207,-0.9389,0.0056
2.8250,-0.2207,-0.9389,0.0056
2.8260,-0.1982,-0.9336,0.0051
2.8260,-0.1982,-0.9336,0.0051
2.8260,-0.1982,-0.9336,0.0051
2.8260,-0.1579,-0.9297,0.0095
2.8260,-0.1579,-0.9297,0.0095
2.8260,-0.1579,-0.9297,0.0095
2.8270,-0.1273,-0.9585,0.0352
2.8270,-0.1273,-0.9585,0.0352
2.8270,-0.1273,-0.9585,0.0352
2.8340,-0.1317,-0.9793,0.0437
2.8340,-0.1317,-0.9793,0.0437
2.8340,-0.1317,-0.9793,0.0437
2.8340,-0.1317,-0.9793,0.0437
2.8540,-0.1518,-0.9727,0.0406
2.8540,-0.1518,-0.9727,0.0406
2.8550,-0.1518,-0.9727,0.0406
2.8720,-0.1650,-0.9441,0.0352
2.8720,-0.1650,-0.9441,0.0352
2.8720,-0.1650,-0.9441,0.0352
2.8940,-0.1789,-0.9487,0.0230
2.8950,-0.1789,-0.9487,0.0230
2.8960,-0.1789,-0.9487,0.0230
2.9130,-0.1681,-0.9558,0.0078
2.9130,-0.1681,-0.9558,0.0078
2.9140,-0.1681,-0.9558,0.0078
2.9170,-0.1681,-0.9558,0.0078
2.9170,-0.1681,-0.9558,0.0078
2.9280,-0.1681,-0.9558,0.0078
2.9340,-0.1589,-0.9539,0.0237
2.9340,-0.1589,-0.9539,0.0237
2.9370,-0.1589,-0.9539,0.0237
2.9520,-0.1828,-0.9534,0.0371
2.9540,-0.1828,-0.9534,0.0371
2.9540,-0.1828,-0.9534,0.0371
2.9720,-0.1782,-0.9473,0.0274
2.9730,-0.1782,-0.9473,0.0274
2.9730,-0.1782,-0.9473,0.0274
2.9920,-0.1716,-0.9480,0.0296
2.9930,-0.1716,-0.9480,0.0296
2.9930,-0.1716,-0.9480,0.0296
2.9940,-0.1716,-0.9480,0.0296
2.9950,-0.1716,-0.9480,0.0296
3.0120,-0.1821,-0.9465,0.0279
3.0120,-0.1821,-0.9465,0.0279
3.0130,-0.1821,-0.9465,0.0279
3.0320,-0.1701,-0.9409,0.0225
3.0330,-0.1701,-0.9409,0.0225
3.0330,-0.1701,-0.9409,0.0225
3.0520,-0.1655,-0.9565,0.0169
3.0520,-0.1655,-0.9565,0.0169
3.0530,-0.1655,-0.9565,0.0169
3.0730,-0.1608,-0.9780,0.0540
3.0730,-0.1608,-0.9780,0.0540
3.0750,-0.1608,-0.9780,0.0540
3.0750,-0.1608,-0.9780,0.0540
3.0760,-0.1608,-0.9780,0.0540
3.0920,-0.1745,-0.9607,0.0616
3.0920,-0.1745,-0.9607,0.0616
3.0940,-0.1745,-0.9607,0.0616
3.1120,-0.1469,-0.9490,0.0291
3.1120,-0.1469,-0.9490,0.0291
3.1120,-0.1469,-0.9490,0.0291
3.1280,-0.1469,-0.9490,0.0291
3.1330,-0.1579,-0.9580,0.0149
3.1330,-0.1579,-0.9580,0.0149
3.1340,-0.1579,-0.9580,0.0149
3.1500,-0.1796,-0.9463,0.0020
3.1510,-0.1796,-0.9463,0.0020
3.1510,-0.1796,-0.9463,0.0020
3.1530,-0.1796,-0.9463,0.0020
3.1530,-0.1796,-0.9463,0.0020
3.1690,-0.1782,-0.9480,-0.0002
3.1700,-0.1782,-0.9480,-0.0002
3.1700,-0.1782,-0.9480,-0.0002
3.1890,-0.1882,-0.9453,0.0100
3.1900,-0.1882,-0.9453,0.0100
3.1900,-0.1882,-0.9453,0.0100
3.2090,-0.1699,-0.9409,0.0002
3.2090,-0.1699,-0.9409,0.0002
3.2090,-0.1699,-0.9409,0.0002
3.2290,-0.1332,-0.9526,0.0125
3.2290,-0.1332,-0.9526,0.0125
3.2290,-0.1332,-0.9526,0.0125
3.2320,-0.1332,-0.9526,0.0125
3.2320,-0.1332,-0.9526,0.0125
3.2490,-0.1403,-0.9546,0.0499
3.2490,-0.1403,-0.9546,0.0499
3.2490,-0.1403,-0.9546,0.0499
3.2690,-0.1479,-0.9583,0.0330
3.2690,-0.1479,-0.9583,0.0330
3.2690,-0.1479,-0.9583,0.0330
3.2890,-0.1383,-0.9568,0.0281
3.2890,-0.1383,-0.9568,0.0281
3.2890,-0.1383,-0.9568,0.0281
3.3100,-0.1469,-0.9531,0.0208
3.3100,-0.1469,-0.9531,0.0208
3.3110,-0.1469,-0.9531,0.0208
3.3120,-0.1469,-0.9531,0.0208
3.3120,-0.1469,-0.9531,0.0208
3.3590,-0.1469,-0.9531,0.0208
3.3590,-0.1713,-0.9580,-0.0034
3.3590,-0.1713,-0.9580,-0.0034
3.3590,-0.1713,-0.9580,-0.0034
3.3590,-0.1645,-0.9502,-0.0264
3.3590,-0.1645,-0.9502,-0.0264
3.3590,-0.1645,-0.9502,-0.0264
3.3690,-0.1430,-0.9548,-0.0010
3.3690,-0.1430,-0.9548,-0.0010
3.3690,-0.1430,-0.9548,-0.0010
3.3900,-0.1628,-0.9587,0.0249
3.3900,-0.1628,-0.9587,0.0249
3.3900,-0.1628,-0.9587,0.0249
3.3930,-0.1628,-0.9587,0.0249
3.3930,-0.1628,-0.9587,0.0249
3.4090,-0.1608,-0.9553,0.0340
3.4090,-0.1608,-0.9553,0.0340
3.4100,-0.1608,-0.9553,0.0340
3.4280,-0.1608,-0.9553,0.0340
3.4300,-0.1574,-0.9526,0.0477
3.4310,-0.1574,-0.9526,0.0477
3.4310,-0.1574,-0.9526,0.0477
3.4490,-0.1850,-0.9666,0.0692
3.4490,-0.1850,-0.9666,0.0692
3.4500,-0.1850,-0.9666,0.0692
3.4690,-0.1540,-0.9920,0.0706
3.4690,-0.1540,-0.9920,0.0706
3.4700,-0.1540,-0.9920,0.0706
3.4720,-0.1540,-0.9920,0.0706
3.4730,-0.1540,-0.9920,0.0706
3.4940,-0.1593,-0.9758,0.0557
3.4950,-0.1593,-0.9758,0.0557
3.4950,-0.1593,-0.9758,0.0557
3.5090,-0.1987,-0.9497,0.0203
3.5100,-0.1987,-0.9497,0.0203
3.5100,-0.1987,-0.9497,0.0203
3.5280,-0.1987,-0.9497,0.0203
3.5290,-0.1828,-0.9460,-0.0098
3.5290,-0.1828,-0.9460,-0.0098
3.5300,-0.1828,-0.9460,-0.0098
3.5500,-0.1818,-0.9299,-0.0215
3.5500,-0.1818,-0.9299,-0.0215
3.5510,-0.1818,-0.9299,-0.0215
3.5510,-0.1818,-0.9299,-0.0215
3.5510,-0.1818,-0.9299,-0.0215
3.5670,-0.2219,-0.9301,0.0166
3.5670,-0.2219,-0.9301,0.0166
3.5670,-0.2219,-0.9301,0.0166
3.5870,-0.1647,-0.9470,-0.0039
3.5870,-0.1647,-0.9470,-0.0039
3.5870,-0.1647,-0.9470,-0.0039
3.6060,-0.1168,-0.9595,-0.0029
3.6070,-0.1168,-0.9595,-0.0029
3.6070,-0.1168,-0.9595,-0.0029
3.6240,-0.1168,-0.9595,-0.0029
3.6260,-0.1576,-0.9473,0.0137
3.6260,-0.1576,-0.9473,0.0137
3.6270,-0.1576,-0.9473,0.0137
3.6300,-0.1576,-0.9473,0.0137
3.6300,-0.1576,-0.9473,0.0137
3.6470,-0.1571,-0.9414,0.0037
3.6470,-0.1571,-0.9414,0.0037
3.6480,-0.1571,-0.9414,0.0037
3.6670,-0.1307,-0.9475,-0.0064
3.6680,-0.1307,-0.9475,-0.0064
3.6680,-0.1307,-0.9475,-0.0064
3.6870,-0.1554,-0.9612,0.0261
3.6880,-0.1554,-0.9612,0.0261
3.6880,-0.1554,-0.9612,0.0261
3.7080,-0.1691,-0.9658,0.0472
3.7090,-0.1691,-0.9658,0.0472
3.7090,-0.1691,-0.9658,0.0472
3.7110,-0.1691,-0.9658,0.0472
3.7120,-0.1691,-0.9658,0.0472
3.7220,-0.1691,-0.9658,0.0472
3.7270,-0.1574,-0.9641,0.0472
3.7350,-0.1574,-0.9641,0.0472
3.7360,-0.1574,-0.9641,0.0472
3.7480,-0.1816,-0.9556,0.0430
3.7490,-0.1816,-0.9556,0.0430
3.7490,-0.1816,-0.9556,0.0430
3.7680,-0.2028,-0.9477,0.0232
3.7680,-0.2028,-0.9477,0.0232
3.7680,-0.2028,-0.9477,0.0232
3.7860,-0.1439,-0.9551,-0.0020
3.7860,-0.1439,-0.9551,-0.0020
3.7860,-0.1439,-0.9551,-0.0020
3.7890,-0.1439,-0.9551,-0.0020
3.7900,-0.1439,-0.9551,-0.0020
3.8050,-0.1393,-0.9666,0.0115
3.8050,-0.1393,-0.9666,0.0115
3.8060,-0.1393,-0.9666,0.0115
3.8250,-0.1596,-0.9592,0.0330
3.8250,-0.1596,-0.9592,0.0330
3.8260,-0.1596,-0.9592,0.0330
3.8450,-0.1422,-0.9470,0.0301
3.8450,-0.1422,-0.9470,0.0301
3.8450,-0.1422,-0.9470,0.0301
3.8650,-0.1439,-0.9426,0.0159
3.8650,-0.1439,-0.9426,0.0159
3.8950,-0.1439,-0.9426,0.0159
3.8950,-0.1439,-0.9426,0.0159
3.8950,-0.1439,-0.9426,0.0159
3.8950,-0.1476,-0.9587,0.0269
3.8950,-0.1476,-0.9587,0.0269
3.8950,-0.1476,-0.9587,0.0269
3.9050,-0.1677,-0.9595,0.0298
3.9060,-0.1677,-0.9595,0.0298
3.9060,-0.1677,-0.9595,0.0298
3.9190,-0.1677,-0.9595,0.0298
3.9250,-0.1921,-0.9443,0.0225
3.9250,-0.1921,-0.9443,0.0225
3.9250,-0.1921,-0.9443,0.0225
3.9460,-0.1791,-0.9451,0.0127
3.9460,-0.1791,-0.9451,0.0127
3.9460,-0.1791,-0.9451,0.0127
3.9490,-0.1791,-0.9451,0.0127
3.9500,-0.1791,-0.9451,0.0127
3.9650,-0.1564,-0.9585,0.0000
3.9650,-0.1564,-0.9585,0.0000
3.9660,-0.1564,-0.9585,0.0000
3.9860,-0.1650,-0.9492,-0.0086
3.9860,-0.1650,-0.9492,-0.0086
3.9860,-0.1650,-0.9492,-0.0086
4.0050,-0.1496,-0.9463,0.0122
4.0050,-0.1496,-0.9463,0.0122
4.0060,-0.1496,-0.9463,0.0122
4.0220,-0.1496,-0.9463,0.0122
4.0260,-0.1383,-0.9671,0.0345
4.0270,-0.1383,-0.9671,0.0345
4.0270,-0.1383,-0.9671,0.0345
4.0280,-0.1383,-0.9671,0.0345
4.0290,-0.1383,-0.9671,0.0345
4.0460,-0.1537,-0.9634,0.0481
4.0460,-0.1537,-0.9634,0.0481
4.0470,-0.1537,-0.9634,0.0481
4.0680,-0.1574,-0.9497,0.0313
4.0680,-0.1574,-0.9497,0.0313
4.0690,-0.1574,-0.9497,0.0313
4.0840,-0.1552,-0.9514,0.0149
4.0850,-0.1552,-0.9514,0.0149
4.0850,-0.1552,-0.9514,0.0149
4.1050,-0.1760,-0.9477,-0.0027
4.1050,-0.1760,-0.9477,-0.0027
4.1060,-0.1760,-0.9477,-0.0027
4.1070,-0.1760,-0.9477,-0.0027
4.1070,-0.1760,-0.9477,-0.0027
4.1210,-0.1760,-0.9477,-0.0027
4.1270,-0.1892,-0.9575,0.0029
4.1270,-0.1892,-0.9575,0.0029
4.1270,-0.1892,-0.9575,0.0029
4.1440,-0.1723,-0.9541,0.0159
4.1450,-0.1723,-0.9541,0.0159
4.1450,-0.1723,-0.9541,0.0159
4.1660,-0.1545,-0.9475,0.0137
4.1660,-0.1545,-0.9475,0.0137
4.1660,-0.1545,-0.9475,0.0137
4.1860,-0.1513,-0.9465,0.0068
4.1860,-0.1513,-0.9465,0.0068
4.1860,-0.1513,-0.9465,0.0068
4.1880,-0.1513,-0.9465,0.0068
4.1880,-0.1513,-0.9465,0.0068
4.2040,-0.1503,-0.9587,0.0401
4.2050,-0.1503,-0.9587,0.0401
4.2050,-0.1503,-0.9587,0.0401
4.2250,-0.1650,-0.9622,0.0242
4.2250,-0.1650,-0.9622,0.0242
4.2250,-0.1650,-0.9622,0.0242
4.2450,-0.1505,-0.9688,0.0208
4.2450,-0.1505,-0.9688,0.0208
4.2460,-0.1505,-0.9688,0.0208
4.2650,-0.1706,-0.9663,0.0425
4.2650,-0.1706,-0.9663,0.0425
4.2660,-0.1706,-0.9663,0.0425
4.2680,-0.1706,-0.9663,0.0425
4.2680,-0.1706,-0.9663,0.0425
4.2840,-0.1694,-0.9514,0.0428
4.2850,-0.1694,-0.9514,0.0428
4.2850,-0.1694,-0.9514,0.0428
4.3050,-0.1376,-0.9558,0.0308
4.3060,-0.1376,-0.9558,0.0308
4.3060,-0.1376,-0.9558,0.0308
4.3170,-0.1376,-0.9558,0.0308
4.3240,-0.1422,-0.9607,0.0186
4.3240,-0.1422,-0.9607,0.0186
4.3250,-0.1422,-0.9607,0.0186
4.3430,-0.1562,-0.9729,0.0491
4.3440,-0.1562,-0.9729,0.0491
4.3440,-0.1562,-0.9729,0.0491
4.3450,-0.1562,-0.9729,0.0491
4.3450,-0.1562,-0.9729,0.0491
4.3620,-0.1545,-0.9798,0.0557
4.3620,-0.1545,-0.9798,0.0557
4.3620,-0.1545,-0.9798,0.0557
4.3820,-0.1381,-0.9617,0.0332
4.3830,-0.1381,-0.9617,0.0332
4.3830,-0.1381,-0.9617,0.0332
4.4020,-0.1652,-0.9514,0.0174
4.4020,-0.1652,-0.9514,0.0174
4.4020,-0.1652,-0.9514,0.0174
4.4330,-0.1879,-0.9397,0.0090
4.4330,-0.1879,-0.9397,0.0090
4.4330,-0.1879,-0.9397,0.0090
4.4330,-0.1879,-0.9397,0.0090
4.4340,-0.1879,-0.9397,0.0090
4.4440,-0.1694,-0.9363,-0.0059
4.4440,-0.1694,-0.9363,-0.0059
4.4440,-0.1694,-0.9363,-0.0059
4.4620,-0.1422,-0.9345,-0.0059
4.4620,-0.1422,-0.9345,-0.0059
4.4620,-0.1422,-0.9345,-0.0059
4.4840,-0.1273,-0.9372,-0.0240
4.4840,-0.1273,-0.9372,-0.0240
4.4840,-0.1273,-0.9372,-0.0240
4.5030,-0.1261,-0.9497,-0.0232
4.5030,-0.1261,-0.9497,-0.0232
4.5030,-0.1261,-0.9497,-0.0232
4.5050,-0.1261,-0.9497,-0.0232
4.5050,-0.1261,-0.9497,-0.0232
4.5160,-0.1261,-0.9497,-0.0232
4.5220,-0.1420,-0.9602,0.0218
4.5220,-0.1420,-0.9602,0.0218
4.5230,-0.1420,-0.9602,0.0218
4.5430,-0.1378,-0.9587,0.0550
4.5440,-0.1378,-0.9587,0.0550
4.5440,-0.1378,-0.9587,0.0550
4.5620,-0.1615,-0.9573,0.0503
4.5620,-0.1615,-0.9573,0.0503
4.5620,-0.1615,-0.9573,0.0503
4.5830,-0.2053,-0.9497,0.0489
4.5830,-0.2053,-0.9497,0.0489
4.5840,-0.2053,-0.9497,0.0489
4.5840,-0.2053,-0.9497,0.0489
4.5840,-0.2053,-0.9497,0.0489
4.6020,-0.2038,-0.9477,0.0269
4.6020,-0.2038,-0.9477,0.0269
4.6020,-0.2038,-0.9477,0.0269
4.6220,-0.1721,-0.9551,0.0056
4.6220,-0.1721,-0.9551,0.0056
4.6220,-0.1721,-0.9551,0.0056
4.6420,-0.1672,-0.9539,-0.0071
4.6420,-0.1672,-0.9539,-0.0071
4.6420,-0.1672,-0.9539,-0.0071
4.6610,-0.1650,-0.9539,0.0059
4.6610,-0.1650,-0.9539,0.0059
4.6610,-0.1650,-0.9539,0.0059
4.6630,-0.1650,-0.9539,0.0059
4.6640,-0.1650,-0.9539,0.0059
4.6820,-0.1452,-0.9490,0.0271
4.6820,-0.1452,-0.9490,0.0271
4.6820,-0.1452,-0.9490,0.0271
4.7010,-0.1305,-0.9446,0.0308
4.7010,-0.1305,-0.9446,0.0308
4.7010,-0.1305,-0.9446,0.0308
4.7130,-0.1305,-0.9446,0.0308
4.7210,-0.1268,-0.9570,0.0313
4.7210,-0.1268,-0.9570,0.0313
4.7220,-0.1268,-0.9570,0.0313
4.7420,-0.1317,-0.9649,0.0298
4.7420,-0.1317,-0.9649,0.0298
4.7420,-0.1317,-0.9649,0.0298
4.7430,-0.1317,-0.9649,0.0298
4.7440,-0.1317,-0.9649,0.0298
4.7610,-0.1613,-0.9446,0.0305
4.7610,-0.1613,-0.9446,0.0305
4.7610,-0.1613,-0.9446,0.0305
4.7820,-0.1960,-0.9380,0.0310
4.7820,-0.1960,-0.9380,0.0310
4.7820,-0.1960,-0.9380,0.0310
4.8010,-0.1821,-0.9563,0.0357
4.8020,-0.1821,-0.9563,0.0357
4.8020,-0.1821,-0.9563,0.0357
4.8220,-0.1557,-0.9482,-0.0078
4.8220,-0.1557,-0.9482,-0.0078
4.8220,-0.1557,-0.9482,-0.0078
4.8230,-0.1557,-0.9482,-0.0078
4.8230,-0.1557,-0.9482,-0.0078
4.8410,-0.1359,-0.9507,-0.0029
4.8410,-0.1359,-0.9507,-0.0029
4.8410,-0.1359,-0.9507,-0.0029
4.8610,-0.1337,-0.9612,0.0240
4.8610,-0.1337,-0.9612,0.0240
4.8610,-0.1337,-0.9612,0.0240
4.8810,-0.1122,-0.9507,0.0166
4.8810,-0.1122,-0.9507,0.0166
4.8810,-0.1122,-0.9507,0.0166
4.9010,-0.1090,-0.9529,0.0159
4.9010,-0.1090,-0.9529,0.0159
4.9010,-0.1090,-0.9529,0.0159
4.9030,-0.1090,-0.9529,0.0159
4.9030,-0.1090,-0.9529,0.0159
4.9100,-0.1090,-0.9529,0.0159
4.9190,-0.1681,-0.9543,0.0330
4.9190,-0.1681,-0.9543,0.0330
4.9190,-0.1681,-0.9543,0.0330
4.9390,-0.1750,-0.9700,0.0442
4.9390,-0.1750,-0.9700,0.0442
4.9390,-0.1750,-0.9700,0.0442
4.9580,-0.1747,-0.9766,0.0599
4.9580,-0.1747,-0.9766,0.0599
4.9920,-0.1747,-0.9766,0.0599
4.9920,-0.1603,-0.9556,0.0327
4.9920,-0.1603,-0.9556,0.0327
4.9920,-0.1603,-0.9556,0.0327
4.9920,-0.1603,-0.9556,0.0327
4.9920,-0.1603,-0.9556,0.0327
4.9980,-0.1232,-0.9631,0.0134
4.9980,-0.1232,-0.9631,0.0134
4.9980,-0.1232,-0.9631,0.0134
5.0200,-0.1351,-0.9668,0.0200
5.0200,-0.1351,-0.9668,0.0200
5.0200,-0.1351,-0.9668,0.0200
5.0390,-0.1532,-0.9495,0.0313
5.0390,-0.1532,-0.9495,0.0313
5.0390,-0.1532,-0.9495,0.0313
5.0600,-0.1498,-0.9573,0.0193
5.0600,-0.1498,-0.9573,0.0193
5.0600,-0.1498,-0.9573,0.0193
5.0630,-0.1498,-0.9573,0.0193
5.0630,-0.1498,-0.9573,0.0193
5.0800,-0.1491,-0.9482,-0.0010
5.0800,-0.1491,-0.9482,-0.0010
5.0800,-0.1491,-0.9482,-0.0010
5.0990,-0.1476,-0.9414,0.0132
5.0990,-0.1476,-0.9414,0.0132
5.0990,-0.1476,-0.9414,0.0132
5.1090,-0.1476,-0.9414,0.0132
5.1190,-0.1413,-0.9455,0.0103
5.1190,-0.1413,-0.9455,0.0103
5.1190,-0.1413,-0.9455,0.0103
5.1390,-0.1508,-0.9499,0.0293
5.1390,-0.1508,-0.9499,0.0293
5.1390,-0.1508,-0.9499,0.0293
5.1400,-0.1508,-0.9499,0.0293
5.1410,-0.1508,-0.9499,0.0293
5.1580,-0.1662,-0.9631,0.0369
5.1580,-0.1662,-0.9631,0.0369
5.1580,-0.1662,-0.9631,0.0369
5.1780,-0.1740,-0.9692,0.0411
5.1780,-0.1740,-0.9692,0.0411
5.1780,-0.1740,-0.9692,0.0411
5.1980,-0.1718,-0.9673,0.0266
5.1980,-0.1718,-0.9673,0.0266
5.1980,-0.1718,-0.9673,0.0266
5.2180,-0.1505,-0.9543,0.0200
5.2180,-0.1505,-0.9543,0.0200
5.2180,-0.1505,-0.9543,0.0200
5.2210,-0.1505,-0.9543,0.0200
5.2210,-0.1505,-0.9543,0.0200
5.2370,-0.1515,-0.9443,0.0137
5.2370,-0.1515,-0.9443,0.0137
5.2370,-0.1515,-0.9443,0.0137
5.2570,-0.1742,-0.9424,0.0144
5.2570,-0.1742,-0.9424,0.0144
5.2570,-0.1742,-0.9424,0.0144
5.2770,-0.1606,-0.9468,0.0279
5.2770,-0.1606,-0.9468,0.0279
5.2770,-0.1606,-0.9468,0.0279
5.2970,-0.1325,-0.9563,0.0279
5.2970,-0.1325,-0.9563,0.0279
5.2970,-0.1325,-0.9563,0.0279
5.3010,-0.1325,-0.9563,0.0279
5.3010,-0.1325,-0.9563,0.0279
5.3080,-0.1325,-0.9563,0.0279
5.3170,-0.1300,-0.9561,0.0193
5.3170,-0.1300,-0.9561,0.0193
5.3170,-0.1300,-0.9561,0.0193
5.3380,-0.1479,-0.9463,0.0198
5.3380,-0.1479,-0.9463,0.0198
5.3380,-0.1479,-0.9463,0.0198
5.3570,-0.1733,-0.9436,0.0374
5.3570,-0.1733,-0.9436,0.0374
5.3570,-0.1733,-0.9436,0.0374
5.3770,-0.1994,-0.9587,0.0484
5.3780,-0.1994,-0.9587,0.0484
5.3780,-0.1994,-0.9587,0.0484
5.3800,-0.1994,-0.9587,0.0484
5.3800,-0.1994,-0.9587,0.0484
5.3970,-0.1970,-0.9499,0.0205
5.3970,-0.1970,-0.9499,0.0205
5.3970,-0.1970,-0.9499,0.0205
5.4170,-0.1625,-0.9590,0.0125
5.4170,-0.1625,-0.9590,0.0125
5.4170,-0.1625,-0.9590,0.0125
5.4370,-0.1628,-0.9595,0.0110
5.4380,-0.1628,-0.9595,0.0110
5.4390,-0.1628,-0.9595,0.0110
5.4560,-0.1589,-0.9453,0.0171
5.4560,-0.1589,-0.9453,0.0171
5.4570,-0.1589,-0.9453,0.0171
5.4590,-0.1589,-0.9453,0.0171
5.4590,-0.1589,-0.9453,0.0171
5.4770,-0.1031,-0.9504,0.0181
5.4780,-0.1031,-0.9504,0.0181
5.4780,-0.1031,-0.9504,0.0181
5.4950,-0.1156,-0.9431,0.0193
5.4950,-0.1156,-0.9431,0.0193
5.4950,-0.1156,-0.9431,0.0193
5.5050,-0.1156,-0.9431,0.0193
5.5150,-0.1349,-0.9641,0.0474
5.5590,-0.1349,-0.9641,0.0474
5.5590,-0.1349,-0.9641,0.0474
5.5590,-0.1234,-0.9746,0.0486
5.5590,-0.1234,-0.9746,0.0486
5.5590,-0.1234,-0.9746,0.0486
5.5600,-0.1234,-0.9746,0.0486
5.5600,-0.1234,-0.9746,0.0486
5.5600,-0.1217,-0.9631,0.0371
5.5600,-0.1217,-0.9631,0.0371
5.5600,-0.1217,-0.9631,0.0371
5.5760,-0.1554,-0.9521,0.0264
5.5760,-0.1554,-0.9521,0.0264
5.5760,-0.1554,-0.9521,0.0264
5.5960,-0.1725,-0.9585,0.0303
5.5960,-0.1725,-0.9585,0.0303
5.5960,-0.1725,-0.9585,0.0303
5.6160,-0.1633,-0.9612,0.0337
5.6170,-0.1633,-0.9612,0.0337
5.6170,-0.1633,-0.9612,0.0337
5.6190,-0.1633,-0.9612,0.0337
5.6190,-0.1633,-0.9612,0.0337
5.6350,-0.1703,-0.9495,0.0130
5.6360,-0.1703,-0.9495,0.0130
5.6360,-0.1703,-0.9495,0.0130
5.6530,-0.1738,-0.9292,-0.0181
5.6540,-0.1738,-0.9292,-0.0181
5.6540,-0.1738,-0.9292,-0.0181
5.6750,-0.1596,-0.9424,-0.0149
5.6760,-0.1596,-0.9424,-0.0149
5.6760,-0.1596,-0.9424,-0.0149
5.6970,-0.1813,-0.9485,0.0093
5.6980,-0.1813,-0.9485,0.0093
5.6980,-0.1813,-0.9485,0.0093
5.6980,-0.1813,-0.9485,0.0093
5.6980,-0.1813,-0.9485,0.0093
5.7040,-0.1813,-0.9485,0.0093
5.7150,-0.1686,-0.9438,0.0086
5.7150,-0.1686,-0.9438,0.0086
5.7150,-0.1686,-0.9438,0.0086
5.7350,-0.1422,-0.9685,0.0305
5.7500,-0.1422,-0.9685,0.0305
5.7510,-0.1422,-0.9685,0.0305
5.7770,-0.1662,-0.9697,0.0420
5.7880,-0.1662,-0.9697,0.0420
5.7880,-0.1662,-0.9697,0.0420
5.8160,-0.1542,-0.9639,0.0440
5.8170,-0.1542,-0.9639,0.0440
5.8170,-0.1542,-0.9639,0.0440
5.8200,-0.1542,-0.9639,0.0440
5.8200,-0.1542,-0.9639,0.0440
5.8210,-0.1391,-0.9480,0.0364
5.8240,-0.1562,-0.9507,0.0491
5.8250,-0.1562,-0.9507,0.0491
5.8260,-0.1562,-0.9507,0.0491
5.8260,-0.1562,-0.9507,0.0491
5.8270,-0.1562,-0.9507,0.0491
5.8350,-0.1422,-0.9514,0.0205
5.8360,-0.1422,-0.9514,0.0205
5.8360,-0.1422,-0.9514,0.0205
5.8550,-0.1215,-0.9558,0.0037
5.8550,-0.1215,-0.9558,0.0037
5.8560,-0.1215,-0.9558,0.0037
5.8570,-0.1215,-0.9558,0.0037
5.8570,-0.1215,-0.9558,0.0037
5.8740,-0.1518,-0.9587,0.0318
5.8750,-0.1518,-0.9587,0.0318
5.8750,-0.1518,-0.9587,0.0318
5.8970,-0.1613,-0.9570,0.0335
5.8970,-0.1613,-0.9570,0.0335
5.8980,-0.1613,-0.9570,0.0335
5.9050,-0.1613,-0.9570,0.0335
5.9150,-0.1373,-0.9578,0.0032
5.9150,-0.1373,-0.9578,0.0032
5.9160,-0.1373,-0.9578,0.0032
5.9360,-0.1642,-0.9548,0.0193
5.9360,-0.1642,-0.9548,0.0193
5.9370,-0.1642,-0.9548,0.0193
5.9370,-0.1642,-0.9548,0.0193
5.9380,-0.1642,-0.9548,0.0193
5.9540,-0.1818,-0.9499,0.0225
5.9550,-0.1818,-0.9499,0.0225
5.9550,-0.1818,-0.9499,0.0225
5.9740,-0.1725,-0.9526,0.0193
5.9750,-0.1725,-0.9526,0.0193
5.9750,-0.1725,-0.9526,0.0193
5.9940,-0.2063,-0.9570,0.0164
5.9950,-0.2063,-0.9570,0.0164
5.9950,-0.2063,-0.9570,0.0164
6.0140,-0.1762,-0.9509,0.0227
6.0140,-0.1762,-0.9509,0.0227
6.0150,-0.1762,-0.9509,0.0227
6.0170,-0.1762,-0.9509,0.0227
6.0190,-0.1762,-0.9509,0.0227
6.0340,-0.1183,-0.9609,0.0098
6.0360,-0.1183,-0.9609,0.0098
6.0370,-0.1183,-0.9609,0.0098
6.0540,-0.1259,-0.9517,0.0086
6.0550,-0.1259,-0.9517,0.0086
6.0550,-0.1259,-0.9517,0.0086
6.0780,-0.1454,-0.9521,0.0264
6.1450,-0.1454,-0.9521,0.0264
6.1450,-0.1454,-0.9521,0.0264
6.1450,-0.1537,-0.9531,0.0264
6.1450,-0.1537,-0.9531,0.0264
6.1450,-0.1537,-0.9531,0.0264
6.1450,-0.1537,-0.9531,0.0264
6.1460,-0.1537,-0.9531,0.0264
6.1460,-0.1537,-0.9531,0.0264
6.1460,-0.1425,-0.9499,0.0120
6.1460,-0.1425,-0.9499,0.0120
6.1460,-0.1425,-0.9499,0.0120
6.1460,-0.1562,-0.9580,0.0059
6.1460,-0.1562,-0.9580,0.0059
6.1460,-0.1562,-0.9580,0.0059
6.1510,-0.1918,-0.9683,0.0464
6.1510,-0.1918,-0.9683,0.0464
6.1520,-0.1918,-0.9683,0.0464
6.1710,-0.1899,-0.9653,0.0535
6.1710,-0.1899,-0.9653,0.0535
6.1720,-0.1899,-0.9653,0.0535
6.1740,-0.1899,-0.9653,0.0535
6.1740,-0.1899,-0.9653,0.0535
6.1910,-0.1464,-0.9629,0.0264
6.1910,-0.1464,-0.9629,0.0264
6.1910,-0.1464,-0.9629,0.0264
6.2110,-0.1637,-0.9536,0.0012
6.2110,-0.1637,-0.9536,0.0012
6.2110,-0.1637,-0.9536,0.0012
6.2320,-0.1845,-0.9375,0.0090
6.2320,-0.1845,-0.9375,0.0090
6.2320,-0.1845,-0.9375,0.0090
6.2520,-0.1689,-0.9333,0.0042
6.2520,-0.1689,-0.9333,0.0042
6.2520,-0.1689,-0.9333,0.0042
6.2550,-0.1689,-0.9333,0.0042
6.2560,-0.1689,-0.9333,0.0042
6.2720,-0.1740,-0.9441,0.0200
6.2720,-0.1740,-0.9441,0.0200
6.2730,-0.1740,-0.9441,0.0200
6.2920,-0.2031,-0.9548,0.0095
6.2920,-0.2031,-0.9548,0.0095
6.2930,-0.2031,-0.9548,0.0095
6.3030,-0.2031,-0.9548,0.0095
6.3110,-0.1322,-0.9690,-0.0127
6.3120,-0.1322,-0.9690,-0.0127
6.3120,-0.1322,-0.9690,-0.0127
6.3310,-0.1327,-0.9700,0.0188
6.3320,-0.1327,-0.9700,0.0188
6.3320,-0.1327,-0.9700,0.0188
6.3340,-0.1327,-0.9700,0.0188
6.3350,-0.1327,-0.9700,0.0188
6.3520,-0.1843,-0.9583,0.0437
6.3520,-0.1843,-0.9583,0.0437
6.3520,-0.1843,-0.9583,0.0437
6.3720,-0.1608,-0.9617,0.0396
6.3720,-0.1608,-0.9617,0.0396
6.3730,-0.1608,-0.9617,0.0396
6.3920,-0.1488,-0.9517,0.0200
6.3920,-0.1488,-0.9517,0.0200
6.3930,-0.1488,-0.9517,0.0200
6.4100,-0.1721,-0.9389,0.0174
6.4110,-0.1721,-0.9389,0.0174
6.4110,-0.1721,-0.9389,0.0174
6.4140,-0.1721,-0.9389,0.0174
6.4140,-0.1721,-0.9389,0.0174
6.4310,-0.1574,-0.9399,0.0042
6.4310,-0.1574,-0.9399,0.0042
6.4320,-0.1574,-0.9399,0.0042
6.4470,-0.1574,-0.9399,0.0042
6.4590,-0.1557,-0.9460,0.0071
6.4600,-0.1557,-0.9460,0.0071
6.4600,-0.1557,-0.9460,0.0071
6.4800,-0.1633,-0.9480,0.0164
6.4800,-0.1633,-0.9480,0.0164
6.4800,-0.1633,-0.9480,0.0164
6.4930,-0.1633,-0.9480,0.0164
6.4930,-0.1598,-0.9514,0.0186
6.4930,-0.1598,-0.9514,0.0186
6.4940,-0.1598,-0.9514,0.0186
6.5000,-0.1598,-0.9514,0.0186
6.5090,-0.1413,-0.9646,0.0220
6.5090,-0.1413,-0.9646,0.0220
6.5090,-0.1413,-0.9646,0.0220
6.5290,-0.1545,-0.9651,0.0225
6.5290,-0.1545,-0.9651,0.0225
6.5290,-0.1545,-0.9651,0.0225
6.5490,-0.1496,-0.9634,0.0269
6.5490,-0.1496,-0.9634,0.0269
6.5490,-0.1496,-0.9634,0.0269
6.5690,-0.1435,-0.9568,0.0210
6.5690,-0.1435,-0.9568,0.0210
6.5690,-0.1435,-0.9568,0.0210
6.5730,-0.1435,-0.9568,0.0210
6.5730,-0.1435,-0.9568,0.0210
6.5890,-0.1745,-0.9323,0.0210
6.5890,-0.1745,-0.9323,0.0210
6.5900,-0.1745,-0.9323,0.0210
6.6090,-0.1921,-0.9429,0.0298
6.6090,-0.1921,-0.9429,0.0298
6.6100,-0.1921,-0.9429,0.0298
6.6470,-0.1664,-0.9629,0.0095
6.6480,-0.1664,-0.9629,0.0095
6.6480,-0.1664,-0.9629,0.0095
6.6500,-0.1398,-0.9497,0.0044
6.6500,-0.1398,-0.9497,0.0044
6.6500,-0.1398,-0.9497,0.0044
6.6520,-0.1398,-0.9497,0.0044
6.6520,-0.1398,-0.9497,0.0044
6.6690,-0.1505,-0.9583,0.0203
6.6690,-0.1505,-0.9583,0.0203
6.6690,-0.1505,-0.9583,0.0203
6.6890,-0.1623,-0.9627,0.0274
6.6890,-0.1623,-0.9627,0.0274
6.6890,-0.1623,-0.9627,0.0274
6.6980,-0.1623,-0.9627,0.0274
6.7090,-0.1523,-0.9556,0.0176
6.7090,-0.1523,-0.9556,0.0176
6.7090,-0.1523,-0.9556,0.0176
6.7280,-0.1444,-0.9526,0.0134
6.7280,-0.1444,-0.9526,0.0134
6.7290,-0.1444,-0.9526,0.0134
6.7310,-0.1444,-0.9526,0.0134
6.7320,-0.1444,-0.9526,0.0134
6.7480,-0.1674,-0.9578,0.0225
6.7480,-0.1674,-0.9578,0.0225
6.7480,-0.1674,-0.9578,0.0225
6.7680,-0.1706,-0.9531,0.0279
6.7680,-0.1706,-0.9531,0.0279
6.7680,-0.1706,-0.9531,0.0279
6.7880,-0.1625,-0.9541,0.0415
6.7890,-0.1625,-0.9541,0.0415
6.7890,-0.1625,-0.9541,0.0415
6.8080,-0.1479,-0.9541,0.0345
6.8080,-0.1479,-0.9541,0.0345
6.8080,-0.1479,-0.9541,0.0345
6.8110,-0.1479,-0.9541,0.0345
6.8110,-0.1479,-0.9541,0.0345
6.8280,-0.1435,-0.9512,0.0112
6.8280,-0.1435,-0.9512,0.0112
6.8280,-0.1435,-0.9512,0.0112
6.8470,-0.1601,-0.9504,0.0017
6.8470,-0.1601,-0.9504,0.0017
6.8470,-0.1601,-0.9504,0.0017
6.8680,-0.1647,-0.9568,0.0071
6.8680,-0.1647,-0.9568,0.0071
6.8680,-0.1647,-0.9568,0.0071
6.8880,-0.1657,-0.9578,0.0010
6.8890,-0.1657,-0.9578,0.0010
6.8890,-0.1657,-0.9578,0.0010
6.8910,-0.1657,-0.9578,0.0010
6.8910,-0.1657,-0.9578,0.0010
6.8960,-0.1657,-0.9578,0.0010
6.9070,-0.1488,-0.9490,-0.0049
6.9080,-0.1488,-0.9490,-0.0049
6.9090,-0.1488,-0.9490,-0.0049
6.9270,-0.1540,-0.9245,-0.0149
6.9290,-0.1540,-0.9245,-0.0149
6.9300,-0.1540,-0.9245,-0.0149
6.9480,-0.1887,-0.9343,0.0120
6.9490,-0.1887,-0.9343,0.0120
6.9490,-0.1887,-0.9343,0.0120
6.9690,-0.1784,-0.9558,0.0283
6.9700,-0.1784,-0.9558,0.0283
6.9710,-0.1784,-0.9558,0.0283
6.9730,-0.1784,-0.9558,0.0283
6.9730,-0.1784,-0.9558,0.0283
6.9870,-0.1613,-0.9414,0.0213
6.9880,-0.1613,-0.9414,0.0213
6.9890,-0.1613,-0.9414,0.0213
7.0080,-0.1725,-0.9658,0.0288
7.0090,-0.1725,-0.9658,0.0288
7.0090,-0.1725,-0.9658,0.0288
7.0270,-0.1760,-0.9722,0.0313
7.0280,-0.1760,-0.9722,0.0313
7.0290,-0.1760,-0.9722,0.0313
7.0480,-0.1535,-0.9739,0.0283
7.0490,-0.1535,-0.9739,0.0283
7.0490,-0.1535,-0.9739,0.0283
7.0510,-0.1535,-0.9739,0.0283
7.0510,-0.1535,-0.9739,0.0283
7.0680,-0.1557,-0.9519,0.0271
7.0690,-0.1557,-0.9519,0.0271
7.0700,-0.1557,-0.9519,0.0271
7.0900,-0.1723,-0.9480,0.0242
7.0920,-0.1723,-0.9480,0.0242
7.0920,-0.1723,-0.9480,0.0242
7.0950,-0.1723,-0.9480,0.0242
7.1070,-0.1540,-0.9558,0.0142
7.1080,-0.1540,-0.9558,0.0142
7.1080,-0.1540,-0.9558,0.0142
7.1300,-0.1515,-0.9605,0.0100
7.1310,-0.1515,-0.9605,0.0100
7.1310,-0.1515,-0.9605,0.0100
7.1310,-0.1515,-0.9605,0.0100
7.1320,-0.1515,-0.9605,0.0100
7.1480,-0.1479,-0.9482,0.0073
7.1490,-0.1479,-0.9482,0.0073
7.1490,-0.1479,-0.9482,0.0073
7.1670,-0.1427,-0.9409,0.0086
7.1670,-0.1427,-0.9409,0.0086
7.2220,-0.1427,-0.9409,0.0086
7.2230,-0.1564,-0.9463,0.0240
7.2230,-0.1564,-0.9463,0.0240
7.2230,-0.1564,-0.9463,0.0240
7.2240,-0.1796,-0.9602,0.0320
7.2240,-0.1796,-0.9602,0.0320
7.2240,-0.1796,-0.9602,0.0320
7.2240,-0.1796,-0.9602,0.0320
7.2240,-0.1796,-0.9602,0.0320
7.2270,-0.1691,-0.9595,0.0103
7.2270,-0.1691,-0.9595,0.0103
7.2270,-0.1691,-0.9595,0.0103
7.2460,-0.1701,-0.9614,0.0159
7.2460,-0.1701,-0.9614,0.0159
7.2470,-0.1701,-0.9614,0.0159
7.2650,-0.1647,-0.9563,0.0215
7.2650,-0.1647,-0.9563,0.0215
7.2660,-0.1647,-0.9563,0.0215
7.2850,-0.1403,-0.9487,0.0042
7.2850,-0.1403,-0.9487,0.0042
7.2850,-0.1403,-0.9487,0.0042
7.2880,-0.1403,-0.9487,0.0042
7.2880,-0.1403,-0.9487,0.0042
7.2920,-0.1403,-0.9487,0.0042
7.3040,-0.1413,-0.9485,-0.0093
7.3050,-0.1413,-0.9485,-0.0093
7.3050,-0.1413,-0.9485,-0.0093
7.3240,-0.1701,-0.9548,0.0200
7.3240,-0.1701,-0.9548,0.0200
7.3250,-0.1701,-0.9548,0.0200
7.3440,-0.1923,-0.9666,0.0415
7.3450,-0.1923,-0.9666,0.0415
7.3450,-0.1923,-0.9666,0.0415
7.3640,-0.1713,-0.9600,0.0362
7.3650,-0.1713,-0.9600,0.0362
7.3650,-0.1713,-0.9600,0.0362
7.3680,-0.1713,-0.9600,0.0362
7.3680,-0.1713,-0.9600,0.0362
7.3840,-0.1593,-0.9448,0.0257
7.3840,-0.1593,-0.9448,0.0257
7.3850,-0.1593,-0.9448,0.0257
7.4040,-0.1525,-0.9534,0.0115
7.4050,-0.1525,-0.9534,0.0115
7.4050,-0.1525,-0.9534,0.0115
7.4240,-0.1530,-0.9680,0.0112
7.4250,-0.1530,-0.9680,0.0112
7.4250,-0.1530,-0.9680,0.0112
7.4470,-0.1706,-0.9563,0.0039
7.4480,-0.1706,-0.9563,0.0039
7.4490,-0.1706,-0.9563,0.0039
7.4490,-0.1706,-0.9563,0.0039
7.4490,-0.1706,-0.9563,0.0039
7.4660,-0.1525,-0.9407,-0.0127
7.4670,-0.1525,-0.9407,-0.0127
7.4670,-0.1525,-0.9407,-0.0127
7.4870,-0.1307,-0.9419,-0.0225
7.4870,-0.1307,-0.9419,-0.0225
7.4880,-0.1307,-0.9419,-0.0225
7.4910,-0.1307,-0.9419,-0.0225
7.5070,-0.1554,-0.9397,-0.0015
7.5070,-0.1554,-0.9397,-0.0015
7.5080,-0.1554,-0.9397,-0.0015
7.5270,-0.1801,-0.9565,0.0369
7.5290,-0.1801,-0.9565,0.0369
7.5290,-0.1801,-0.9565,0.0369
7.5300,-0.1801,-0.9565,0.0369
7.5300,-0.1801,-0.9565,0.0369
7.5460,-0.1984,-0.9455,0.0545
7.5460,-0.1984,-0.9455,0.0545
7.5470,-0.1984,-0.9455,0.0545
7.5670,-0.1542,-0.9499,0.0415
7.5680,-0.1542,-0.9499,0.0415
7.5690,-0.1542,-0.9499,0.0415
7.5860,-0.1603,-0.9680,0.0196
7.5860,-0.1603,-0.9680,0.0196
7.5870,-0.1603,-0.9680,0.0196
7.5960,-0.1603,-0.9680,0.0196
7.6090,-0.2024,-0.9714,-0.0017
7.6100,-0.2024,-0.9714,-0.0017
7.6110,-0.2024,-0.9714,-0.0017
7.6120,-0.2024,-0.9714,-0.0017
7.6130,-0.2024,-0.9714,-0.0017
7.6280,-0.1896,-0.9568,-0.0073
7.6290,-0.1896,-0.9568,-0.0073
7.6290,-0.1896,-0.9568,-0.0073
7.6460,-0.1584,-0.9458,0.0115
7.6470,-0.1584,-0.9458,0.0115
7.6470,-0.1584,-0.9458,0.0115
7.6650,-0.1557,-0.9438,0.0283
7.6660,-0.1557,-0.9438,0.0283
7.6680,-0.1557,-0.9438,0.0283
7.6880,-0.1510,-0.9460,0.0283
7.6890,-0.1510,-0.9460,0.0283
7.6890,-0.1510,-0.9460,0.0283
7.6900,-0.1510,-0.9460,0.0283
7.6900,-0.1510,-0.9460,0.0283
7.6910,-0.1510,-0.9460,0.0283
7.7050,-0.1420,-0.9487,0.0090
7.7060,-0.1420,-0.9487,0.0090
7.7060,-0.1420,-0.9487,0.0090
7.7920,-0.1466,-0.9644,-0.0042
7.7920,-0.1466,-0.9644,-0.0042
7.7920,-0.1466,-0.9644,-0.0042
7.7920,-0.1779,-0.9600,0.0056
7.7930,-0.1779,-0.9600,0.0056
7.7930,-0.1779,-0.9600,0.0056
7.7930,-0.1657,-0.9453,0.0301
7.7930,-0.1657,-0.9453,0.0301
7.7930,-0.1657,-0.9453,0.0301
7.7940,-0.1657,-0.9453,0.0301
7.7940,-0.1657,-0.9453,0.0301
7.7940,-0.1432,-0.9517,0.0227
7.7940,-0.1432,-0.9517,0.0227
7.7940,-0.1432,-0.9517,0.0227
7.7950,-0.1432,-0.9517,0.0227
7.8030,-0.1523,-0.9548,0.0007
7.8040,-0.1523,-0.9548,0.0007
7.8040,-0.1523,-0.9548,0.0007
7.8230,-0.1569,-0.9583,0.0037
7.8230,-0.1569,-0.9583,0.0037
7.8240,-0.1569,-0.9583,0.0037
7.8460,-0.1530,-0.9578,0.0022
7.8460,-0.1530,-0.9578,0.0022
7.8460,-0.1530,-0.9578,0.0022
7.8470,-0.1530,-0.9578,0.0022
7.8470,-0.1530,-0.9578,0.0022
7.8630,-0.1647,-0.9517,0.0169
7.8630,-0.1647,-0.9517,0.0169
7.8630,-0.1647,-0.9517,0.0169
7.8810,-0.1679,-0.9475,0.0276
7.8810,-0.1679,-0.9475,0.0276
7.8810,-0.1679,-0.9475,0.0276
7.8870,-0.1679,-0.9475,0.0276
7.9010,-0.1686,-0.9407,0.0051
7.9010,-0.1686,-0.9407,0.0051
7.9020,-0.1686,-0.9407,0.0051
7.9210,-0.1606,-0.9411,-0.0056
7.9210,-0.1606,-0.9411,-0.0056
7.9210,-0.1606,-0.9411,-0.0056
7.9250,-0.1606,-0.9411,-0.0056
7.9250,-0.1606,-0.9411,-0.0056
7.9410,-0.1633,-0.9592,0.0103
7.9410,-0.1633,-0.9592,0.0103
7.9410,-0.1633,-0.9592,0.0103
7.9600,-0.1904,-0.9734,0.0374
7.9600,-0.1904,-0.9734,0.0374
7.9610,-0.1904,-0.9734,0.0374
7.9810,-0.1615,-0.9573,0.0318
7.9810,-0.1615,-0.9573,0.0318
7.9820,-0.1615,-0.9573,0.0318
7.9890,-0.1615,-0.9573,0.0318
8.0000,-0.1285,-0.9539,0.0257
8.0010,-0.1285,-0.9539,0.0257
8.0010,-0.1285,-0.9539,0.0257
8.0040,-0.1285,-0.9539,0.0257
8.0040,-0.1285,-0.9539,0.0257
8.0220,-0.1488,-0.9558,0.0174
8.0220,-0.1488,-0.9558,0.0174
8.0220,-0.1488,-0.9558,0.0174
8.0450,-0.1677,-0.9517,0.0002
8.0450,-0.1677,-0.9517,0.0002
8.0460,-0.1677,-0.9517,0.0002
8.0610,-0.1637,-0.9519,-0.0142
8.0610,-0.1637,-0.9519,-0.0142
8.0620,-0.1637,-0.9519,-0.0142
8.0820,-0.1483,-0.9517,-0.0051
8.0830,-0.1483,-0.9517,-0.0051
8.0840,-0.1483,-0.9517,-0.0051
8.0850,-0.1483,-0.9517,-0.0051
8.0860,-0.1483,-0.9517,-0.0051
8.0860,-0.1483,-0.9517,-0.0051
8.1020,-0.1398,-0.9480,0.0032
8.1020,-0.1398,-0.9480,0.0032
8.1020,-0.1398,-0.9480,0.0032
8.1230,-0.1483,-0.9468,-0.0049
8.1230,-0.1483,-0.9468,-0.0049
8.1230,-0.1483,-0.9468,-0.0049
8.1430,-0.1662,-0.9519,-0.0073
8.1440,-0.1662,-0.9519,-0.0073
8.1450,-0.1662,-0.9519,-0.0073
8.1650,-0.1694,-0.9570,0.0210
8.1660,-0.1694,-0.9570,0.0210
8.1670,-0.1694,-0.9570,0.0210
8.1680,-0.1694,-0.9570,0.0210
8.1690,-0.1694,-0.9570,0.0210
8.1810,-0.1830,-0.9502,0.0472
8.1810,-0.1830,-0.9502,0.0472
8.1820,-0.1830,-0.9502,0.0472
8.1910,-0.1830,-0.9502,0.0472
8.2000,-0.2024,-0.9458,0.0457
8.2020,-0.2024,-0.9458,0.0457
8.2030,-0.2024,-0.9458,0.0457
8.2200,-0.1953,-0.9556,0.0130
8.2210,-0.1953,-0.9556,0.0130
8.2210,-0.1953,-0.9556,0.0130
8.2410,-0.1774,-0.9666,0.0056
8.2420,-0.1774,-0.9666,0.0056
8.2430,-0.1774,-0.9666,0.0056
8.2450,-0.1774,-0.9666,0.0056
8.2460,-0.1774,-0.9666,0.0056
8.3120,-0.1747,-0.9592,0.0000
8.3120,-0.1747,-0.9592,0.0000
8.3120,-0.1747,-0.9592,0.0000
8.3120,-0.1620,-0.9568,0.0032
8.3120,-0.1620,-0.9568,0.0032
8.3130,-0.1620,-0.9568,0.0032
8.3130,-0.1620,-0.9568,0.0032
8.3130,-0.1601,-0.9622,0.0313
8.3130,-0.1601,-0.9622,0.0313
8.3130,-0.1601,-0.9622,0.0313
8.3200,-0.1674,-0.9517,0.0269
8.3200,-0.1674,-0.9517,0.0269
8.3200,-0.1674,-0.9517,0.0269
8.3220,-0.1674,-0.9517,0.0269
8.3220,-0.1674,-0.9517,0.0269
8.3390,-0.1310,-0.9509,0.0139
8.3390,-0.1310,-0.9509,0.0139
8.3390,-0.1310,-0.9509,0.0139
8.3590,-0.1212,-0.9678,0.0152
8.3590,-0.1212,-0.9678,0.0152
8.3590,-0.1212,-0.9678,0.0152
8.3790,-0.1628,-0.9627,0.0222
8.3790,-0.1628,-0.9627,0.0222
8.3800,-0.1628,-0.9627,0.0222
8.3870,-0.1628,-0.9627,0.0222
8.4000,-0.1896,-0.9543,0.0230
8.4010,-0.1896,-0.9543,0.0230
8.4050,-0.1896,-0.9543,0.0230
8.4060,-0.1896,-0.9543,0.0230
8.4070,-0.1896,-0.9543,0.0230
8.4220,-0.1718,-0.9526,0.0200
8.4230,-0.1718,-0.9526,0.0200
8.4230,-0.1718,-0.9526,0.0200
8.4450,-0.1586,-0.9433,-0.0042
8.4460,-0.1586,-0.9433,-0.0042
8.4460,-0.1586,-0.9433,-0.0042
8.4580,-0.1708,-0.9331,0.0061
8.4590,-0.1708,-0.9331,0.0061
8.4590,-0.1708,-0.9331,0.0061
8.4780,-0.1784,-0.9424,-0.0034
8.4780,-0.1784,-0.9424,-0.0034
8.4780,-0.1784,-0.9424,-0.0034
8.4830,-0.1784,-0.9424,-0.0034
8.4830,-0.1784,-0.9424,-0.0034
8.4840,-0.1784,-0.9424,-0.0034
8.4970,-0.1547,-0.9541,-0.0115
8.4970,-0.1547,-0.9541,-0.0115
8.4980,-0.1547,-0.9541,-0.0115
8.5170,-0.1596,-0.9524,-0.0064
8.5170,-0.1596,-0.9524,-0.0064
8.5170,-0.1596,-0.9524,-0.0064
8.5370,-0.1652,-0.9463,0.0176
8.5380,-0.1652,-0.9463,0.0176
8.5380,-0.1652,-0.9463,0.0176
8.5580,-0.1520,-0.9490,0.0261
8.5580,-0.1520,-0.9490,0.0261
8.5580,-0.1520,-0.9490,0.0261
8.5620,-0.1520,-0.9490,0.0261
8.5620,-0.1520,-0.9490,0.0261
8.5770,-0.1547,-0.9531,0.0090
8.5770,-0.1547,-0.9531,0.0090
8.5770,-0.1547,-0.9531,0.0090
8.5980,-0.1576,-0.9592,0.0093
8.5980,-0.1576,-0.9592,0.0093
8.5980,-0.1576,-0.9592,0.0093
8.6190,-0.1523,-0.9548,0.0193
8.6190,-0.1523,-0.9548,0.0193
8.6200,-0.1523,-0.9548,0.0193
8.6380,-0.1630,-0.9539,0.0137
8.6380,-0.1630,-0.9539,0.0137
8.6390,-0.1630,-0.9539,0.0137
8.6410,-0.1630,-0.9539,0.0137
8.6410,-0.1630,-0.9539,0.0137
8.6590,-0.1549,-0.9685,0.0227
8.6590,-0.1549,-0.9685,0.0227
8.6600,-0.1549,-0.9685,0.0227
8.6790,-0.1598,-0.9685,0.0298
8.6800,-0.1598,-0.9685,0.0298
8.6800,-0.1598,-0.9685,0.0298
8.6840,-0.1598,-0.9685,0.0298
8.6990,-0.1481,-0.9597,0.0335
8.6990,-0.1481,-0.9597,0.0335
8.7000,-0.1481,-0.9597,0.0335
8.7230,-0.1603,-0.9570,0.0169
8.7240,-0.1603,-0.9570,0.0169
8.7260,-0.1603,-0.9570,0.0169
8.7260,-0.1603,-0.9570,0.0169
8.7270,-0.1603,-0.9570,0.0169
8.7400,-0.1928,-0.9497,0.0046
8.7400,-0.1928,-0.9497,0.0046
8.7450,-0.1928,-0.9497,0.0046
8.7580,-0.2346,-0.9517,0.0303
8.7590,-0.2346,-0.9517,0.0303
8.7590,-0.2346,-0.9517,0.0303
8.7800,-0.1699,-0.9524,0.0024
8.7810,-0.1699,-0.9524,0.0024
8.7820,-0.1699,-0.9524,0.0024
8.8000,-0.0868,-0.9631,-0.0147
8.8020,-0.0868,-0.9631,-0.0147
8.8030,-0.0868,-0.9631,-0.0147
8.8740,-0.0868,-0.9631,-0.0147
8.8740,-0.0868,-0.9631,-0.0147
8.8750,-0.1745,-0.9485,0.0166
8.8750,-0.1745,-0.9485,0.0166
8.8750,-0.1745,-0.9485,0.0166
8.8750,-0.1804,-0.9463,0.0276
8.8760,-0.1804,-0.9463,0.0276
8.8770,-0.1804,-0.9463,0.0276
8.8770,-0.1285,-0.9607,0.0066
8.8770,-0.1285,-0.9607,0.0066
8.8770,-0.1285,-0.9607,0.0066
8.8780,-0.1623,-0.9446,0.0027
8.8780,-0.1623,-0.9446,0.0027
8.8780,-0.1623,-0.9446,0.0027
8.8780,-0.1623,-0.9446,0.0027
8.8780,-0.1623,-0.9446,0.0027
8.8800,-0.1623,-0.9446,0.0027
8.8960,-0.1862,-0.9433,0.0064
8.8960,-0.1862,-0.9433,0.0064
8.8960,-0.1862,-0.9433,0.0064
8.9150,-0.1647,-0.9558,0.0042
8.9150,-0.1647,-0.9558,0.0042
8.9160,-0.1647,-0.9558,0.0042
8.9360,-0.1774,-0.9502,-0.0010
8.9360,-0.1774,-0.9502,-0.0010
8.9370,-0.1774,-0.9502,-0.0010
8.9570,-0.1867,-0.9482,0.0144
8.9580,-0.1867,-0.9482,0.0144
8.9580,-0.1867,-0.9482,0.0144
8.9600,-0.1867,-0.9482,0.0144
8.9600,-0.1867,-0.9482,0.0144
8.9780,-0.1620,-0.9592,0.0198
8.9790,-0.1620,-0.9592,0.0198
8.9790,-0.1620,-0.9592,0.0198
8.9970,-0.1557,-0.9585,0.0237
8.9970,-0.1557,-0.9585,0.0237
8.9970,-0.1557,-0.9585,0.0237
9.0170,-0.1545,-0.9524,0.0237
9.0170,-0.1545,-0.9524,0.0237
9.0180,-0.1545,-0.9524,0.0237
9.0380,-0.1457,-0.9504,0.0240
9.0390,-0.1457,-0.9504,0.0240
9.0390,-0.1457,-0.9504,0.0240
9.0420,-0.1457,-0.9504,0.0240
9.0420,-0.1457,-0.9504,0.0240
9.0580,-0.1596,-0.9507,0.0281
9.0580,-0.1596,-0.9507,0.0281
9.0590,-0.1596,-0.9507,0.0281
9.0740,-0.1808,-0.9612,0.0286
9.0750,-0.1808,-0.9612,0.0286
9.0750,-0.1808,-0.9612,0.0286
9.0780,-0.1808,-0.9612,0.0286
9.0940,-0.1845,-0.9619,0.0178
9.0950,-0.1845,-0.9619,0.0178
9.0950,-0.1845,-0.9619,0.0178
9.1130,-0.1706,-0.9504,-0.0103
9.1140,-0.1706,-0.9504,-0.0103
9.1140,-0.1706,-0.9504,-0.0103
9.1170,-0.1706,-0.9504,-0.0103
9.1170,-0.1706,-0.9504,-0.0103
9.1350,-0.1735,-0.9553,0.0061
9.1350,-0.1735,-0.9553,0.0061
9.1350,-0.1735,-0.9553,0.0061
9.1530,-0.1652,-0.9524,0.0191
9.1540,-0.1652,-0.9524,0.0191
9.1540,-0.1652,-0.9524,0.0191
9.1740,-0.1576,-0.9446,0.0066
9.1740,-0.1576,-0.9446,0.0066
9.1740,-0.1576,-0.9446,0.0066
9.1790,-0.1576,-0.9446,0.0066
9.1930,-0.1437,-0.9387,0.0112
9.1940,-0.1437,-0.9387,0.0112
9.1940,-0.1437,-0.9387,0.0112
9.1960,-0.1437,-0.9387,0.0112
9.1970,-0.1437,-0.9387,0.0112
9.2130,-0.1400,-0.9485,0.0291
9.2140,-0.1400,-0.9485,0.0291
9.2140,-0.1400,-0.9485,0.0291
9.2330,-0.1835,-0.9732,0.0305
9.2330,-0.1835,-0.9732,0.0305
9.2330,-0.1835,-0.9732,0.0305
9.2530,-0.1928,-0.9666,0.0183
9.2540,-0.1928,-0.9666,0.0183
9.2540,-0.1928,-0.9666,0.0183
9.2740,-0.1562,-0.9675,0.0166
9.2740,-0.1562,-0.9675,0.0166
9.2750,-0.1562,-0.9675,0.0166
9.2770,-0.1562,-0.9675,0.0166
9.2770,-0.1562,-0.9675,0.0166
9.2780,-0.1562,-0.9675,0.0166
9.2940,-0.1459,-0.9695,0.0095
9.2940,-0.1459,-0.9695,0.0095
9.2940,-0.1459,-0.9695,0.0095
9.3140,-0.1481,-0.9460,0.0181
9.3140,-0.1481,-0.9460,0.0181
9.3160,-0.1481,-0.9460,0.0181
9.3330,-0.1505,-0.9453,0.0142
9.3340,-0.1505,-0.9453,0.0142
9.3340,-0.1505,-0.9453,0.0142
9.3540,-0.1554,-0.9509,0.0066
9.4160,-0.1554,-0.9509,0.0066
9.4160,-0.1554,-0.9509,0.0066
9.4170,-0.1554,-0.9509,0.0066
9.4170,-0.1554,-0.9509,0.0066
9.4170,-0.1508,-0.9519,0.0046
9.4170,-0.1508,-0.9519,0.0046
9.4170,-0.1508,-0.9519,0.0046
9.4180,-0.1508,-0.9519,0.0046
9.4180,-0.1391,-0.9548,0.0154
9.4180,-0.1391,-0.9548,0.0154
9.4180,-0.1391,-0.9548,0.0154
9.4190,-0.1786,-0.9424,0.0462
9.4190,-0.1786,-0.9424,0.0462
9.4190,-0.1786,-0.9424,0.0462
9.4340,-0.2094,-0.9546,0.0667
9.4350,-0.2094,-0.9546,0.0667
9.4350,-0.2094,-0.9546,0.0667
9.4370,-0.2094,-0.9546,0.0667
9.4370,-0.2094,-0.9546,0.0667
9.4540,-0.1936,-0.9631,0.0420
9.4550,-0.1936,-0.9631,0.0420
9.4550,-0.1936,-0.9631,0.0420
9.4730,-0.1860,-0.9565,0.0012
9.4740,-0.1860,-0.9565,0.0012
9.4740,-0.1860,-0.9565,0.0012
9.4750,-0.1860,-0.9565,0.0012
9.4940,-0.2156,-0.9455,0.0007
9.4950,-0.2156,-0.9455,0.0007
9.4950,-0.2156,-0.9455,0.0007
9.5140,-0.1848,-0.9411,-0.0090
9.5150,-0.1848,-0.9411,-0.0090
9.5160,-0.1848,-0.9411,-0.0090
9.5160,-0.1848,-0.9411,-0.0090
9.5160,-0.1848,-0.9411,-0.0090
9.5320,-0.1459,-0.9477,-0.0020
9.5330,-0.1459,-0.9477,-0.0020
9.5330,-0.1459,-0.9477,-0.0020
9.5530,-0.1515,-0.9421,0.0120
9.5540,-0.1515,-0.9421,0.0120
9.5560,-0.1515,-0.9421,0.0120
9.5720,-0.1320,-0.9451,0.0073
9.5720,-0.1320,-0.9451,0.0073
9.5730,-0.1320,-0.9451,0.0073
9.5920,-0.1188,-0.9602,0.0186
9.5920,-0.1188,-0.9602,0.0186
9.5930,-0.1188,-0.9602,0.0186
9.5970,-0.1188,-0.9602,0.0186
9.5980,-0.1188,-0.9602,0.0186
9.6120,-0.1645,-0.9568,0.0230
9.6130,-0.1645,-0.9568,0.0230
9.6150,-0.1645,-0.9568,0.0230
9.6330,-0.1870,-0.9348,0.0144
9.6340,-0.1870,-0.9348,0.0144
9.6340,-0.1870,-0.9348,0.0144
9.6550,-0.1791,-0.9245,0.0205
9.6550,-0.1791,-0.9245,0.0205
9.6560,-0.1791,-0.9245,0.0205
9.6720,-0.2046,-0.9482,0.0247
9.6720,-0.2046,-0.9482,0.0247
9.6720,-0.2046,-0.9482,0.0247
9.6750,-0.2046,-0.9482,0.0247
9.6750,-0.2046,-0.9482,0.0247
9.6770,-0.2046,-0.9482,0.0247
9.6910,-0.1896,-0.9678,0.0078
9.6910,-0.1896,-0.9678,0.0078
9.6910,-0.1896,-0.9678,0.0078
9.7120,-0.1598,-0.9617,0.0086
9.7130,-0.1598,-0.9617,0.0086
9.7130,-0.1598,-0.9617,0.0086
9.7300,-0.1613,-0.9666,0.0161
9.7300,-0.1613,-0.9666,0.0161
9.7300,-0.1613,-0.9666,0.0161
9.7500,-0.1520,-0.9641,0.0264
9.7520,-0.1520,-0.9641,0.0264
9.7530,-0.1520,-0.9641,0.0264
9.7540,-0.1520,-0.9641,0.0264
9.7550,-0.1520,-0.9641,0.0264
9.7700,-0.1430,-0.9480,0.0271
9.7700,-0.1430,-0.9480,0.0271
9.7700,-0.1430,-0.9480,0.0271
9.7900,-0.1464,-0.9348,0.0357
9.7900,-0.1464,-0.9348,0.0357
9.7910,-0.1464,-0.9348,0.0357
9.8100,-0.1818,-0.9282,0.0484
9.8110,-0.1818,-0.9282,0.0484
9.8110,-0.1818,-0.9282,0.0484
9.8310,-0.1987,-0.9585,0.0499
9.8310,-0.1987,-0.9585,0.0499
9.8310,-0.1987,-0.9585,0.0499
9.8330,-0.1987,-0.9585,0.0499
9.8340,-0.1987,-0.9585,0.0499
9.8500,-0.1721,-0.9727,0.0264
9.8500,-0.1721,-0.9727,0.0264
9.8510,-0.1721,-0.9727,0.0264
9.8700,-0.1351,-0.9758,0.0130
9.8720,-0.1351,-0.9758,0.0130
9.8730,-0.1351,-0.9758,0.0130
9.8740,-0.1351,-0.9758,0.0130
9.8900,-0.1315,-0.9751,0.0017
9.8910,-0.1315,-0.9751,0.0017
9.9670,-0.1315,-0.9751,0.0017
9.9670,-0.1461,-0.9617,0.0068
9.9680,-0.1461,-0.9617,0.0068
9.9680,-0.1461,-0.9617,0.0068
9.9680,-0.1461,-0.9617,0.0068
9.9680,-0.1461,-0.9617,0.0068
9.9680,-0.1620,-0.9541,0.0147
9.9690,-0.1620,-0.9541,0.0147
9.9690,-0.1620,-0.9541,0.0147
9.9690,-0.1833,-0.9338,0.0164
9.9690,-0.1833,-0.9338,0.0164
9.9690,-0.1833,-0.9338,0.0164
9.9690,-0.2060,-0.9377,0.0479
9.9700,-0.2060,-0.9377,0.0479
9.9700,-0.2060,-0.9377,0.0479
9.9740,-0.2060,-0.9377,0.0479
9.9890,-0.2217,-0.9294,0.0291
9.9890,-0.2217,-0.9294,0.0291
9.9890,-0.2217,-0.9294,0.0291
9.9920,-0.2217,-0.9294,0.0291
9.9930,-0.2217,-0.9294,0.0291
10.0080,-0.1427,-0.9392,0.0086
10.0080,-0.1427,-0.9392,0.0086
10.0090,-0.1427,-0.9392,0.0086
10.0290,-0.1505,-0.9636,0.0144
10.0290,-0.1505,-0.9636,0.0144
10.0290,-0.1505,-0.9636,0.0144
10.0490,-0.2009,-0.9639,0.0244
10.0500,-0.2009,-0.9639,0.0244
10.0500,-0.2009,-0.9639,0.0244
10.0700,-0.1757,-0.9685,0.0203
10.0710,-0.1757,-0.9685,0.0203
10.0720,-0.1757,-0.9685,0.0203
10.0730,-0.1757,-0.9685,0.0203
10.0740,-0.1757,-0.9685,0.0203
10.0750,-0.1757,-0.9685,0.0203
10.0890,-0.1537,-0.9619,0.0391
10.0890,-0.1537,-0.9619,0.0391
10.0890,-0.1537,-0.9619,0.0391
10.1080,-0.1696,-0.9465,0.0320
10.1090,-0.1696,-0.9465,0.0320
10.1090,-0.1696,-0.9465,0.0320
10.1280,-0.1789,-0.9426,0.0076
10.1290,-0.1789,-0.9426,0.0076
10.1290,-0.1789,-0.9426,0.0076
10.1500,-0.1826,-0.9436,-0.0020
10.1520,-0.1826,-0.9436,-0.0020
10.1530,-0.1826,-0.9436,-0.0020
10.1530,-0.1826,-0.9436,-0.0020
10.1540,-0.1826,-0.9436,-0.0020
10.1690,-0.1826,-0.9343,0.0017
10.1690,-0.1826,-0.9343,0.0017
10.1700,-0.1826,-0.9343,0.0017
10.1890,-0.1777,-0.9389,0.0381
10.1890,-0.1777,-0.9389,0.0381
10.1900,-0.1777,-0.9389,0.0381
10.2110,-0.1701,-0.9487,0.0318
10.2120,-0.1701,-0.9487,0.0318
10.2120,-0.1701,-0.9487,0.0318
10.2280,-0.1549,-0.9565,0.0210
10.2310,-0.1549,-0.9565,0.0210
10.2320,-0.1549,-0.9565,0.0210
10.2320,-0.1549,-0.9565,0.0210
10.2320,-0.1549,-0.9565,0.0210
10.2480,-0.1679,-0.9495,0.0139
10.2490,-0.1679,-0.9495,0.0139
10.2490,-0.1679,-0.9495,0.0139
10.2690,-0.1840,-0.9651,0.0205
10.2740,-0.1840,-0.9651,0.0205
10.2750,-0.1840,-0.9651,0.0205
10.2760,-0.1840,-0.9651,0.0205
10.2870,-0.1576,-0.9712,-0.0054
10.2870,-0.1576,-0.9712,-0.0054
10.2880,-0.1576,-0.9712,-0.0054
10.3090,-0.1777,-0.9534,0.0130
10.3090,-0.1777,-0.9534,0.0130
10.3100,-0.1777,-0.9534,0.0130
10.3100,-0.1777,-0.9534,0.0130
10.3110,-0.1777,-0.9534,0.0130
10.3270,-0.1933,-0.9416,0.0477
10.3270,-0.1933,-0.9416,0.0477
10.3270,-0.1933,-0.9416,0.0477
10.3460,-0.1647,-0.9394,0.0376
10.3470,-0.1647,-0.9394,0.0376
10.3470,-0.1647,-0.9394,0.0376
10.3750,-0.1545,-0.9438,0.0159
10.3750,-0.1545,-0.9438,0.0159
10.3760,-0.1545,-0.9438,0.0159
10.3760,-0.1545,-0.9438,0.0159
10.3860,-0.1679,-0.9521,0.0137
10.3860,-0.1679,-0.9521,0.0137
10.3860,-0.1679,-0.9521,0.0137
10.3900,-0.1679,-0.9521,0.0137
10.3900,-0.1679,-0.9521,0.0137
10.4060,-0.1904,-0.9519,0.0252
10.4060,-0.1904,-0.9519,0.0252
10.4060,-0.1904,-0.9519,0.0252
10.4260,-0.1750,-0.9612,0.0415
10.4260,-0.1750,-0.9612,0.0415
10.4260,-0.1750,-0.9612,0.0415
10.4730,-0.1728,-0.9624,0.0237
10.4740,-0.1728,-0.9624,0.0237
10.4740,-0.1728,-0.9624,0.0237
10.4740,-0.1625,-0.9587,0.0193
10.4740,-0.1625,-0.9587,0.0193
10.4740,-0.1625,-0.9587,0.0193
10.4750,-0.1625,-0.9587,0.0193
10.4750,-0.1625,-0.9587,0.0193
10.4750,-0.1625,-0.9587,0.0193
10.4860,-0.1637,-0.9646,0.0315
10.4870,-0.1637,-0.9646,0.0315
10.4870,-0.1637,-0.9646,0.0315
10.5060,-0.1559,-0.9592,0.0337
10.5070,-0.1559,-0.9592,0.0337
10.5070,-0.1559,-0.9592,0.0337
10.5270,-0.1593,-0.9504,0.0327
10.5270,-0.1593,-0.9504,0.0327
10.5270,-0.1593,-0.9504,0.0327
10.5470,-0.1752,-0.9458,0.0176
10.5470,-0.1752,-0.9458,0.0176
10.5470,-0.1752,-0.9458,0.0176
10.5490,-0.1752,-0.9458,0.0176
10.5500,-0.1752,-0.9458,0.0176
10.5670,-0.1723,-0.9421,0.0044
10.5670,-0.1723,-0.9421,0.0044
10.5670,-0.1723,-0.9421,0.0044
10.5870,-0.1601,-0.9441,0.0049
10.5870,-0.1601,-0.9441,0.0049
10.5880,-0.1601,-0.9441,0.0049
10.6070,-0.1889,-0.9372,0.0305
10.6070,-0.1889,-0.9372,0.0305
10.6080,-0.1889,-0.9372,0.0305
10.6260,-0.2134,-0.9421,0.0249
10.6270,-0.2134,-0.9421,0.0249
10.6270,-0.2134,-0.9421,0.0249
10.6290,-0.2134,-0.9421,0.0249
10.6300,-0.2134,-0.9421,0.0249
10.6460,-0.1735,-0.9536,-0.0032
10.6470,-0.1735,-0.9536,-0.0032
10.6480,-0.1735,-0.9536,-0.0032
10.6660,-0.1826,-0.9583,-0.0002
10.6680,-0.1826,-0.9583,-0.0002
10.6690,-0.1826,-0.9583,-0.0002
10.6700,-0.1826,-0.9583,-0.0002
10.6870,-0.1906,-0.9514,0.0369
10.6880,-0.1906,-0.9514,0.0369
10.6900,-0.1906,-0.9514,0.0369
10.7090,-0.1640,-0.9421,0.0244
10.7100,-0.1640,-0.9421,0.0244
10.7100,-0.1640,-0.9421,0.0244
10.7110,-0.1640,-0.9421,0.0244
10.7130,-0.1640,-0.9421,0.0244
10.7290,-0.1576,-0.9602,0.0193
10.7300,-0.1576,-0.9602,0.0193
10.7300,-0.1576,-0.9602,0.0193
10.7480,-0.1826,-0.9580,0.0367
10.7490,-0.1826,-0.9580,0.0367
10.7500,-0.1826,-0.9580,0.0367
10.7680,-0.1987,-0.9534,0.0269
10.7690,-0.1987,-0.9534,0.0269
10.7720,-0.1987,-0.9534,0.0269
10.7870,-0.1613,-0.9455,0.0022
10.7870,-0.1613,-0.9455,0.0022
10.7880,-0.1613,-0.9455,0.0022
10.7880,-0.1613,-0.9455,0.0022
10.7890,-0.1613,-0.9455,0.0022
10.8090,-0.1327,-0.9492,-0.0061
10.8100,-0.1327,-0.9492,-0.0061
10.8100,-0.1327,-0.9492,-0.0061
10.8290,-0.1652,-0.9485,0.0103
10.8290,-0.1652,-0.9485,0.0103
10.8300,-0.1652,-0.9485,0.0103
10.8460,-0.1708,-0.9473,0.0208
10.8470,-0.1708,-0.9473,0.0208
10.8490,-0.1708,-0.9473,0.0208
10.8660,-0.1633,-0.9485,0.0318
10.8670,-0.1633,-0.9485,0.0318
10.8670,-0.1633,-0.9485,0.0318
10.8680,-0.1633,-0.9485,0.0318
10.8680,-0.1633,-0.9485,0.0318
10.8690,-0.1633,-0.9485,0.0318
10.8870,-0.2033,-0.9433,0.0264
10.8870,-0.2033,-0.9433,0.0264
10.8880,-0.2033,-0.9433,0.0264
10.9030,-0.2324,-0.9482,0.0313
10.9040,-0.2324,-0.9482,0.0313
10.9040,-0.2324,-0.9482,0.0313
10.9240,-0.1960,-0.9592,0.0371
10.9250,-0.1960,-0.9592,0.0371
10.9250,-0.1960,-0.9592,0.0371
10.9430,-0.1486,-0.9597,0.0222
10.9440,-0.1486,-0.9597,0.0222
10.9440,-0.1486,-0.9597,0.0222
10.9460,-0.1486,-0.9597,0.0222
10.9460,-0.1486,-0.9597,0.0222
10.9630,-0.1303,-0.9607,-0.0049
10.9630,-0.1303,-0.9607,-0.0049
10.9630,-0.1303,-0.9607,-0.0049
10.9830,-0.1496,-0.9541,-0.0027
10.9830,-0.1496,-0.9541,-0.0027
11.0180,-0.1496,-0.9541,-0.0027
11.0190,-0.1611,-0.9497,0.0144
11.0190,-0.1611,-0.9497,0.0144
11.0190,-0.1611,-0.9497,0.0144
11.0240,-0.1786,-0.9482,0.0171
11.0240,-0.1786,-0.9482,0.0171
11.0250,-0.1786,-0.9482,0.0171
11.0270,-0.1786,-0.9482,0.0171
11.0270,-0.1786,-0.9482,0.0171
11.0430,-0.2200,-0.9470,0.0198
11.0430,-0.2200,-0.9470,0.0198
11.0430,-0.2200,-0.9470,0.0198
11.0640,-0.1862,-0.9436,0.0073
11.0650,-0.1862,-0.9436,0.0073
11.0650,-0.1862,-0.9436,0.0073
11.0650,-0.1862,-0.9436,0.0073
11.0850,-0.1263,-0.9558,-0.0115
11.0850,-0.1263,-0.9558,-0.0115
11.0850,-0.1263,-0.9558,-0.0115
11.1070,-0.1325,-0.9609,0.0032
11.1070,-0.1325,-0.9609,0.0032
11.1080,-0.1325,-0.9609,0.0032
11.1100,-0.1325,-0.9609,0.0032
11.1100,-0.1325,-0.9609,0.0032
11.1250,-0.1745,-0.9519,0.0183
11.1260,-0.1745,-0.9519,0.0183
11.1260,-0.1745,-0.9519,0.0183
11.1430,-0.1833,-0.9431,0.0240
11.1440,-0.1833,-0.9431,0.0240
11.1450,-0.1833,-0.9431,0.0240
11.1650,-0.1860,-0.9463,0.0210
11.1660,-0.1860,-0.9463,0.0210
11.1660,-0.1860,-0.9463,0.0210
11.1670,-0.1860,-0.9463,0.0210
11.1840,-0.1848,-0.9495,0.0315
11.1850,-0.1848,-0.9495,0.0315
11.1850,-0.1848,-0.9495,0.0315
11.1860,-0.1848,-0.9495,0.0315
11.1860,-0.1848,-0.9495,0.0315
11.2030,-0.1980,-0.9529,0.0203
11.2030,-0.1980,-0.9529,0.0203
11.2040,-0.1980,-0.9529,0.0203
11.2250,-0.1752,-0.9717,0.0015
11.2250,-0.1752,-0.9717,0.0015
11.2260,-0.1752,-0.9717,0.0015
11.2440,-0.1686,-0.9690,0.0054
11.2460,-0.1686,-0.9690,0.0054
11.2470,-0.1686,-0.9690,0.0054
11.2650,-0.1848,-0.9568,0.0095
11.2660,-0.1848,-0.9568,0.0095
11.2660,-0.1848,-0.9568,0.0095
11.2680,-0.1848,-0.9568,0.0095
11.2690,-0.1848,-0.9568,0.0095
11.2690,-0.1848,-0.9568,0.0095
11.2850,-0.1811,-0.9463,0.0064
11.2860,-0.1811,-0.9463,0.0064
11.2890,-0.1811,-0.9463,0.0064
11.3050,-0.1647,-0.9485,-0.0049
11.3060,-0.1647,-0.9485,-0.0049
11.3060,-0.1647,-0.9485,-0.0049
11.3250,-0.1466,-0.9499,-0.0281
11.3250,-0.1466,-0.9499,-0.0281
11.3260,-0.1466,-0.9499,-0.0281
11.3470,-0.1383,-0.9507,-0.0604
11.3470,-0.1383,-0.9507,-0.0604
11.3470,-0.1383,-0.9507,-0.0604
11.3470,-0.1383,-0.9507,-0.0604
11.3480,-0.1383,-0.9507,-0.0604
11.3610,-0.1642,-0.9353,-0.0582
11.3620,-0.1642,-0.9353,-0.0582
11.3620,-0.1642,-0.9353,-0.0582
11.3640,-0.1642,-0.9353,-0.0582
11.3850,-0.1965,-0.9275,-0.0457
11.3850,-0.1965,-0.9275,-0.0457
11.3850,-0.1965,-0.9275,-0.0457
11.4050,-0.2080,-0.9394,-0.0279
11.4050,-0.2080,-0.9394,-0.0279
11.4050,-0.2080,-0.9394,-0.0279
11.4250,-0.1950,-0.9436,-0.0193
11.4260,-0.1950,-0.9436,-0.0193
11.4260,-0.1950,-0.9436,-0.0193
11.4260,-0.1950,-0.9436,-0.0193
11.4260,-0.1950,-0.9436,-0.0193
11.4410,-0.1808,-0.9389,-0.0310
11.4420,-0.1808,-0.9389,-0.0310
11.4420,-0.1808,-0.9389,-0.0310
11.4600,-0.1772,-0.9407,-0.0017
11.4600,-0.1772,-0.9407,-0.0017
11.4610,-0.1772,-0.9407,-0.0017
11.4610,-0.1772,-0.9407,-0.0017
11.4790,-0.2146,-0.9541,0.0477
11.4790,-0.2146,-0.9541,0.0477
11.4790,-0.2146,-0.9541,0.0477
11.5000,-0.2170,-0.9595,0.0719
11.5000,-0.2170,-0.9595,0.0719
11.5000,-0.2170,-0.9595,0.0719
11.5050,-0.2170,-0.9595,0.0719
11.5050,-0.2170,-0.9595,0.0719
11.5210,-0.1806,-0.9668,0.0931
11.5210,-0.1806,-0.9668,0.0931
11.5590,-0.1806,-0.9668,0.0931
11.5590,-0.1796,-0.9666,0.1012
11.5590,-0.1796,-0.9666,0.1012
11.5590,-0.1796,-0.9666,0.1012
11.5590,-0.1928,-0.9707,0.0868
11.5590,-0.1928,-0.9707,0.0868
11.5590,-0.1928,-0.9707,0.0868
11.5800,-0.1892,-0.9741,0.0716
11.5800,-0.1892,-0.9741,0.0716
11.5800,-0.1892,-0.9741,0.0716
11.5840,-0.1892,-0.9741,0.0716
11.5840,-0.1892,-0.9741,0.0716
11.5990,-0.2065,-0.9776,0.0579
11.5990,-0.2065,-0.9776,0.0579
11.5990,-0.2065,-0.9776,0.0579
11.6190,-0.2390,-0.9639,0.0758
11.6190,-0.2390,-0.9639,0.0758
11.6190,-0.2390,-0.9639,0.0758
11.6380,-0.2319,-0.9399,0.0987
11.6380,-0.2319,-0.9399,0.0987
11.6390,-0.2319,-0.9399,0.0987
11.6600,-0.1427,-0.9761,0.0789
11.6600,-0.1427,-0.9761,0.0789
11.6600,-0.1427,-0.9761,0.0789
11.6620,-0.1427,-0.9761,0.0789
11.6620,-0.1427,-0.9761,0.0789
11.6630,-0.1427,-0.9761,0.0789
