
time,AccelerometerX,AccelerometerY,AccelerometerZ
0.0150,-0.8979,-0.0990,0.5198
0.0160,-0.8796,-0.1332,0.5201
0.0160,-0.8796,-0.1332,0.5201
0.0160,-0.8796,-0.1332,0.5201
0.0260,-0.8805,-0.0943,0.4790
0.0260,-0.8805,-0.0943,0.4790
0.0260,-0.8805,-0.0943,0.4790
0.0430,-0.8805,-0.0943,0.4790
0.0440,-0.8346,-0.0594,0.4331
0.0440,-0.8346,-0.0594,0.4331
0.0440,-0.8346,-0.0594,0.4331
0.0610,-0.8737,-0.0323,0.4680
0.0610,-0.8737,-0.0323,0.4680
0.0610,-0.8737,-0.0323,0.4680
0.0670,-0.8737,-0.0323,0.4680
0.0670,-0.8737,-0.0323,0.4680
0.0820,-0.9045,-0.0484,0.4924
0.0820,-0.9045,-0.0484,0.4924
0.0830,-0.9045,-0.0484,0.4924
0.1040,-0.9035,-0.0369,0.4722
0.1040,-0.9035,-0.0369,0.4722
0.1040,-0.9035,-0.0369,0.4722
0.1210,-0.8703,-0.0618,0.5162
0.1210,-0.8703,-0.0618,0.5162
0.1210,-0.8703,-0.0618,0.5162
0.1410,-0.8693,-0.0704,0.5291
0.1410,-0.8693,-0.0704,0.5291
0.1410,-0.8693,-0.0704,0.5291
0.1450,-0.8693,-0.0704,0.5291
0.1450,-0.8693,-0.0704,0.5291
0.1610,-0.9035,-0.0648,0.5137
0.1620,-0.9035,-0.0648,0.5137
0.1620,-0.9035,-0.0648,0.5137
0.1820,-0.9094,-0.0721,0.4888
0.1820,-0.9094,-0.0721,0.4888
0.1820,-0.9094,-0.0721,0.4888
0.1900,-0.9094,-0.0721,0.4888
0.2010,-0.8898,-0.0714,0.4612
0.2010,-0.8898,-0.0714,0.4612
0.2010,-0.8898,-0.0714,0.4612
0.2210,-0.8703,-0.0701,0.4717
0.2210,-0.8703,-0.0701,0.4717
0.2210,-0.8703,-0.0701,0.4717
0.2250,-0.8703,-0.0701,0.4717
0.2250,-0.8703,-0.0701,0.4717
0.2320,-0.8703,-0.0701,0.4717
0.2410,-0.8615,-0.0525,0.4819
0.2410,-0.8615,-0.0525,0.4819
0.2410,-0.8615,-0.0525,0.4819
0.2610,-0.8588,-0.0479,0.4915
0.2610,-0.8588,-0.0479,0.4915
0.2610,-0.8588,-0.0479,0.4915
0.2810,-0.8449,-0.0643,0.5118
0.2810,-0.8449,-0.0643,0.5118
0.2820,-0.8449,-0.0643,0.5118
0.3000,-0.8554,-0.0574,0.5218
0.3000,-0.8554,-0.0574,0.5218
0.3000,-0.8554,-0.0574,0.5218
0.3040,-0.8554,-0.0574,0.5218
0.3040,-0.8554,-0.0574,0.5218
0.3200,-0.8651,-0.0618,0.5303
0.3200,-0.8651,-0.0618,0.5303
0.3200,-0.8651,-0.0618,0.5303
0.3410,-0.8480,-0.0745,0.5210
0.3410,-0.8480,-0.0745,0.5210
0.3410,-0.8480,-0.0745,0.5210
0.3600,-0.8414,-0.0679,0.5093
0.3600,-0.8414,-0.0679,0.5093
0.3600,-0.8414,-0.0679,0.5093
0.3810,-0.8634,-0.0684,0.5069
0.3810,-0.8634,-0.0684,0.5069
0.3810,-0.8634,-0.0684,0.5069
0.3840,-0.8634,-0.0684,0.5069
0.3840,-0.8634,-0.0684,0.5069
0.4000,-0.8759,-0.0672,0.5066
0.4000,-0.8759,-0.0672,0.5066
0.4000,-0.8759,-0.0672,0.5066
0.4200,-0.8698,-0.0638,0.5103
0.4200,-0.8698,-0.0638,0.5103
0.4200,-0.8698,-0.0638,0.5103
0.4310,-0.8698,-0.0638,0.5103
0.4390,-0.8395,-0.0753,0.5254
0.4390,-0.8395,-0.0753,0.5254
0.4400,-0.8395,-0.0753,0.5254
0.4610,-0.8321,-0.0892,0.5562
0.4610,-0.8321,-0.0892,0.5562
0.4610,-0.8321,-0.0892,0.5562
0.4630,-0.8321,-0.0892,0.5562
0.4630,-0.8321,-0.0892,0.5562
0.4790,-0.8600,-0.1046,0.5584
0.4800,-0.8600,-0.1046,0.5584
0.4800,-0.8600,-0.1046,0.5584
0.5010,-0.8541,-0.1041,0.5504
0.5010,-0.8541,-0.1041,0.5504
0.5010,-0.8541,-0.1041,0.5504
0.5190,-0.8192,-0.1092,0.5513
0.5190,-0.8192,-0.1092,0.5513
0.5190,-0.8192,-0.1092,0.5513
0.5390,-0.8488,-0.1190,0.5391
0.5390,-0.8488,-0.1190,0.5391
0.5400,-0.8488,-0.1190,0.5391
0.5420,-0.8488,-0.1190,0.5391
0.5430,-0.8488,-0.1190,0.5391
0.5590,-0.8793,-0.0875,0.5162
0.5600,-0.8793,-0.0875,0.5162
0.5600,-0.8793,-0.0875,0.5162
0.5790,-0.9042,-0.0689,0.5169
0.5800,-0.9042,-0.0689,0.5169
0.5800,-0.9042,-0.0689,0.5169
0.5880,-0.9042,-0.0689,0.5169
0.5990,-0.8778,-0.0843,0.5245
0.6380,-0.8778,-0.0843,0.5245
0.6380,-0.8778,-0.0843,0.5245
0.6380,-0.8497,-0.0780,0.4993
0.6380,-0.8497,-0.0780,0.4993
0.6390,-0.8497,-0.0780,0.4993
0.6390,-0.8497,-0.0780,0.4993
0.6390,-0.8497,-0.0780,0.4993
0.6390,-0.8497,-0.0780,0.4993
0.6390,-0.8583,-0.0591,0.4959
0.6390,-0.8583,-0.0591,0.4959
0.6400,-0.8583,-0.0591,0.4959
0.6580,-0.8495,-0.0501,0.4966
0.6580,-0.8495,-0.0501,0.4966
0.6580,-0.8495,-0.0501,0.4966
0.6780,-0.8402,-0.0477,0.4888
0.6780,-0.8402,-0.0477,0.4888
0.6780,-0.8402,-0.0477,0.4888
0.6990,-0.8485,-0.0577,0.5047
0.6990,-0.8485,-0.0577,0.5047
0.6990,-0.8485,-0.0577,0.5047
0.7010,-0.8485,-0.0577,0.5047
0.7010,-0.8485,-0.0577,0.5047
0.7180,-0.8590,-0.0711,0.5271
0.7180,-0.8590,-0.0711,0.5271
0.7180,-0.8590,-0.0711,0.5271
0.7380,-0.8671,-0.0697,0.5271
0.7380,-0.8671,-0.0697,0.5271
0.7380,-0.8671,-0.0697,0.5271
0.7580,-0.8837,-0.0706,0.5362
0.7580,-0.8837,-0.0706,0.5362
0.7590,-0.8837,-0.0706,0.5362
0.7770,-0.9028,-0.0699,0.5347
0.7770,-0.9028,-0.0699,0.5347
0.7770,-0.9028,-0.0699,0.5347
0.7810,-0.9028,-0.0699,0.5347
0.7820,-0.9028,-0.0699,0.5347
0.7980,-0.8854,-0.0789,0.5296
0.7980,-0.8854,-0.0789,0.5296
0.7980,-0.8854,-0.0789,0.5296
0.8170,-0.8761,-0.0943,0.5225
0.8170,-0.8761,-0.0943,0.5225
0.8180,-0.8761,-0.0943,0.5225
0.8270,-0.8761,-0.0943,0.5225
0.8370,-0.8639,-0.0975,0.5091
0.8370,-0.8639,-0.0975,0.5091
0.8370,-0.8639,-0.0975,0.5091
0.8580,-0.8507,-0.0938,0.5044
0.8580,-0.8507,-0.0938,0.5044
0.8580,-0.8507,-0.0938,0.5044
0.8610,-0.8507,-0.0938,0.5044
0.8610,-0.8507,-0.0938,0.5044
0.8780,-0.8439,-0.0890,0.5291
0.8780,-0.8439,-0.0890,0.5291
0.8780,-0.8439,-0.0890,0.5291
0.8970,-0.8578,-0.0689,0.5408
0.8970,-0.8578,-0.0689,0.5408
0.8970,-0.8578,-0.0689,0.5408
0.9170,-0.8534,-0.0594,0.5638
0.9170,-0.8534,-0.0594,0.5638
0.9170,-0.8534,-0.0594,0.5638
0.9380,-0.8603,-0.0721,0.5433
0.9380,-0.8603,-0.0721,0.5433
0.9380,-0.8603,-0.0721,0.5433
0.9410,-0.8603,-0.0721,0.5433
0.9410,-0.8603,-0.0721,0.5433
0.9570,-0.8622,-0.0811,0.5401
0.9570,-0.8622,-0.0811,0.5401
0.9570,-0.8622,-0.0811,0.5401
0.9760,-0.8620,-0.0787,0.5423
0.9770,-0.8620,-0.0787,0.5423
0.9770,-0.8620,-0.0787,0.5423
0.9840,-0.8620,-0.0787,0.5423
0.9960,-0.8727,-0.0780,0.5296
0.9960,-0.8727,-0.0780,0.5296
0.9970,-0.8727,-0.0780,0.5296
1.0150,-0.8417,-0.0824,0.5022
1.0160,-0.8417,-0.0824,0.5022
1.0160,-0.8417,-0.0824,0.5022
1.0190,-0.8417,-0.0824,0.5022
1.0190,-0.8417,-0.0824,0.5022
1.0270,-0.8417,-0.0824,0.5022
1.0360,-0.8263,-0.0743,0.4585
1.0360,-0.8263,-0.0743,0.4585
1.0360,-0.8263,-0.0743,0.4585
1.0550,-0.8331,-0.0633,0.4570
1.0550,-0.8331,-0.0633,0.4570
1.0550,-0.8331,-0.0633,0.4570
1.0760,-0.8412,-0.0591,0.4871
1.0760,-0.8412,-0.0591,0.4871
1.0760,-0.8412,-0.0591,0.4871
1.0950,-0.8429,-0.0611,0.5071
1.0950,-0.8429,-0.0611,0.5071
1.0950,-0.8429,-0.0611,0.5071
1.0980,-0.8429,-0.0611,0.5071
1.0980,-0.8429,-0.0611,0.5071
1.1150,-0.8505,-0.0701,0.5323
1.1150,-0.8505,-0.0701,0.5323
1.1150,-0.8505,-0.0701,0.5323
1.1350,-0.8544,-0.0833,0.5425
1.1350,-0.8544,-0.0833,0.5425
1.1800,-0.8544,-0.0833,0.5425
1.1810,-0.8717,-0.0824,0.5242
1.1810,-0.8717,-0.0824,0.5242
1.1810,-0.8717,-0.0824,0.5242
1.1810,-0.8717,-0.0855,0.5308
1.1810,-0.8717,-0.0855,0.5308
1.1810,-0.8717,-0.0855,0.5308
1.1810,-0.8717,-0.0855,0.5308
1.1820,-0.8717,-0.0855,0.5308
1.1820,-0.8717,-0.0855,0.5308
1.1950,-0.8945,-0.0912,0.5293
1.1950,-0.8945,-0.0912,0.5293
1.1950,-0.8945,-0.0912,0.5293
1.2150,-0.8989,-0.0848,0.5154
1.2160,-0.8989,-0.0848,0.5154
1.2160,-0.8989,-0.0848,0.5154
1.2240,-0.8989,-0.0848,0.5154
1.2350,-0.8774,-0.0794,0.5198
1.2350,-0.8774,-0.0794,0.5198
1.2350,-0.8774,-0.0794,0.5198
1.2540,-0.8783,-0.0675,0.5030
1.2540,-0.8783,-0.0675,0.5030
1.2550,-0.8783,-0.0675,0.5030
1.2580,-0.8783,-0.0675,0.5030
1.2580,-0.8783,-0.0675,0.5030
1.2740,-0.8471,-0.0631,0.5193
1.2740,-0.8471,-0.0631,0.5193
1.2750,-0.8471,-0.0631,0.5193
1.2940,-0.8275,-0.0677,0.5386
1.2940,-0.8275,-0.0677,0.5386
1.2940,-0.8275,-0.0677,0.5386
1.3140,-0.8598,-0.0750,0.5364
1.3140,-0.8598,-0.0750,0.5364
1.3140,-0.8598,-0.0750,0.5364
1.3330,-0.8712,-0.0975,0.5362
1.3340,-0.8712,-0.0975,0.5362
1.3340,-0.8712,-0.0975,0.5362
1.3380,-0.8712,-0.0975,0.5362
1.3380,-0.8712,-0.0975,0.5362
1.3540,-0.8732,-0.1061,0.5232
1.3540,-0.8732,-0.1061,0.5232
1.3540,-0.8732,-0.1061,0.5232
1.3740,-0.8732,-0.1046,0.5130
1.3740,-0.8732,-0.1046,0.5130
1.3740,-0.8732,-0.1046,0.5130
1.3940,-0.8730,-0.1029,0.4883
1.3940,-0.8730,-0.1029,0.4883
1.3940,-0.8730,-0.1029,0.4883
1.4140,-0.8994,-0.1053,0.4834
1.4140,-0.8994,-0.1053,0.4834
1.4150,-0.8994,-0.1053,0.4834
1.4170,-0.8994,-0.1053,0.4834
1.4170,-0.8994,-0.1053,0.4834
1.4220,-0.8994,-0.1053,0.4834
1.4330,-0.8800,-0.1114,0.4990
1.4330,-0.8800,-0.1114,0.4990
1.4330,-0.8800,-0.1114,0.4990
1.4530,-0.8563,-0.0824,0.4917
1.4540,-0.8563,-0.0824,0.4917
1.4540,-0.8563,-0.0824,0.4917
1.4730,-0.8551,-0.0599,0.5027
1.4730,-0.8551,-0.0599,0.5027
1.4740,-0.8551,-0.0599,0.5027
1.4930,-0.8187,-0.0865,0.5337
1.4940,-0.8187,-0.0865,0.5337
1.4940,-0.8187,-0.0865,0.5337
1.4970,-0.8187,-0.0865,0.5337
1.4970,-0.8187,-0.0865,0.5337
1.5130,-0.8346,-0.0892,0.5193
1.5130,-0.8346,-0.0892,0.5193
1.5140,-0.8346,-0.0892,0.5193
1.5350,-0.8551,-0.0741,0.5372
1.5350,-0.8551,-0.0741,0.5372
1.5360,-0.8551,-0.0741,0.5372
1.5530,-0.8703,-0.0755,0.5369
1.5530,-0.8703,-0.0755,0.5369
1.5540,-0.8703,-0.0755,0.5369
1.5730,-0.9008,-0.0782,0.5091
1.5740,-0.9008,-0.0782,0.5091
1.5740,-0.9008,-0.0782,0.5091
1.5770,-0.9008,-0.0782,0.5091
1.5770,-0.9008,-0.0782,0.5091
1.5940,-0.8957,-0.0789,0.5066
1.5940,-0.8957,-0.0789,0.5066
1.5950,-0.8957,-0.0789,0.5066
1.6130,-0.8744,-0.0816,0.5159
1.6130,-0.8744,-0.0816,0.5159
1.6130,-0.8744,-0.0816,0.5159
1.6210,-0.8744,-0.0816,0.5159
1.6320,-0.8720,-0.0792,0.4978
1.6320,-0.8720,-0.0792,0.4978
1.6320,-0.8720,-0.0792,0.4978
1.6530,-0.8593,-0.0741,0.4927
1.6530,-0.8593,-0.0741,0.4927
1.6530,-0.8593,-0.0741,0.4927
1.6560,-0.8593,-0.0741,0.4927
1.6560,-0.8593,-0.0741,0.4927
1.6720,-0.8505,-0.0806,0.5118
1.6720,-0.8505,-0.0806,0.5118
1.6730,-0.8505,-0.0806,0.5118
1.7130,-0.8490,-0.0907,0.5315
1.7130,-0.8490,-0.0907,0.5315
1.7130,-0.8490,-0.0907,0.5315
1.7130,-0.8649,-0.0838,0.5232
1.7140,-0.8649,-0.0838,0.5232
1.7140,-0.8649,-0.0838,0.5232
1.7330,-0.8788,-0.0728,0.5252
1.7330,-0.8788,-0.0728,0.5252
1.7330,-0.8788,-0.0728,0.5252
1.7350,-0.8788,-0.0728,0.5252
1.7350,-0.8788,-0.0728,0.5252
1.7530,-0.8739,-0.0804,0.5337
1.7530,-0.8739,-0.0804,0.5337
1.7530,-0.8739,-0.0804,0.5337
1.7730,-0.8896,-0.0816,0.5484
1.7730,-0.8896,-0.0816,0.5484
1.7730,-0.8896,-0.0816,0.5484
1.7920,-0.8974,-0.0687,0.5457
1.7920,-0.8974,-0.0687,0.5457
1.7920,-0.8974,-0.0687,0.5457
1.8110,-0.8800,-0.0719,0.5249
1.8120,-0.8800,-0.0719,0.5249
1.8120,-0.8800,-0.0719,0.5249
1.8140,-0.8800,-0.0719,0.5249
1.8150,-0.8800,-0.0719,0.5249
1.8180,-0.8800,-0.0719,0.5249
1.8310,-0.8622,-0.0853,0.5303
1.8310,-0.8622,-0.0853,0.5303
1.8320,-0.8622,-0.0853,0.5303
1.8520,-0.8361,-0.0914,0.5318
1.8530,-0.8361,-0.0914,0.5318
1.8530,-0.8361,-0.0914,0.5318
1.8720,-0.8248,-0.0836,0.5120
1.8730,-0.8248,-0.0836,0.5120
1.8730,-0.8248,-0.0836,0.5120
1.8920,-0.8324,-0.0770,0.5100
1.8930,-0.8324,-0.0770,0.5100
1.8930,-0.8324,-0.0770,0.5100
1.8960,-0.8324,-0.0770,0.5100
1.8960,-0.8324,-0.0770,0.5100
1.9130,-0.8471,-0.0760,0.5293
1.9140,-0.8471,-0.0760,0.5293
1.9140,-0.8471,-0.0760,0.5293
1.9330,-0.8490,-0.0780,0.5340
1.9340,-0.8490,-0.0780,0.5340
1.9350,-0.8490,-0.0780,0.5340
1.9520,-0.8439,-0.0775,0.5276
1.9520,-0.8439,-0.0775,0.5276
1.9530,-0.8439,-0.0775,0.5276
1.9710,-0.8297,-0.0960,0.5362
1.9720,-0.8297,-0.0960,0.5362
1.9730,-0.8297,-0.0960,0.5362
1.9740,-0.8297,-0.0960,0.5362
1.9740,-0.8297,-0.0960,0.5362
1.9910,-0.8361,-0.0916,0.5333
1.9920,-0.8361,-0.0916,0.5333
1.9950,-0.8361,-0.0916,0.5333
2.0110,-0.8383,-0.0826,0.5513
2.0120,-0.8383,-0.0826,0.5513
2.0150,-0.8383,-0.0826,0.5513
2.0170,-0.8383,-0.0826,0.5513
2.0330,-0.8187,-0.0836,0.5592
2.0330,-0.8187,-0.0836,0.5592
2.0340,-0.8187,-0.0836,0.5592
2.0530,-0.8375,-0.0853,0.5447
2.0540,-0.8375,-0.0853,0.5447
2.0540,-0.8375,-0.0853,0.5447
2.0560,-0.8375,-0.0853,0.5447
2.0590,-0.8375,-0.0853,0.5447
2.0730,-0.8549,-0.0982,0.5616
2.0740,-0.8549,-0.0982,0.5616
2.0740,-0.8549,-0.0982,0.5616
2.0930,-0.8436,-0.0953,0.5531
2.0950,-0.8436,-0.0953,0.5531
2.0950,-0.8436,-0.0953,0.5531
2.1100,-0.8554,-0.0860,0.5286
2.1110,-0.8554,-0.0860,0.5286
2.1110,-0.8554,-0.0860,0.5286
2.1330,-0.8666,-0.0931,0.5364
2.1340,-0.8666,-0.0931,0.5364
2.1340,-0.8666,-0.0931,0.5364
2.1350,-0.8666,-0.0931,0.5364
2.1360,-0.8666,-0.0931,0.5364
2.1520,-0.8774,-0.0877,0.5435
2.1520,-0.8774,-0.0877,0.5435
2.1530,-0.8774,-0.0877,0.5435
2.1720,-0.8764,-0.0850,0.5438
2.1730,-0.8764,-0.0850,0.5438
2.1740,-0.8764,-0.0850,0.5438
2.1920,-0.8321,-0.1080,0.5164
2.1920,-0.8321,-0.1080,0.5164
2.1940,-0.8321,-0.1080,0.5164
2.2160,-0.8084,-0.1173,0.5291
2.2160,-0.8084,-0.1173,0.5291
2.2160,-0.8084,-0.1173,0.5291
2.2160,-0.8084,-0.1173,0.5291
2.2170,-0.8084,-0.1173,0.5291
2.2170,-0.8084,-0.1173,0.5291
2.2320,-0.8439,-0.0968,0.5347
2.2320,-0.8439,-0.0968,0.5347
2.2830,-0.8439,-0.0968,0.5347
2.2840,-0.8576,-0.0831,0.5389
2.2840,-0.8576,-0.0831,0.5389
2.2840,-0.8576,-0.0831,0.5389
2.2840,-0.8573,-0.0975,0.5438
2.2850,-0.8573,-0.0975,0.5438
2.2850,-0.8573,-0.0975,0.5438
2.2890,-0.8431,-0.0997,0.5135
2.2890,-0.8431,-0.0997,0.5135
2.2890,-0.8431,-0.0997,0.5135
2.2920,-0.8431,-0.0997,0.5135
2.2920,-0.8431,-0.0997,0.5135
2.3090,-0.8314,-0.0833,0.4976
2.3090,-0.8314,-0.0833,0.4976
2.3090,-0.8314,-0.0833,0.4976
2.3290,-0.8625,-0.0753,0.5059
2.3300,-0.8625,-0.0753,0.5059
2.3300,-0.8625,-0.0753,0.5059
2.3490,-0.8598,-0.0792,0.5337
2.3490,-0.8598,-0.0792,0.5337
2.3500,-0.8598,-0.0792,0.5337
2.3680,-0.8390,-0.0816,0.5477
2.3680,-0.8390,-0.0816,0.5477
2.3680,-0.8390,-0.0816,0.5477
2.3720,-0.8390,-0.0816,0.5477
2.3720,-0.8390,-0.0816,0.5477
2.3870,-0.8478,-0.0936,0.5435
2.3870,-0.8478,-0.0936,0.5435
2.3880,-0.8478,-0.0936,0.5435
2.4070,-0.8615,-0.1097,0.5460
2.4080,-0.8615,-0.1097,0.5460
2.4080,-0.8615,-0.1097,0.5460
2.4130,-0.8615,-0.1097,0.5460
2.4280,-0.8497,-0.1136,0.5484
2.4280,-0.8497,-0.1136,0.5484
2.4280,-0.8497,-0.1136,0.5484
2.4480,-0.8480,-0.1002,0.5350
2.4480,-0.8480,-0.1002,0.5350
2.4480,-0.8480,-0.1002,0.5350
2.4500,-0.8480,-0.1002,0.5350
2.4510,-0.8480,-0.1002,0.5350
2.4680,-0.8742,-0.1009,0.5401
2.4680,-0.8742,-0.1009,0.5401
2.4690,-0.8742,-0.1009,0.5401
2.4880,-0.8590,-0.1063,0.5531
2.4880,-0.8590,-0.1063,0.5531
2.4890,-0.8590,-0.1063,0.5531
2.5070,-0.8541,-0.0904,0.5394
2.5070,-0.8541,-0.0904,0.5394
2.5080,-0.8541,-0.0904,0.5394
2.5280,-0.8644,-0.0814,0.5425
2.5290,-0.8644,-0.0814,0.5425
2.5310,-0.8644,-0.0814,0.5425
2.5320,-0.8644,-0.0814,0.5425
2.5330,-0.8644,-0.0814,0.5425
2.5480,-0.8475,-0.0841,0.5465
2.5490,-0.8475,-0.0841,0.5465
2.5540,-0.8475,-0.0841,0.5465
2.5680,-0.8475,-0.0745,0.5235
2.5690,-0.8475,-0.0745,0.5235
2.5720,-0.8475,-0.0745,0.5235
2.5900,-0.8387,-0.0831,0.5320
2.5910,-0.8387,-0.0831,0.5320
2.5910,-0.8387,-0.0831,0.5320
2.6080,-0.8124,-0.0858,0.5391
2.6140,-0.8124,-0.0858,0.5391
2.6140,-0.8124,-0.0858,0.5391
2.6150,-0.8124,-0.0858,0.5391
2.6160,-0.8124,-0.0858,0.5391
2.6160,-0.8124,-0.0858,0.5391
2.6270,-0.8219,-0.0733,0.5352
2.6280,-0.8219,-0.0733,0.5352
2.6280,-0.8219,-0.0733,0.5352
2.6480,-0.8468,-0.0704,0.5430
2.6480,-0.8468,-0.0704,0.5430
2.6480,-0.8468,-0.0704,0.5430
2.6670,-0.8446,-0.0836,0.5636
2.6680,-0.8446,-0.0836,0.5636
2.6680,-0.8446,-0.0836,0.5636
2.6910,-0.8532,-0.0846,0.5665
2.6920,-0.8532,-0.0846,0.5665
2.6920,-0.8532,-0.0846,0.5665
2.6930,-0.8532,-0.0846,0.5665
2.6930,-0.8532,-0.0846,0.5665
2.7060,-0.8727,-0.0843,0.5538
2.7070,-0.8727,-0.0843,0.5538
2.7070,-0.8727,-0.0843,0.5538
2.7260,-0.8700,-0.0968,0.5286
2.7270,-0.8700,-0.0968,0.5286
2.7270,-0.8700,-0.0968,0.5286
2.7470,-0.8207,-0.1000,0.5232
2.7470,-0.8207,-0.1000,0.5232
2.7480,-0.8207,-0.1000,0.5232
2.7660,-0.8038,-0.0750,0.5379
2.7670,-0.8038,-0.0750,0.5379
2.7670,-0.8038,-0.0750,0.5379
2.7710,-0.8038,-0.0750,0.5379
2.7720,-0.8038,-0.0750,0.5379
2.7870,-0.8752,-0.0525,0.5257
2.7880,-0.8752,-0.0525,0.5257
2.8690,-0.8752,-0.0525,0.5257
2.8690,-0.8473,-0.0714,0.5347
2.8700,-0.8473,-0.0714,0.5347
2.8700,-0.8473,-0.0714,0.5347
2.8700,-0.8473,-0.0714,0.5347
2.8700,-0.7989,-0.0926,0.5201
2.8700,-0.7989,-0.0926,0.5201
2.8700,-0.7989,-0.0926,0.5201
2.8710,-0.8241,-0.0880,0.5140
2.8710,-0.8241,-0.0880,0.5140
2.8710,-0.8241,-0.0880,0.5140
2.8710,-0.8241,-0.0880,0.5140
2.8710,-0.8241,-0.0880,0.5140
2.8720,-0.8563,-0.0850,0.5323
2.8720,-0.8563,-0.0850,0.5323
2.8720,-0.8563,-0.0850,0.5323
2.8840,-0.8576,-0.0846,0.5364
2.8840,-0.8576,-0.0846,0.5364
2.8840,-0.8576,-0.0846,0.5364
2.9050,-0.8207,-0.0943,0.5401
2.9050,-0.8207,-0.0943,0.5401
2.9050,-0.8207,-0.0943,0.5401
2.9240,-0.8219,-0.0951,0.5545
2.9250,-0.8219,-0.0951,0.5545
2.9250,-0.8219,-0.0951,0.5545
2.9280,-0.8219,-0.0951,0.5545
2.9280,-0.8219,-0.0951,0.5545
2.9450,-0.8434,-0.0855,0.5589
2.9450,-0.8434,-0.0855,0.5589
2.9450,-0.8434,-0.0855,0.5589
2.9640,-0.8627,-0.0833,0.5611
2.9640,-0.8627,-0.0833,0.5611
2.9640,-0.8627,-0.0833,0.5611
2.9840,-0.8800,-0.0985,0.5685
2.9850,-0.8800,-0.0985,0.5685
2.9850,-0.8800,-0.0985,0.5685
3.0040,-0.8451,-0.1195,0.5584
3.0050,-0.8451,-0.1195,0.5584
3.0050,-0.8451,-0.1195,0.5584
3.0080,-0.8451,-0.1195,0.5584
3.0080,-0.8451,-0.1195,0.5584
3.0100,-0.8451,-0.1195,0.5584
3.0250,-0.8373,-0.1261,0.5482
3.0250,-0.8373,-0.1261,0.5482
3.0250,-0.8373,-0.1261,0.5482
3.0450,-0.8434,-0.1136,0.5531
3.0450,-0.8434,-0.1136,0.5531
3.0450,-0.8434,-0.1136,0.5531
3.0650,-0.8676,-0.0919,0.5450
3.0650,-0.8676,-0.0919,0.5450
3.0650,-0.8676,-0.0919,0.5450
3.0860,-0.9045,-0.0992,0.5543
3.0860,-0.9045,-0.0992,0.5543
3.0870,-0.9045,-0.0992,0.5543
3.0880,-0.9045,-0.0992,0.5543
3.0880,-0.9045,-0.0992,0.5543
3.1040,-0.8722,-0.1097,0.5491
3.1050,-0.8722,-0.1097,0.5491
3.1050,-0.8722,-0.1097,0.5491
3.1250,-0.8493,-0.0885,0.5164
3.1250,-0.8493,-0.0885,0.5164
3.1260,-0.8493,-0.0885,0.5164
3.1470,-0.8363,-0.0853,0.5279
3.1470,-0.8363,-0.0853,0.5279
3.1480,-0.8363,-0.0853,0.5279
3.1650,-0.8361,-0.0843,0.5342
3.1690,-0.8361,-0.0843,0.5342
3.1710,-0.8361,-0.0843,0.5342
3.1730,-0.8361,-0.0843,0.5342
3.1730,-0.8361,-0.0843,0.5342
3.1870,-0.8458,-0.0804,0.5318
3.1880,-0.8458,-0.0804,0.5318
3.1880,-0.8458,-0.0804,0.5318
3.2060,-0.8512,-0.0958,0.5308
3.2060,-0.8512,-0.0958,0.5308
3.2070,-0.8512,-0.0958,0.5308
3.2090,-0.8512,-0.0958,0.5308
3.2250,-0.8461,-0.1026,0.5171
3.2250,-0.8461,-0.1026,0.5171
3.2260,-0.8461,-0.1026,0.5171
3.2460,-0.8356,-0.0875,0.5184
3.2460,-0.8356,-0.0875,0.5184
3.2470,-0.8356,-0.0875,0.5184
3.2470,-0.8356,-0.0875,0.5184
3.2470,-0.8356,-0.0875,0.5184
3.2640,-0.8507,-0.0741,0.5364
3.2650,-0.8507,-0.0741,0.5364
3.2650,-0.8507,-0.0741,0.5364
3.2860,-0.8568,-0.0723,0.5526
3.2870,-0.8568,-0.0723,0.5526
3.2870,-0.8568,-0.0723,0.5526
3.3050,-0.8346,-0.0726,0.5714
3.3050,-0.8346,-0.0726,0.5714
3.3060,-0.8346,-0.0726,0.5714
3.3240,-0.8368,-0.0675,0.5660
3.3240,-0.8368,-0.0675,0.5660
3.3250,-0.8368,-0.0675,0.5660
3.3260,-0.8368,-0.0675,0.5660
3.3260,-0.8368,-0.0675,0.5660
3.3430,-0.8678,-0.0692,0.5633
3.4220,-0.8678,-0.0692,0.5633
3.4230,-0.8678,-0.0692,0.5633
3.4230,-0.8519,-0.0936,0.5438
3.4230,-0.8519,-0.0936,0.5438
3.4230,-0.8519,-0.0936,0.5438
3.4240,-0.8522,-0.1019,0.5269
3.4240,-0.8522,-0.1019,0.5269
3.4240,-0.8522,-0.1019,0.5269
3.4240,-0.8407,-0.0914,0.5443
3.4250,-0.8407,-0.0914,0.5443
3.4250,-0.8407,-0.0914,0.5443
3.4250,-0.8407,-0.0914,0.5443
3.4250,-0.8407,-0.0914,0.5443
3.4260,-0.8407,-0.0914,0.5443
3.4260,-0.8473,-0.0792,0.5259
3.4260,-0.8473,-0.0792,0.5259
3.4260,-0.8473,-0.0792,0.5259
3.4400,-0.8439,-0.0821,0.5137
3.4410,-0.8439,-0.0821,0.5137
3.4410,-0.8439,-0.0821,0.5137
3.4610,-0.8290,-0.0758,0.5005
3.4610,-0.8290,-0.0758,0.5005
3.4610,-0.8290,-0.0758,0.5005
3.4800,-0.8304,-0.0755,0.5279
3.4800,-0.8304,-0.0755,0.5279
3.4810,-0.8304,-0.0755,0.5279
3.4840,-0.8304,-0.0755,0.5279
3.4840,-0.8304,-0.0755,0.5279
3.5010,-0.8395,-0.0726,0.5589
3.5010,-0.8395,-0.0726,0.5589
3.5010,-0.8395,-0.0726,0.5589
3.5230,-0.8392,-0.0572,0.5406
3.5230,-0.8392,-0.0572,0.5406
3.5230,-0.8392,-0.0572,0.5406
3.5410,-0.8258,-0.0692,0.5206
3.5410,-0.8258,-0.0692,0.5206
3.5410,-0.8258,-0.0692,0.5206
3.5610,-0.8537,-0.0824,0.5430
3.5610,-0.8537,-0.0824,0.5430
3.5620,-0.8537,-0.0824,0.5430
3.5630,-0.8537,-0.0824,0.5430
3.5640,-0.8537,-0.0824,0.5430
3.5810,-0.8822,-0.0687,0.5394
3.5820,-0.8822,-0.0687,0.5394
3.5820,-0.8822,-0.0687,0.5394
3.6010,-0.8615,-0.0587,0.5421
3.6010,-0.8615,-0.0587,0.5421
3.6020,-0.8615,-0.0587,0.5421
3.6060,-0.8615,-0.0587,0.5421
3.6200,-0.8314,-0.0611,0.5364
3.6210,-0.8314,-0.0611,0.5364
3.6210,-0.8314,-0.0611,0.5364
3.6420,-0.8329,-0.0657,0.5308
3.6420,-0.8329,-0.0657,0.5308
3.6430,-0.8329,-0.0657,0.5308
3.6440,-0.8329,-0.0657,0.5308
3.6440,-0.8329,-0.0657,0.5308
3.6610,-0.8507,-0.0934,0.5709
3.6610,-0.8507,-0.0934,0.5709
3.6620,-0.8507,-0.0934,0.5709
3.6810,-0.8419,-0.1239,0.5665
3.6820,-0.8419,-0.1239,0.5665
3.6820,-0.8419,-0.1239,0.5665
3.7010,-0.8182,-0.1312,0.5435
3.7020,-0.8182,-0.1312,0.5435
3.7020,-0.8182,-0.1312,0.5435
3.7210,-0.8585,-0.1195,0.5430
3.7220,-0.8585,-0.1195,0.5430
3.7220,-0.8585,-0.1195,0.5430
3.7240,-0.8585,-0.1195,0.5430
3.7240,-0.8585,-0.1195,0.5430
3.7400,-0.8607,-0.0953,0.5469
3.7400,-0.8607,-0.0953,0.5469
3.7410,-0.8607,-0.0953,0.5469
3.7600,-0.8461,-0.0765,0.5587
3.7600,-0.8461,-0.0765,0.5587
3.7610,-0.8461,-0.0765,0.5587
3.7800,-0.8549,-0.0609,0.5413
3.7810,-0.8549,-0.0609,0.5413
3.7810,-0.8549,-0.0609,0.5413
3.8010,-0.8607,-0.0775,0.5443
3.8030,-0.8607,-0.0775,0.5443
3.8030,-0.8607,-0.0775,0.5443
3.8040,-0.8607,-0.0775,0.5443
3.8040,-0.8607,-0.0775,0.5443
3.8050,-0.8607,-0.0775,0.5443
3.8190,-0.8639,-0.1141,0.5584
3.8200,-0.8639,-0.1141,0.5584
3.8200,-0.8639,-0.1141,0.5584
3.8390,-0.8461,-0.1061,0.5489
3.8400,-0.8461,-0.1061,0.5489
3.8400,-0.8461,-0.1061,0.5489
3.8590,-0.8629,-0.0841,0.5416
3.8600,-0.8629,-0.0841,0.5416
3.8600,-0.8629,-0.0841,0.5416
3.8830,-0.8810,-0.0704,0.5452
3.8840,-0.8810,-0.0704,0.5452
3.8840,-0.8810,-0.0704,0.5452
3.8850,-0.8810,-0.0704,0.5452
3.8850,-0.8810,-0.0704,0.5452
3.9510,-0.8681,-0.0741,0.5386
3.9510,-0.8681,-0.0741,0.5386
3.9520,-0.8681,-0.0741,0.5386
3.9520,-0.8434,-0.0770,0.5186
3.9520,-0.8434,-0.0770,0.5186
3.9520,-0.8434,-0.0770,0.5186
3.9530,-0.8273,-0.0938,0.5323
3.9530,-0.8273,-0.0938,0.5323
3.9530,-0.8273,-0.0938,0.5323
3.9580,-0.8009,-0.1036,0.5198
3.9580,-0.8009,-0.1036,0.5198
3.9580,-0.8009,-0.1036,0.5198
3.9610,-0.8009,-0.1036,0.5198
3.9610,-0.8009,-0.1036,0.5198
3.9780,-0.8004,-0.0953,0.5247
3.9780,-0.8004,-0.0953,0.5247
3.9780,-0.8004,-0.0953,0.5247
3.9970,-0.8197,-0.0858,0.5494
3.9980,-0.8197,-0.0858,0.5494
3.9980,-0.8197,-0.0858,0.5494
4.0020,-0.8197,-0.0858,0.5494
4.0170,-0.8644,-0.0714,0.5579
4.0170,-0.8644,-0.0714,0.5579
4.0180,-0.8644,-0.0714,0.5579
4.0370,-0.8771,-0.0743,0.5731
4.0370,-0.8771,-0.0743,0.5731
4.0370,-0.8771,-0.0743,0.5731
4.0400,-0.8771,-0.0743,0.5731
4.0400,-0.8771,-0.0743,0.5731
4.0570,-0.8517,-0.0704,0.5553
4.0570,-0.8517,-0.0704,0.5553
4.0570,-0.8517,-0.0704,0.5553
4.0770,-0.8620,-0.0562,0.5379
4.0770,-0.8620,-0.0562,0.5379
4.0770,-0.8620,-0.0562,0.5379
4.0970,-0.8475,-0.0633,0.5325
4.0970,-0.8475,-0.0633,0.5325
4.0970,-0.8475,-0.0633,0.5325
4.1160,-0.7979,-0.0804,0.5345
4.1170,-0.7979,-0.0804,0.5345
4.1170,-0.7979,-0.0804,0.5345
4.1210,-0.7979,-0.0804,0.5345
4.1210,-0.7979,-0.0804,0.5345
4.1360,-0.8060,-0.0816,0.5399
4.1360,-0.8060,-0.0816,0.5399
4.1370,-0.8060,-0.0816,0.5399
4.1570,-0.8441,-0.0804,0.5416
4.1570,-0.8441,-0.0804,0.5416
4.1570,-0.8441,-0.0804,0.5416
4.1590,-0.8441,-0.0804,0.5416
4.1770,-0.8576,-0.0907,0.5518
4.1780,-0.8576,-0.0907,0.5518
4.1780,-0.8576,-0.0907,0.5518
4.1970,-0.8527,-0.1039,0.5765
4.1970,-0.8527,-0.1039,0.5765
4.1970,-0.8527,-0.1039,0.5765
4.2010,-0.8527,-0.1039,0.5765
4.2010,-0.8527,-0.1039,0.5765
4.2010,-0.8527,-0.1039,0.5765
4.2160,-0.8935,-0.0982,0.5597
4.2170,-0.8935,-0.0982,0.5597
4.2170,-0.8935,-0.0982,0.5597
4.2370,-0.8847,-0.0992,0.5496
4.2370,-0.8847,-0.0992,0.5496
4.2370,-0.8847,-0.0992,0.5496
4.2570,-0.8439,-0.0951,0.5335
4.2570,-0.8439,-0.0951,0.5335
4.2570,-0.8439,-0.0951,0.5335
4.2780,-0.8590,-0.0753,0.5166
4.2780,-0.8590,-0.0753,0.5166
4.2780,-0.8590,-0.0753,0.5166
4.2810,-0.8590,-0.0753,0.5166
4.2810,-0.8590,-0.0753,0.5166
4.2960,-0.8463,-0.0772,0.5289
4.2960,-0.8463,-0.0772,0.5289
4.2960,-0.8463,-0.0772,0.5289
4.3170,-0.8214,-0.0694,0.5359
4.3180,-0.8214,-0.0694,0.5359
4.3180,-0.8214,-0.0694,0.5359
4.3360,-0.8233,-0.0736,0.5592
4.3360,-0.8233,-0.0736,0.5592
4.3360,-0.8233,-0.0736,0.5592
4.3550,-0.8463,-0.0760,0.5592
4.3560,-0.8463,-0.0760,0.5592
4.3560,-0.8463,-0.0760,0.5592
4.3590,-0.8463,-0.0760,0.5592
4.3590,-0.8463,-0.0760,0.5592
4.3600,-0.8463,-0.0760,0.5592
4.3750,-0.8739,-0.0697,0.5504
4.3750,-0.8739,-0.0697,0.5504
4.3750,-0.8739,-0.0697,0.5504
4.3950,-0.8473,-0.0772,0.5533
4.3950,-0.8473,-0.0772,0.5533
4.3950,-0.8473,-0.0772,0.5533
4.3990,-0.8473,-0.0772,0.5533
4.4150,-0.8581,-0.0780,0.5548
4.4160,-0.8581,-0.0780,0.5548
4.4160,-0.8581,-0.0780,0.5548
4.4350,-0.8581,-0.0753,0.5650
4.4350,-0.8581,-0.0753,0.5650
4.4740,-0.8581,-0.0753,0.5650
4.4750,-0.8581,-0.0753,0.5650
4.4900,-0.8581,-0.0753,0.5650
4.4910,-0.8458,-0.0657,0.5482
4.4910,-0.8458,-0.0657,0.5482
4.4910,-0.8458,-0.0657,0.5482
4.4910,-0.8571,-0.0633,0.5301
4.4920,-0.8571,-0.0633,0.5301
4.4920,-0.8571,-0.0633,0.5301
4.4950,-0.8451,-0.0848,0.5303
4.4950,-0.8451,-0.0848,0.5303
4.4950,-0.8451,-0.0848,0.5303
4.5150,-0.8290,-0.0907,0.5303
4.5160,-0.8290,-0.0907,0.5303
4.5160,-0.8290,-0.0907,0.5303
4.5190,-0.8290,-0.0907,0.5303
4.5190,-0.8290,-0.0907,0.5303
4.5350,-0.8317,-0.0675,0.5342
4.5350,-0.8317,-0.0675,0.5342
4.5350,-0.8317,-0.0675,0.5342
4.5550,-0.8373,-0.0569,0.5377
4.5550,-0.8373,-0.0569,0.5377
4.5550,-0.8373,-0.0569,0.5377
4.5740,-0.8326,-0.0635,0.5318
4.5740,-0.8326,-0.0635,0.5318
4.5740,-0.8326,-0.0635,0.5318
4.5950,-0.8317,-0.0750,0.5428
4.5950,-0.8317,-0.0750,0.5428
4.5950,-0.8317,-0.0750,0.5428
4.5980,-0.8317,-0.0750,0.5428
4.5980,-0.8317,-0.0750,0.5428
4.6010,-0.8317,-0.0750,0.5428
4.6140,-0.8143,-0.0767,0.5509
4.6140,-0.8143,-0.0767,0.5509
4.6140,-0.8143,-0.0767,0.5509
4.6340,-0.8378,-0.0726,0.5496
4.6340,-0.8378,-0.0726,0.5496
4.6340,-0.8378,-0.0726,0.5496
4.6540,-0.8510,-0.0594,0.5469
4.6540,-0.8510,-0.0594,0.5469
4.6540,-0.8510,-0.0594,0.5469
4.6740,-0.8363,-0.0486,0.5521
4.6740,-0.8363,-0.0486,0.5521
4.6740,-0.8363,-0.0486,0.5521
4.6780,-0.8363,-0.0486,0.5521
4.6780,-0.8363,-0.0486,0.5521
4.6950,-0.8551,-0.0391,0.5352
4.6950,-0.8551,-0.0391,0.5352
4.6950,-0.8551,-0.0391,0.5352
4.7130,-0.8627,-0.0413,0.5213
4.7140,-0.8627,-0.0413,0.5213
4.7140,-0.8627,-0.0413,0.5213
4.7340,-0.8490,-0.0491,0.5320
4.7340,-0.8490,-0.0491,0.5320
4.7340,-0.8490,-0.0491,0.5320
4.7540,-0.8402,-0.0547,0.5496
4.7540,-0.8402,-0.0547,0.5496
4.7540,-0.8402,-0.0547,0.5496
4.7570,-0.8402,-0.0547,0.5496
4.7570,-0.8402,-0.0547,0.5496
4.7730,-0.8463,-0.0662,0.5565
4.7740,-0.8463,-0.0662,0.5565
4.7740,-0.8463,-0.0662,0.5565
4.7930,-0.8578,-0.0868,0.5494
4.7940,-0.8578,-0.0868,0.5494
4.7940,-0.8578,-0.0868,0.5494
4.7960,-0.8578,-0.0868,0.5494
4.8130,-0.8434,-0.0958,0.5408
4.8130,-0.8434,-0.0958,0.5408
4.8130,-0.8434,-0.0958,0.5408
4.8340,-0.8180,-0.0943,0.5643
4.8340,-0.8180,-0.0943,0.5643
4.8340,-0.8180,-0.0943,0.5643
4.8370,-0.8180,-0.0943,0.5643
4.8380,-0.8180,-0.0943,0.5643
4.8540,-0.8515,-0.0794,0.5785
4.8540,-0.8515,-0.0794,0.5785
4.8550,-0.8515,-0.0794,0.5785
4.8730,-0.8994,-0.0738,0.5660
4.8730,-0.8994,-0.0738,0.5660
4.8730,-0.8994,-0.0738,0.5660
4.8930,-0.8698,-0.0953,0.5469
4.8930,-0.8698,-0.0953,0.5469
4.8930,-0.8698,-0.0953,0.5469
4.9130,-0.8243,-0.1022,0.5357
4.9140,-0.8243,-0.1022,0.5357
4.9140,-0.8243,-0.1022,0.5357
4.9170,-0.8243,-0.1022,0.5357
4.9170,-0.8243,-0.1022,0.5357
4.9330,-0.8353,-0.0738,0.5245
4.9330,-0.8353,-0.0738,0.5245
4.9340,-0.8353,-0.0738,0.5245
4.9530,-0.8439,-0.0513,0.5257
4.9540,-0.8439,-0.0513,0.5257
4.9540,-0.8439,-0.0513,0.5257
4.9730,-0.8194,-0.0611,0.5372
4.9730,-0.8194,-0.0611,0.5372
4.9740,-0.8194,-0.0611,0.5372
4.9930,-0.8075,-0.0738,0.5526
4.9930,-0.8075,-0.0738,0.5526
5.0310,-0.8075,-0.0738,0.5526
5.0310,-0.8075,-0.0738,0.5526
5.0310,-0.8075,-0.0738,0.5526
5.0310,-0.8075,-0.0738,0.5526
5.0310,-0.8358,-0.0748,0.5641
5.0310,-0.8358,-0.0748,0.5641
5.0310,-0.8358,-0.0748,0.5641
5.0340,-0.8766,-0.0692,0.5623
5.0340,-0.8766,-0.0692,0.5623
5.0340,-0.8766,-0.0692,0.5623
5.0530,-0.8764,-0.0667,0.5557
5.0530,-0.8764,-0.0667,0.5557
5.0530,-0.8764,-0.0667,0.5557
5.0720,-0.8620,-0.0782,0.5384
5.0720,-0.8620,-0.0782,0.5384
5.0720,-0.8620,-0.0782,0.5384
5.0750,-0.8620,-0.0782,0.5384
5.0750,-0.8620,-0.0782,0.5384
5.0940,-0.8412,-0.0826,0.5428
5.0940,-0.8412,-0.0826,0.5428
5.0940,-0.8412,-0.0826,0.5428
5.1120,-0.8263,-0.0714,0.5438
5.1120,-0.8263,-0.0714,0.5438
5.1120,-0.8263,-0.0714,0.5438
5.1310,-0.8326,-0.0572,0.5445
5.1310,-0.8326,-0.0572,0.5445
5.1320,-0.8326,-0.0572,0.5445
5.1510,-0.8319,-0.0587,0.5545
5.1510,-0.8319,-0.0587,0.5545
5.1520,-0.8319,-0.0587,0.5545
5.1550,-0.8319,-0.0587,0.5545
5.1550,-0.8319,-0.0587,0.5545
5.1710,-0.8429,-0.0582,0.5418
5.1710,-0.8429,-0.0582,0.5418
5.1710,-0.8429,-0.0582,0.5418
5.1900,-0.8571,-0.0626,0.5289
5.1900,-0.8571,-0.0626,0.5289
5.1900,-0.8571,-0.0626,0.5289
5.1940,-0.8571,-0.0626,0.5289
5.2100,-0.8461,-0.0726,0.5352
5.2100,-0.8461,-0.0726,0.5352
5.2100,-0.8461,-0.0726,0.5352
5.2310,-0.8255,-0.0657,0.5452
5.2320,-0.8255,-0.0657,0.5452
5.2330,-0.8255,-0.0657,0.5452
5.2330,-0.8255,-0.0657,0.5452
5.2330,-0.8255,-0.0657,0.5452
5.2510,-0.8417,-0.0543,0.5518
5.2510,-0.8417,-0.0543,0.5518
5.2510,-0.8417,-0.0543,0.5518
5.2710,-0.8412,-0.0682,0.5802
5.2710,-0.8412,-0.0682,0.5802
5.2710,-0.8412,-0.0682,0.5802
5.2910,-0.8319,-0.0872,0.5860
5.2920,-0.8319,-0.0872,0.5860
5.2920,-0.8319,-0.0872,0.5860
5.3100,-0.8339,-0.0868,0.5579
5.3100,-0.8339,-0.0868,0.5579
5.3110,-0.8339,-0.0868,0.5579
5.3130,-0.8339,-0.0868,0.5579
5.3140,-0.8339,-0.0868,0.5579
5.3310,-0.8705,-0.0753,0.5281
5.3320,-0.8705,-0.0753,0.5281
5.3320,-0.8705,-0.0753,0.5281
5.3520,-0.8644,-0.0797,0.5462
5.3520,-0.8644,-0.0797,0.5462
5.3520,-0.8644,-0.0797,0.5462
5.3740,-0.8456,-0.0699,0.5306
5.3740,-0.8456,-0.0699,0.5306
5.3740,-0.8456,-0.0699,0.5306
5.3900,-0.8473,-0.0428,0.5208
5.3910,-0.8473,-0.0428,0.5208
5.3910,-0.8473,-0.0428,0.5208
5.3930,-0.8473,-0.0428,0.5208
5.3930,-0.8473,-0.0428,0.5208
5.3940,-0.8473,-0.0428,0.5208
5.4090,-0.8302,-0.0650,0.5645
5.4100,-0.8302,-0.0650,0.5645
5.4100,-0.8302,-0.0650,0.5645
5.4300,-0.8158,-0.0714,0.5641
5.4310,-0.8158,-0.0714,0.5641
5.4310,-0.8158,-0.0714,0.5641
5.4500,-0.8219,-0.0477,0.5369
5.4500,-0.8219,-0.0477,0.5369
5.4500,-0.8219,-0.0477,0.5369
5.4720,-0.8615,-0.0528,0.5391
5.4720,-0.8615,-0.0528,0.5391
5.4730,-0.8615,-0.0528,0.5391
5.4730,-0.8615,-0.0528,0.5391
5.4730,-0.8615,-0.0528,0.5391
5.4890,-0.8686,-0.0723,0.5560
5.4900,-0.8686,-0.0723,0.5560
5.4900,-0.8686,-0.0723,0.5560
5.5080,-0.8622,-0.0694,0.5509
5.5080,-0.8622,-0.0694,0.5509
5.5080,-0.8622,-0.0694,0.5509
5.5320,-0.8962,-0.0525,0.5450
5.5320,-0.8962,-0.0525,0.5450
5.5320,-0.8962,-0.0525,0.5450
5.5490,-0.8720,-0.0579,0.5555
5.5880,-0.8720,-0.0579,0.5555
5.5880,-0.8720,-0.0579,0.5555
5.5880,-0.8720,-0.0579,0.5555
5.5880,-0.8720,-0.0579,0.5555
5.5890,-0.8417,-0.0890,0.5550
5.5890,-0.8417,-0.0890,0.5550
5.5890,-0.8417,-0.0890,0.5550
5.5890,-0.7874,-0.1002,0.5384
5.5900,-0.7874,-0.1002,0.5384
5.5900,-0.7874,-0.1002,0.5384
5.5910,-0.7874,-0.1002,0.5384
5.6080,-0.7305,-0.0902,0.5345
5.6080,-0.7305,-0.0902,0.5345
5.6090,-0.7305,-0.0902,0.5345
5.6290,-0.8141,-0.0929,0.5562
5.6290,-0.8141,-0.0929,0.5562
5.6290,-0.8141,-0.0929,0.5562
5.6320,-0.8141,-0.0929,0.5562
5.6320,-0.8141,-0.0929,0.5562
5.6470,-0.8717,-0.1058,0.5719
5.6470,-0.8717,-0.1058,0.5719
5.6480,-0.8717,-0.1058,0.5719
5.6680,-0.8642,-0.0892,0.5367
5.6690,-0.8642,-0.0892,0.5367
5.6690,-0.8642,-0.0892,0.5367
5.6880,-0.8666,-0.0904,0.5587
5.6880,-0.8666,-0.0904,0.5587
5.6890,-0.8666,-0.0904,0.5587
5.7070,-0.8500,-0.0865,0.5760
5.7080,-0.8500,-0.0865,0.5760
5.7080,-0.8500,-0.0865,0.5760
5.7140,-0.8500,-0.0865,0.5760
5.7140,-0.8500,-0.0865,0.5760
5.7320,-0.8449,-0.0601,0.5521
5.7330,-0.8449,-0.0601,0.5521
5.7330,-0.8449,-0.0601,0.5521
5.7480,-0.8537,-0.0679,0.5711
5.7480,-0.8537,-0.0679,0.5711
5.7480,-0.8537,-0.0679,0.5711
5.7480,-0.8537,-0.0679,0.5711
5.7670,-0.8397,-0.0943,0.5772
5.7670,-0.8397,-0.0943,0.5772
5.7670,-0.8397,-0.0943,0.5772
5.7870,-0.8231,-0.0865,0.5469
5.7870,-0.8231,-0.0865,0.5469
5.7870,-0.8231,-0.0865,0.5469
5.7910,-0.8231,-0.0865,0.5469
5.7910,-0.8231,-0.0865,0.5469
5.7910,-0.8231,-0.0865,0.5469
5.8060,-0.8422,-0.0748,0.5623
5.8060,-0.8422,-0.0748,0.5623
5.8070,-0.8422,-0.0748,0.5623
5.8270,-0.8563,-0.0736,0.5882
5.8270,-0.8563,-0.0736,0.5882
5.8270,-0.8563,-0.0736,0.5882
5.8470,-0.8363,-0.0665,0.5648
5.8470,-0.8363,-0.0665,0.5648
5.8480,-0.8363,-0.0665,0.5648
5.8680,-0.8453,-0.0721,0.5592
5.8730,-0.8453,-0.0721,0.5592
5.8750,-0.8453,-0.0721,0.5592
5.8760,-0.8453,-0.0721,0.5592
5.8770,-0.8453,-0.0721,0.5592
5.8880,-0.8485,-0.0858,0.5834
5.8890,-0.8485,-0.0858,0.5834
5.8890,-0.8485,-0.0858,0.5834
5.9070,-0.8260,-0.0758,0.5702
5.9080,-0.8260,-0.0758,0.5702
5.9080,-0.8260,-0.0758,0.5702
5.9280,-0.8370,-0.0626,0.5411
5.9280,-0.8370,-0.0626,0.5411
5.9290,-0.8370,-0.0626,0.5411
5.9480,-0.8595,-0.0692,0.5337
5.9480,-0.8595,-0.0692,0.5337
5.9490,-0.8595,-0.0692,0.5337
5.9560,-0.8595,-0.0692,0.5337
5.9570,-0.8595,-0.0692,0.5337
5.9670,-0.8407,-0.0770,0.5203
5.9680,-0.8407,-0.0770,0.5203
5.9690,-0.8407,-0.0770,0.5203
5.9880,-0.8177,-0.0587,0.5235
5.9880,-0.8177,-0.0587,0.5235
5.9890,-0.8177,-0.0587,0.5235
5.9910,-0.8177,-0.0587,0.5235
6.0060,-0.8231,-0.0357,0.5362
6.0060,-0.8231,-0.0357,0.5362
6.0070,-0.8231,-0.0357,0.5362
6.0270,-0.8446,-0.0367,0.5553
6.0280,-0.8446,-0.0367,0.5553
6.0290,-0.8446,-0.0367,0.5553
6.0320,-0.8446,-0.0367,0.5553
6.0330,-0.8446,-0.0367,0.5553
6.0470,-0.8331,-0.0631,0.5631
6.0470,-0.8331,-0.0631,0.5631
6.0480,-0.8331,-0.0631,0.5631
6.0670,-0.8255,-0.0767,0.5330
6.0670,-0.8255,-0.0767,0.5330
6.0680,-0.8255,-0.0767,0.5330
6.0860,-0.8314,-0.0726,0.5406
6.0870,-0.8314,-0.0726,0.5406
6.1490,-0.8314,-0.0726,0.5406
6.1500,-0.8319,-0.0679,0.5540
6.1500,-0.8319,-0.0679,0.5540
6.1500,-0.8319,-0.0679,0.5540
6.1500,-0.8319,-0.0679,0.5540
6.1500,-0.8319,-0.0679,0.5540
6.1510,-0.8190,-0.0577,0.5457
6.1510,-0.8190,-0.0577,0.5457
6.1510,-0.8190,-0.0577,0.5457
6.1510,-0.8324,-0.0464,0.5511
6.1510,-0.8324,-0.0464,0.5511
6.1510,-0.8324,-0.0464,0.5511
6.1650,-0.8453,-0.0479,0.5621
6.1660,-0.8453,-0.0479,0.5621
6.1660,-0.8453,-0.0479,0.5621
6.1850,-0.8453,-0.0579,0.5570
6.1860,-0.8453,-0.0579,0.5570
6.1860,-0.8453,-0.0579,0.5570
6.1880,-0.8453,-0.0579,0.5570
6.1880,-0.8453,-0.0579,0.5570
6.1890,-0.8453,-0.0579,0.5570
6.2050,-0.8522,-0.0687,0.5484
6.2050,-0.8522,-0.0687,0.5484
6.2050,-0.8522,-0.0687,0.5484
6.2250,-0.8251,-0.0692,0.5753
6.2250,-0.8251,-0.0692,0.5753
6.2260,-0.8251,-0.0692,0.5753
6.2470,-0.8116,-0.0748,0.5843
6.2480,-0.8116,-0.0748,0.5843
6.2480,-0.8116,-0.0748,0.5843
6.2660,-0.8412,-0.0777,0.5694
6.2670,-0.8412,-0.0777,0.5694
6.2670,-0.8412,-0.0777,0.5694
6.2690,-0.8412,-0.0777,0.5694
6.2710,-0.8412,-0.0777,0.5694
6.2860,-0.8884,-0.0892,0.5748
6.2870,-0.8884,-0.0892,0.5748
6.2870,-0.8884,-0.0892,0.5748
6.3080,-0.8908,-0.0968,0.5648
6.3080,-0.8908,-0.0968,0.5648
6.3090,-0.8908,-0.0968,0.5648
6.3240,-0.8620,-0.1007,0.5587
6.3240,-0.8620,-0.1007,0.5587
6.3250,-0.8620,-0.1007,0.5587
6.3460,-0.8620,-0.1007,0.5587
6.3470,-0.8620,-0.0868,0.5469
6.3480,-0.8620,-0.0868,0.5469
6.3480,-0.8620,-0.0868,0.5469
6.3480,-0.8620,-0.0868,0.5469
6.3480,-0.8620,-0.0868,0.5469
6.3630,-0.8339,-0.0731,0.5462
6.3640,-0.8339,-0.0731,0.5462
6.3640,-0.8339,-0.0731,0.5462
6.3830,-0.8097,-0.0626,0.5379
6.3840,-0.8097,-0.0626,0.5379
6.3840,-0.8097,-0.0626,0.5379
6.3850,-0.8097,-0.0626,0.5379
6.4030,-0.8087,-0.0594,0.5157
6.4030,-0.8087,-0.0594,0.5157
6.4030,-0.8087,-0.0594,0.5157
6.4230,-0.8092,-0.0569,0.5130
6.4240,-0.8092,-0.0569,0.5130
6.4240,-0.8092,-0.0569,0.5130
6.4270,-0.8092,-0.0569,0.5130
6.4280,-0.8092,-0.0569,0.5130
6.4430,-0.8243,-0.0650,0.5587
6.4440,-0.8243,-0.0650,0.5587
6.4440,-0.8243,-0.0650,0.5587
6.4640,-0.8348,-0.0628,0.5746
6.4640,-0.8348,-0.0628,0.5746
6.4640,-0.8348,-0.0628,0.5746
6.4840,-0.8295,-0.0648,0.5728
6.4840,-0.8295,-0.0648,0.5728
6.4840,-0.8295,-0.0648,0.5728
6.5050,-0.8138,-0.0885,0.5890
6.5060,-0.8138,-0.0885,0.5890
6.5060,-0.8138,-0.0885,0.5890
6.5070,-0.8138,-0.0885,0.5890
6.5070,-0.8138,-0.0885,0.5890
6.5250,-0.8221,-0.0850,0.5702
6.5260,-0.8221,-0.0850,0.5702
6.5260,-0.8221,-0.0850,0.5702
6.5500,-0.8629,-0.0709,0.5443
6.5510,-0.8629,-0.0709,0.5443
6.5510,-0.8629,-0.0709,0.5443
6.5650,-0.8610,-0.0863,0.5438
6.5680,-0.8610,-0.0863,0.5438
6.5680,-0.8610,-0.0863,0.5438
6.5850,-0.8341,-0.0892,0.5416
6.5860,-0.8341,-0.0892,0.5416
6.5870,-0.8341,-0.0892,0.5416
6.5870,-0.8341,-0.0892,0.5416
6.5880,-0.8341,-0.0892,0.5416
6.5880,-0.8341,-0.0892,0.5416
6.6030,-0.8532,-0.0577,0.5501
6.6040,-0.8532,-0.0577,0.5501
6.6040,-0.8532,-0.0577,0.5501
6.6250,-0.8522,-0.0435,0.5667
6.6250,-0.8522,-0.0435,0.5667
6.6260,-0.8522,-0.0435,0.5667
6.6930,-0.8392,-0.0601,0.5726
6.6930,-0.8392,-0.0601,0.5726
6.6930,-0.8392,-0.0601,0.5726
6.6940,-0.8603,-0.0721,0.5474
6.6940,-0.8603,-0.0721,0.5474
6.6940,-0.8603,-0.0721,0.5474
6.6940,-0.8603,-0.0721,0.5474
6.6940,-0.8603,-0.0721,0.5474
6.6940,-0.8720,-0.0833,0.5235
6.6950,-0.8720,-0.0833,0.5235
6.6950,-0.8720,-0.0833,0.5235
6.7020,-0.8593,-0.0956,0.5440
6.7030,-0.8593,-0.0956,0.5440
6.7030,-0.8593,-0.0956,0.5440
6.7230,-0.8483,-0.0824,0.5565
6.7230,-0.8483,-0.0824,0.5565
6.7230,-0.8483,-0.0824,0.5565
6.7430,-0.8431,-0.0489,0.5460
6.7430,-0.8431,-0.0489,0.5460
6.7430,-0.8431,-0.0489,0.5460
6.7450,-0.8431,-0.0489,0.5460
6.7460,-0.8431,-0.0489,0.5460
6.7630,-0.8605,-0.0369,0.5450
6.7630,-0.8605,-0.0369,0.5450
6.7640,-0.8605,-0.0369,0.5450
6.7830,-0.8541,-0.0455,0.5318
6.7830,-0.8541,-0.0455,0.5318
6.7840,-0.8541,-0.0455,0.5318
6.7840,-0.8541,-0.0455,0.5318
6.8020,-0.8241,-0.0621,0.5345
6.8020,-0.8241,-0.0621,0.5345
6.8030,-0.8241,-0.0621,0.5345
6.8230,-0.8124,-0.0562,0.5406
6.8230,-0.8124,-0.0562,0.5406
6.8240,-0.8124,-0.0562,0.5406
6.8240,-0.8124,-0.0562,0.5406
6.8240,-0.8124,-0.0562,0.5406
6.8420,-0.8463,-0.0557,0.5755
6.8430,-0.8463,-0.0557,0.5755
6.8430,-0.8463,-0.0557,0.5755
6.8620,-0.8578,-0.0635,0.5572
6.8630,-0.8578,-0.0635,0.5572
6.8630,-0.8578,-0.0635,0.5572
6.8820,-0.8370,-0.0750,0.5499
6.8840,-0.8370,-0.0750,0.5499
6.8850,-0.8370,-0.0750,0.5499
6.9030,-0.8414,-0.0877,0.5540
6.9040,-0.8414,-0.0877,0.5540
6.9040,-0.8414,-0.0877,0.5540
6.9050,-0.8414,-0.0877,0.5540
6.9050,-0.8414,-0.0877,0.5540
6.9210,-0.8725,-0.0701,0.5565
6.9220,-0.8725,-0.0701,0.5565
6.9230,-0.8725,-0.0701,0.5565
6.9420,-0.8859,-0.0587,0.5518
6.9440,-0.8859,-0.0587,0.5518
6.9470,-0.8859,-0.0587,0.5518
6.9600,-0.8571,-0.0733,0.5641
6.9600,-0.8571,-0.0733,0.5641
6.9600,-0.8571,-0.0733,0.5641
6.9800,-0.8280,-0.0814,0.5665
6.9800,-0.8280,-0.0814,0.5665
6.9800,-0.8280,-0.0814,0.5665
6.9830,-0.8280,-0.0814,0.5665
6.9840,-0.8280,-0.0814,0.5665
6.9840,-0.8280,-0.0814,0.5665
6.9990,-0.8180,-0.0682,0.5435
6.9990,-0.8180,-0.0682,0.5435
7.0000,-0.8180,-0.0682,0.5435
7.0200,-0.7879,-0.0758,0.5584
7.0200,-0.7879,-0.0758,0.5584
7.0200,-0.7879,-0.0758,0.5584
7.0390,-0.7918,-0.0814,0.5531
7.0390,-0.7918,-0.0814,0.5531
7.0400,-0.7918,-0.0814,0.5531
7.0600,-0.7962,-0.0670,0.5482
7.0600,-0.7962,-0.0670,0.5482
7.0600,-0.7962,-0.0670,0.5482
7.0620,-0.7962,-0.0670,0.5482
7.0620,-0.7962,-0.0670,0.5482
7.0790,-0.8087,-0.0572,0.5384
7.0790,-0.8087,-0.0572,0.5384
7.0800,-0.8087,-0.0572,0.5384
7.1010,-0.8771,-0.0604,0.5621
7.1010,-0.8771,-0.0604,0.5621
7.1020,-0.8771,-0.0604,0.5621
7.1200,-0.9016,-0.0643,0.5816
7.1210,-0.9016,-0.0643,0.5816
7.1210,-0.9016,-0.0643,0.5816
7.1410,-0.8255,-0.0655,0.5643
7.1430,-0.8255,-0.0655,0.5643
7.1430,-0.8255,-0.0655,0.5643
7.1430,-0.8255,-0.0655,0.5643
7.1440,-0.8255,-0.0655,0.5643
7.1600,-0.7811,-0.0692,0.5675
7.1610,-0.7811,-0.0692,0.5675
7.1610,-0.7811,-0.0692,0.5675
7.1800,-0.8483,-0.0675,0.5631
7.1800,-0.8483,-0.0675,0.5631
7.1800,-0.8483,-0.0675,0.5631
7.2540,-0.8483,-0.0675,0.5631
7.2550,-0.8588,-0.0604,0.5557
7.2550,-0.8588,-0.0604,0.5557
7.2550,-0.8588,-0.0604,0.5557
7.2550,-0.8324,-0.0653,0.5609
7.2560,-0.8324,-0.0653,0.5609
7.2560,-0.8324,-0.0653,0.5609
7.2560,-0.8324,-0.0653,0.5609
7.2560,-0.8324,-0.0653,0.5609
7.2560,-0.8378,-0.0721,0.5670
7.2560,-0.8378,-0.0721,0.5670
7.2570,-0.8378,-0.0721,0.5670
7.2580,-0.8686,-0.0809,0.5550
7.2580,-0.8686,-0.0809,0.5550
7.2580,-0.8686,-0.0809,0.5550
7.2780,-0.8361,-0.0992,0.5557
7.2790,-0.8361,-0.0992,0.5557
7.2790,-0.8361,-0.0992,0.5557
7.2980,-0.7960,-0.0997,0.5643
7.2990,-0.7960,-0.0997,0.5643
7.2990,-0.7960,-0.0997,0.5643
7.3010,-0.7960,-0.0997,0.5643
7.3010,-0.7960,-0.0997,0.5643
7.3170,-0.8155,-0.0794,0.5636
7.3180,-0.8155,-0.0794,0.5636
7.3180,-0.8155,-0.0794,0.5636
7.3400,-0.8405,-0.0677,0.5663
7.3400,-0.8405,-0.0677,0.5663
7.3410,-0.8405,-0.0677,0.5663
7.3580,-0.8537,-0.0743,0.5663
7.3600,-0.8537,-0.0743,0.5663
7.3600,-0.8537,-0.0743,0.5663
7.3790,-0.8119,-0.0868,0.5548
7.3800,-0.8119,-0.0868,0.5548
7.3810,-0.8119,-0.0868,0.5548
7.3810,-0.8119,-0.0868,0.5548
7.3820,-0.8119,-0.0868,0.5548
7.3820,-0.8119,-0.0868,0.5548
7.3980,-0.8282,-0.0848,0.5293
7.3990,-0.8282,-0.0848,0.5293
7.3990,-0.8282,-0.0848,0.5293
7.4190,-0.8610,-0.0755,0.5469
7.4190,-0.8610,-0.0755,0.5469
7.4200,-0.8610,-0.0755,0.5469
7.4380,-0.8380,-0.0459,0.5516
7.4390,-0.8380,-0.0459,0.5516
7.4390,-0.8380,-0.0459,0.5516
7.4590,-0.8321,-0.0156,0.5298
7.4600,-0.8321,-0.0156,0.5298
7.4610,-0.8321,-0.0156,0.5298
7.4630,-0.8321,-0.0156,0.5298
7.4640,-0.8321,-0.0156,0.5298
7.4780,-0.8647,-0.0525,0.5491
7.4790,-0.8647,-0.0525,0.5491
7.4800,-0.8647,-0.0525,0.5491
7.4980,-0.8255,-0.1009,0.5838
7.4990,-0.8255,-0.1009,0.5838
7.5000,-0.8255,-0.1009,0.5838
7.5170,-0.8199,-0.0877,0.5878
7.5180,-0.8199,-0.0877,0.5878
7.5180,-0.8199,-0.0877,0.5878
7.5380,-0.8615,-0.0672,0.5787
7.5380,-0.8615,-0.0672,0.5787
7.5380,-0.8615,-0.0672,0.5787
7.5410,-0.8615,-0.0672,0.5787
7.5410,-0.8615,-0.0672,0.5787
7.5570,-0.8686,-0.0868,0.5601
7.5570,-0.8686,-0.0868,0.5601
7.5570,-0.8686,-0.0868,0.5601
7.5760,-0.8686,-0.0868,0.5601
7.5760,-0.8710,-0.1026,0.5670
7.5760,-0.8710,-0.1026,0.5670
7.5760,-0.8710,-0.1026,0.5670
7.5950,-0.8561,-0.0838,0.5653
7.5950,-0.8561,-0.0838,0.5653
7.5960,-0.8561,-0.0838,0.5653
7.6150,-0.8512,-0.0660,0.5579
7.6160,-0.8512,-0.0660,0.5579
7.6160,-0.8512,-0.0660,0.5579
7.6190,-0.8512,-0.0660,0.5579
7.6190,-0.8512,-0.0660,0.5579
7.6350,-0.8392,-0.0714,0.5694
7.6360,-0.8392,-0.0714,0.5694
7.6360,-0.8392,-0.0714,0.5694
7.6550,-0.8092,-0.0606,0.5435
7.6560,-0.8092,-0.0606,0.5435
7.6560,-0.8092,-0.0606,0.5435
7.6760,-0.8319,-0.0457,0.5362
7.6760,-0.8319,-0.0457,0.5362
7.6760,-0.8319,-0.0457,0.5362
7.6950,-0.8617,-0.0613,0.5692
7.6950,-0.8617,-0.0613,0.5692
7.6950,-0.8617,-0.0613,0.5692
7.7000,-0.8617,-0.0613,0.5692
7.7000,-0.8617,-0.0613,0.5692
7.7160,-0.8490,-0.0574,0.5692
7.7160,-0.8490,-0.0574,0.5692
7.7160,-0.8490,-0.0574,0.5692
7.7350,-0.8238,-0.0445,0.5601
7.7350,-0.8238,-0.0445,0.5601
7.7830,-0.8238,-0.0445,0.5601
7.7830,-0.8331,-0.0467,0.5594
7.7830,-0.8331,-0.0467,0.5594
7.7830,-0.8331,-0.0467,0.5594
7.7830,-0.8331,-0.0467,0.5594
7.7830,-0.8449,-0.0508,0.5477
7.7830,-0.8449,-0.0508,0.5477
7.7830,-0.8449,-0.0508,0.5477
7.7840,-0.8449,-0.0508,0.5477
7.7840,-0.8449,-0.0508,0.5477
7.7960,-0.8126,-0.0684,0.5553
7.7960,-0.8126,-0.0684,0.5553
7.7960,-0.8126,-0.0684,0.5553
7.8150,-0.8260,-0.0645,0.5531
7.8150,-0.8260,-0.0645,0.5531
7.8160,-0.8260,-0.0645,0.5531
7.8350,-0.8339,-0.0496,0.5423
7.8350,-0.8339,-0.0496,0.5423
7.8350,-0.8339,-0.0496,0.5423
7.8570,-0.8006,-0.0435,0.5262
7.8570,-0.8006,-0.0435,0.5262
7.8570,-0.8006,-0.0435,0.5262
7.8580,-0.8006,-0.0435,0.5262
7.8580,-0.8006,-0.0435,0.5262
7.8770,-0.7872,-0.0450,0.5355
7.8770,-0.7872,-0.0450,0.5355
7.8780,-0.7872,-0.0450,0.5355
7.8960,-0.8236,-0.0513,0.5719
7.8970,-0.8236,-0.0513,0.5719
7.8970,-0.8236,-0.0513,0.5719
7.9160,-0.8490,-0.0508,0.5777
7.9170,-0.8490,-0.0508,0.5777
7.9170,-0.8490,-0.0508,0.5777
7.9350,-0.8551,-0.0635,0.5887
7.9350,-0.8551,-0.0635,0.5887
7.9360,-0.8551,-0.0635,0.5887
7.9360,-0.8551,-0.0635,0.5887
7.9370,-0.8551,-0.0635,0.5887
7.9570,-0.8248,-0.0924,0.6139
7.9580,-0.8248,-0.0924,0.6139
7.9590,-0.8248,-0.0924,0.6139
7.9780,-0.8248,-0.0924,0.6139
7.9790,-0.8043,-0.0692,0.5865
7.9790,-0.8043,-0.0692,0.5865
7.9800,-0.8043,-0.0692,0.5865
7.9960,-0.8519,-0.0601,0.5707
7.9970,-0.8519,-0.0601,0.5707
7.9970,-0.8519,-0.0601,0.5707
8.0150,-0.8603,-0.0814,0.5948
8.0160,-0.8603,-0.0814,0.5948
8.0170,-0.8603,-0.0814,0.5948
8.0180,-0.8603,-0.0814,0.5948
8.0180,-0.8603,-0.0814,0.5948
8.0360,-0.8417,-0.0794,0.5834
8.0370,-0.8417,-0.0794,0.5834
8.0370,-0.8417,-0.0794,0.5834
8.0550,-0.8226,-0.0623,0.5516
8.0550,-0.8226,-0.0623,0.5516
8.0560,-0.8226,-0.0623,0.5516
8.0750,-0.8221,-0.0618,0.5636
8.0760,-0.8221,-0.0618,0.5636
8.0770,-0.8221,-0.0618,0.5636
8.0960,-0.8319,-0.0616,0.5760
8.0970,-0.8319,-0.0616,0.5760
8.0970,-0.8319,-0.0616,0.5760
8.0980,-0.8319,-0.0616,0.5760
8.0980,-0.8319,-0.0616,0.5760
8.1170,-0.8568,-0.0631,0.5601
8.1180,-0.8568,-0.0631,0.5601
8.1180,-0.8568,-0.0631,0.5601
8.1410,-0.8756,-0.0743,0.5531
8.1420,-0.8756,-0.0743,0.5531
8.1420,-0.8756,-0.0743,0.5531
8.1530,-0.8519,-0.0882,0.5565
8.1530,-0.8519,-0.0882,0.5565
8.1540,-0.8519,-0.0882,0.5565
8.1770,-0.8519,-0.0882,0.5565
8.1770,-0.8084,-0.0745,0.5611
8.1780,-0.8084,-0.0745,0.5611
8.1780,-0.8084,-0.0745,0.5611
8.1780,-0.8084,-0.0745,0.5611
8.1780,-0.8084,-0.0745,0.5611
8.1940,-0.8277,-0.0523,0.5557
8.1940,-0.8277,-0.0523,0.5557
8.1940,-0.8277,-0.0523,0.5557
8.2120,-0.8299,-0.0503,0.5660
8.2120,-0.8299,-0.0503,0.5660
8.2120,-0.8299,-0.0503,0.5660
8.2330,-0.8251,-0.0648,0.5728
8.2330,-0.8251,-0.0648,0.5728
8.2330,-0.8251,-0.0648,0.5728
8.2520,-0.8373,-0.0628,0.5748
8.2520,-0.8373,-0.0628,0.5748
8.2530,-0.8373,-0.0628,0.5748
8.2540,-0.8373,-0.0628,0.5748
8.2540,-0.8373,-0.0628,0.5748
8.2730,-0.8480,-0.0577,0.5775
8.2730,-0.8480,-0.0577,0.5775
8.2740,-0.8480,-0.0577,0.5775
8.2930,-0.8368,-0.0550,0.5675
8.3450,-0.8368,-0.0550,0.5675
8.3450,-0.8368,-0.0550,0.5675
8.3460,-0.8248,-0.0623,0.5682
8.3460,-0.8248,-0.0623,0.5682
8.3460,-0.8248,-0.0623,0.5682
8.3460,-0.8053,-0.0609,0.5516
8.3460,-0.8053,-0.0609,0.5516
8.3460,-0.8053,-0.0609,0.5516
8.3460,-0.8053,-0.0609,0.5516
8.3470,-0.8053,-0.0609,0.5516
8.3550,-0.7945,-0.0491,0.5416
8.3550,-0.7945,-0.0491,0.5416
8.3550,-0.7945,-0.0491,0.5416
8.3720,-0.7945,-0.0491,0.5416
8.3740,-0.8192,-0.0381,0.5433
8.3740,-0.8192,-0.0381,0.5433
8.3740,-0.8192,-0.0381,0.5433
8.3950,-0.8427,-0.0420,0.5692
8.3960,-0.8427,-0.0420,0.5692
8.3960,-0.8427,-0.0420,0.5692
8.4150,-0.8346,-0.0467,0.5743
8.4150,-0.8346,-0.0467,0.5743
8.4150,-0.8346,-0.0467,0.5743
8.4150,-0.8346,-0.0467,0.5743
8.4150,-0.8346,-0.0467,0.5743
8.4340,-0.8124,-0.0457,0.5741
8.4340,-0.8124,-0.0457,0.5741
8.4340,-0.8124,-0.0457,0.5741
8.4570,-0.8363,-0.0374,0.5748
8.4580,-0.8363,-0.0374,0.5748
8.4580,-0.8363,-0.0374,0.5748
8.4710,-0.8490,-0.0459,0.5897
8.4730,-0.8490,-0.0459,0.5897
8.4740,-0.8490,-0.0459,0.5897
8.4900,-0.8326,-0.0565,0.5997
8.4910,-0.8326,-0.0565,0.5997
8.4910,-0.8326,-0.0565,0.5997
8.4930,-0.8326,-0.0565,0.5997
8.4930,-0.8326,-0.0565,0.5997
8.5120,-0.8168,-0.0606,0.5892
8.5130,-0.8168,-0.0606,0.5892
8.5130,-0.8168,-0.0606,0.5892
8.5310,-0.8446,-0.0574,0.5782
8.5310,-0.8446,-0.0574,0.5782
8.5310,-0.8446,-0.0574,0.5782
8.5560,-0.8221,-0.0660,0.5924
8.5570,-0.8221,-0.0660,0.5924
8.5580,-0.8221,-0.0660,0.5924
8.5710,-0.8221,-0.0660,0.5924
8.5720,-0.7992,-0.0653,0.5616
8.5730,-0.7992,-0.0653,0.5616
8.5730,-0.7992,-0.0653,0.5616
8.5740,-0.7992,-0.0653,0.5616
8.5740,-0.7992,-0.0653,0.5616
8.5930,-0.8209,-0.0704,0.5843
8.5940,-0.8209,-0.0704,0.5843
8.5940,-0.8209,-0.0704,0.5843
8.6160,-0.8258,-0.0755,0.6088
8.6160,-0.8258,-0.0755,0.6088
8.6170,-0.8258,-0.0755,0.6088
8.6330,-0.8309,-0.0775,0.6032
8.6340,-0.8309,-0.0775,0.6032
8.6340,-0.8309,-0.0775,0.6032
8.6530,-0.8475,-0.0870,0.5741
8.6540,-0.8475,-0.0870,0.5741
8.6540,-0.8475,-0.0870,0.5741
8.6550,-0.8475,-0.0870,0.5741
8.6560,-0.8475,-0.0870,0.5741
8.6730,-0.8282,-0.0890,0.5733
8.6740,-0.8282,-0.0890,0.5733
8.6750,-0.8282,-0.0890,0.5733
8.6940,-0.8058,-0.0723,0.5702
8.6950,-0.8058,-0.0723,0.5702
8.6950,-0.8058,-0.0723,0.5702
8.7120,-0.8104,-0.0555,0.5939
8.7120,-0.8104,-0.0555,0.5939
8.7130,-0.8104,-0.0555,0.5939
8.7360,-0.8475,-0.0296,0.5809
8.7370,-0.8475,-0.0296,0.5809
8.7370,-0.8475,-0.0296,0.5809
8.7370,-0.8475,-0.0296,0.5809
8.7370,-0.8475,-0.0296,0.5809
8.7510,-0.8153,-0.0354,0.5860
8.7510,-0.8153,-0.0354,0.5860
8.7510,-0.8153,-0.0354,0.5860
8.7670,-0.8153,-0.0354,0.5860
8.7770,-0.7921,-0.0694,0.5865
8.7770,-0.7921,-0.0694,0.5865
8.7770,-0.7921,-0.0694,0.5865
8.7880,-0.8175,-0.0613,0.5728
8.7890,-0.8175,-0.0613,0.5728
8.7890,-0.8175,-0.0613,0.5728
8.8080,-0.8292,-0.0494,0.5948
8.8080,-0.8292,-0.0494,0.5948
8.8090,-0.8292,-0.0494,0.5948
8.8110,-0.8292,-0.0494,0.5948
8.8110,-0.8292,-0.0494,0.5948
8.8310,-0.8331,-0.0518,0.5924
8.8310,-0.8331,-0.0518,0.5924
8.8310,-0.8331,-0.0518,0.5924
8.8640,-0.8150,-0.0572,0.5750
8.8640,-0.8150,-0.0572,0.5750
8.8640,-0.8150,-0.0572,0.5750
8.8700,-0.8018,-0.0540,0.5628
8.8700,-0.8018,-0.0540,0.5628
8.8700,-0.8018,-0.0540,0.5628
8.8900,-0.8209,-0.0494,0.5653
8.8900,-0.8209,-0.0494,0.5653
8.8900,-0.8209,-0.0494,0.5653
8.8900,-0.8209,-0.0494,0.5653
8.8900,-0.8209,-0.0494,0.5653
8.9120,-0.8146,-0.0511,0.5750
8.9130,-0.8146,-0.0511,0.5750
8.9130,-0.8146,-0.0511,0.5750
8.9300,-0.7962,-0.0513,0.5777
8.9300,-0.7962,-0.0513,0.5777
8.9300,-0.7962,-0.0513,0.5777
8.9500,-0.8116,-0.0423,0.5621
8.9510,-0.8116,-0.0423,0.5621
8.9510,-0.8116,-0.0423,0.5621
8.9670,-0.8116,-0.0423,0.5621
8.9700,-0.7965,-0.0376,0.5804
8.9700,-0.7965,-0.0376,0.5804
8.9710,-0.7965,-0.0376,0.5804
8.9710,-0.7965,-0.0376,0.5804
8.9720,-0.7965,-0.0376,0.5804
8.9930,-0.8339,-0.0357,0.5802
8.9930,-0.8339,-0.0357,0.5802
8.9940,-0.8339,-0.0357,0.5802
9.0100,-0.8370,-0.0479,0.5851
9.0110,-0.8370,-0.0479,0.5851
9.0110,-0.8370,-0.0479,0.5851
9.0340,-0.8163,-0.0506,0.5748
9.0370,-0.8163,-0.0506,0.5748
9.0380,-0.8163,-0.0506,0.5748
9.0480,-0.8231,-0.0386,0.5689
9.0490,-0.8231,-0.0386,0.5689
9.0490,-0.8231,-0.0386,0.5689
9.0500,-0.8231,-0.0386,0.5689
9.0510,-0.8231,-0.0386,0.5689
9.0730,-0.8473,-0.0308,0.5677
9.0750,-0.8473,-0.0308,0.5677
9.0750,-0.8473,-0.0308,0.5677
9.0930,-0.8292,-0.0418,0.5711
9.0930,-0.8292,-0.0418,0.5711
9.0940,-0.8292,-0.0418,0.5711
9.1090,-0.8094,-0.0528,0.5719
9.1090,-0.8094,-0.0528,0.5719
9.1100,-0.8094,-0.0528,0.5719
9.1280,-0.8180,-0.0565,0.5926
9.1290,-0.8180,-0.0565,0.5926
9.1290,-0.8180,-0.0565,0.5926
9.1300,-0.8180,-0.0565,0.5926
9.1300,-0.8180,-0.0565,0.5926
9.1520,-0.8378,-0.0499,0.5812
9.1530,-0.8378,-0.0499,0.5812
9.1540,-0.8378,-0.0499,0.5812
9.1660,-0.8378,-0.0499,0.5812
9.1690,-0.8287,-0.0501,0.6012
9.1700,-0.8287,-0.0501,0.6012
9.1710,-0.8287,-0.0501,0.6012
9.1910,-0.8346,-0.0569,0.6058
9.1910,-0.8346,-0.0569,0.6058
9.1920,-0.8346,-0.0569,0.6058
9.2080,-0.8603,-0.0538,0.5873
9.2090,-0.8603,-0.0538,0.5873
9.2130,-0.8603,-0.0538,0.5873
9.2140,-0.8603,-0.0538,0.5873
9.2150,-0.8603,-0.0538,0.5873
9.2310,-0.8258,-0.0667,0.5868
9.2320,-0.8258,-0.0667,0.5868
9.2330,-0.8258,-0.0667,0.5868
9.2490,-0.7977,-0.0777,0.5934
9.2510,-0.7977,-0.0777,0.5934
9.2530,-0.7977,-0.0777,0.5934
9.2680,-0.8309,-0.0657,0.5856
9.2730,-0.8309,-0.0657,0.5856
9.2740,-0.8309,-0.0657,0.5856
9.2880,-0.8583,-0.0567,0.5802
9.2890,-0.8583,-0.0567,0.5802
9.2910,-0.8583,-0.0567,0.5802
9.2920,-0.8583,-0.0567,0.5802
9.2930,-0.8583,-0.0567,0.5802
9.3090,-0.8153,-0.0667,0.5645
9.3100,-0.8153,-0.0667,0.5645
9.3100,-0.8153,-0.0667,0.5645
9.3270,-0.7706,-0.0719,0.5609
9.3280,-0.7706,-0.0719,0.5609
9.3330,-0.7706,-0.0719,0.5609
9.3450,-0.7987,-0.0472,0.5997
9.3450,-0.7987,-0.0472,0.5997
9.3460,-0.7987,-0.0472,0.5997
9.3620,-0.7987,-0.0472,0.5997
9.3650,-0.8683,-0.0374,0.6024
9.3650,-0.8683,-0.0374,0.6024
9.3660,-0.8683,-0.0374,0.6024
9.3670,-0.8683,-0.0374,0.6024
9.3670,-0.8683,-0.0374,0.6024
9.3870,-0.8615,-0.0567,0.5733
9.3870,-0.8615,-0.0567,0.5733
9.4340,-0.8615,-0.0567,0.5733
9.4340,-0.8087,-0.0728,0.5631
9.4340,-0.8087,-0.0728,0.5631
9.4340,-0.8087,-0.0728,0.5631
9.4350,-0.8111,-0.0513,0.5628
9.4360,-0.8111,-0.0513,0.5628
9.4370,-0.8111,-0.0513,0.5628
9.4460,-0.8397,-0.0283,0.5731
9.4470,-0.8397,-0.0283,0.5731
9.4470,-0.8397,-0.0283,0.5731
9.4470,-0.8397,-0.0283,0.5731
9.4470,-0.8397,-0.0283,0.5731
9.4680,-0.8409,-0.0301,0.5748
9.4680,-0.8409,-0.0301,0.5748
9.4690,-0.8409,-0.0301,0.5748
9.4860,-0.8045,-0.0403,0.5733
9.4860,-0.8045,-0.0403,0.5733
9.4860,-0.8045,-0.0403,0.5733
9.5060,-0.8089,-0.0393,0.5748
9.5070,-0.8089,-0.0393,0.5748
9.5070,-0.8089,-0.0393,0.5748
9.5260,-0.8329,-0.0384,0.5868
9.5260,-0.8329,-0.0384,0.5868
9.5260,-0.8329,-0.0384,0.5868
9.5270,-0.8329,-0.0384,0.5868
9.5270,-0.8329,-0.0384,0.5868
9.5480,-0.8417,-0.0481,0.5924
9.5480,-0.8417,-0.0481,0.5924
9.5490,-0.8417,-0.0481,0.5924
9.5640,-0.8417,-0.0481,0.5924
9.5660,-0.8431,-0.0574,0.5782
9.5660,-0.8431,-0.0574,0.5782
9.5670,-0.8431,-0.0574,0.5782
9.5870,-0.8199,-0.0591,0.5882
9.5870,-0.8199,-0.0591,0.5882
9.5870,-0.8199,-0.0591,0.5882
9.6050,-0.8014,-0.0477,0.5956
9.6050,-0.8014,-0.0477,0.5956
9.6060,-0.8014,-0.0477,0.5956
9.6060,-0.8014,-0.0477,0.5956
9.6070,-0.8014,-0.0477,0.5956
9.6260,-0.8070,-0.0371,0.5870
9.6270,-0.8070,-0.0371,0.5870
9.6270,-0.8070,-0.0371,0.5870
9.6450,-0.8243,-0.0349,0.5724
9.6460,-0.8243,-0.0349,0.5724
9.6480,-0.8243,-0.0349,0.5724
9.6650,-0.8065,-0.0428,0.5772
9.6650,-0.8065,-0.0428,0.5772
9.6660,-0.8065,-0.0428,0.5772
9.6850,-0.7625,-0.0682,0.5983
9.6860,-0.7625,-0.0682,0.5983
9.6860,-0.7625,-0.0682,0.5983
9.6870,-0.7625,-0.0682,0.5983
9.6870,-0.7625,-0.0682,0.5983
9.7080,-0.8175,-0.0665,0.5719
9.7080,-0.8175,-0.0665,0.5719
9.7090,-0.8175,-0.0665,0.5719
9.7200,-0.8175,-0.0665,0.5719
9.7250,-0.8317,-0.0745,0.6027
9.7250,-0.8317,-0.0745,0.6027
9.7260,-0.8317,-0.0745,0.6027
9.7450,-0.8124,-0.0821,0.6146
9.7460,-0.8124,-0.0821,0.6146
9.7480,-0.8124,-0.0821,0.6146
9.7620,-0.8124,-0.0821,0.6146
9.7640,-0.8199,-0.0479,0.5878
9.7640,-0.8199,-0.0479,0.5878
9.7650,-0.8199,-0.0479,0.5878
9.7660,-0.8199,-0.0479,0.5878
9.7660,-0.8199,-0.0479,0.5878
9.7860,-0.8158,-0.0371,0.5812
9.7870,-0.8158,-0.0371,0.5812
9.7880,-0.8158,-0.0371,0.5812
9.8050,-0.8146,-0.0433,0.5728
9.8060,-0.8146,-0.0433,0.5728
9.8060,-0.8146,-0.0433,0.5728
9.8250,-0.8326,-0.0501,0.6024
9.8260,-0.8326,-0.0501,0.6024
9.8260,-0.8326,-0.0501,0.6024
9.8450,-0.8150,-0.0584,0.5836
9.8450,-0.8150,-0.0584,0.5836
9.8460,-0.8150,-0.0584,0.5836
9.8460,-0.8150,-0.0584,0.5836
9.8470,-0.8150,-0.0584,0.5836
9.8660,-0.7632,-0.0604,0.5557
9.8660,-0.7632,-0.0604,0.5557
9.8670,-0.7632,-0.0604,0.5557
9.8850,-0.8050,-0.0425,0.5687
9.8860,-0.8050,-0.0425,0.5687
9.8870,-0.8050,-0.0425,0.5687
9.9050,-0.8456,-0.0269,0.6014
9.9050,-0.8456,-0.0269,0.6014
9.9060,-0.8456,-0.0269,0.6014
9.9200,-0.8456,-0.0269,0.6014
9.9230,-0.8429,-0.0286,0.5875
9.9230,-0.8429,-0.0286,0.5875
9.9240,-0.8429,-0.0286,0.5875
9.9240,-0.8429,-0.0286,0.5875
9.9250,-0.8429,-0.0286,0.5875
9.9950,-0.8483,-0.0435,0.5772
9.9950,-0.8483,-0.0435,0.5772
9.9950,-0.8483,-0.0435,0.5772
9.9960,-0.8483,-0.0435,0.5772
9.9960,-0.8319,-0.0594,0.5711
9.9960,-0.8319,-0.0594,0.5711
9.9960,-0.8319,-0.0594,0.5711
9.9960,-0.8036,-0.0631,0.5836
9.9960,-0.8036,-0.0631,0.5836
9.9970,-0.8036,-0.0631,0.5836
10.0010,-0.8243,-0.0611,0.5907
10.0020,-0.8243,-0.0611,0.5907
10.0020,-0.8243,-0.0611,0.5907
10.0020,-0.8243,-0.0611,0.5907
10.0020,-0.8243,-0.0611,0.5907
10.0240,-0.8309,-0.0594,0.6061
10.0240,-0.8309,-0.0594,0.6061
10.0240,-0.8309,-0.0594,0.6061
10.0420,-0.8216,-0.0694,0.5887
10.0420,-0.8216,-0.0694,0.5887
10.0420,-0.8216,-0.0694,0.5887
10.0600,-0.8146,-0.0777,0.5633
10.0600,-0.8146,-0.0777,0.5633
10.0600,-0.8146,-0.0777,0.5633
10.0800,-0.8287,-0.0755,0.5599
10.0800,-0.8287,-0.0755,0.5599
10.0800,-0.8287,-0.0755,0.5599
10.0820,-0.8287,-0.0755,0.5599
10.0830,-0.8287,-0.0755,0.5599
10.1040,-0.8537,-0.0711,0.5892
10.1040,-0.8537,-0.0711,0.5892
10.1040,-0.8537,-0.0711,0.5892
10.1220,-0.8615,-0.0633,0.5997
10.1220,-0.8615,-0.0633,0.5997
10.1220,-0.8615,-0.0633,0.5997
10.1430,-0.8104,-0.0613,0.5880
10.1430,-0.8104,-0.0613,0.5880
10.1430,-0.8104,-0.0613,0.5880
10.1590,-0.8104,-0.0613,0.5880
10.1620,-0.8099,-0.0657,0.5860
10.1620,-0.8099,-0.0657,0.5860
10.1620,-0.8099,-0.0657,0.5860
10.1620,-0.8099,-0.0657,0.5860
10.1650,-0.8099,-0.0657,0.5860
10.1840,-0.8370,-0.0613,0.5968
10.1840,-0.8370,-0.0613,0.5968
10.1840,-0.8370,-0.0613,0.5968
10.2010,-0.8463,-0.0472,0.5870
10.2020,-0.8463,-0.0472,0.5870
10.2020,-0.8463,-0.0472,0.5870
10.2210,-0.8199,-0.0406,0.5802
10.2220,-0.8199,-0.0406,0.5802
10.2220,-0.8199,-0.0406,0.5802
10.2430,-0.7816,-0.0450,0.5953
10.2440,-0.7816,-0.0450,0.5953
10.2440,-0.7816,-0.0450,0.5953
10.2450,-0.7816,-0.0450,0.5953
10.2450,-0.7816,-0.0450,0.5953
10.2640,-0.7869,-0.0477,0.6019
10.2640,-0.7869,-0.0477,0.6019
10.2650,-0.7869,-0.0477,0.6019
10.2810,-0.7938,-0.0574,0.6005
10.2820,-0.7938,-0.0574,0.6005
10.2820,-0.7938,-0.0574,0.6005
10.3010,-0.8287,-0.0623,0.5726
10.3020,-0.8287,-0.0623,0.5726
10.3030,-0.8287,-0.0623,0.5726
10.3200,-0.8539,-0.0591,0.5584
10.3210,-0.8539,-0.0591,0.5584
10.3220,-0.8539,-0.0591,0.5584
10.3220,-0.8539,-0.0591,0.5584
10.3230,-0.8539,-0.0591,0.5584
10.3430,-0.8370,-0.0472,0.5430
10.3440,-0.8370,-0.0472,0.5430
10.3440,-0.8370,-0.0472,0.5430
10.3560,-0.8370,-0.0472,0.5430
10.3600,-0.8026,-0.0349,0.5452
10.3600,-0.8026,-0.0349,0.5452
10.3630,-0.8026,-0.0349,0.5452
10.3810,-0.7835,-0.0147,0.5677
10.3820,-0.7835,-0.0147,0.5677
10.3830,-0.7835,-0.0147,0.5677
10.4000,-0.8124,-0.0071,0.5797
10.4010,-0.8124,-0.0071,0.5797
10.4010,-0.8124,-0.0071,0.5797
10.4020,-0.8124,-0.0071,0.5797
10.4030,-0.8124,-0.0071,0.5797
10.4220,-0.8028,-0.0528,0.6012
10.4230,-0.8028,-0.0528,0.6012
10.4230,-0.8028,-0.0528,0.6012
10.4390,-0.7779,-0.0831,0.5731
10.4400,-0.7779,-0.0831,0.5731
10.4400,-0.7779,-0.0831,0.5731
10.4630,-0.8319,-0.0868,0.5738
10.4640,-0.8319,-0.0868,0.5738
10.4650,-0.8319,-0.0868,0.5738
10.4820,-0.8774,-0.0936,0.6066
10.4830,-0.8774,-0.0936,0.6066
10.4840,-0.8774,-0.0936,0.6066
10.4840,-0.8774,-0.0936,0.6066
10.5590,-0.8774,-0.0936,0.6066
10.5590,-0.8617,-0.0784,0.6166
10.5590,-0.8617,-0.0784,0.6166
10.5600,-0.8617,-0.0784,0.6166
10.5600,-0.8879,-0.0533,0.6036
10.5600,-0.8879,-0.0533,0.6036
10.5600,-0.8879,-0.0533,0.6036
10.5600,-0.8190,-0.0562,0.5868
10.5610,-0.8190,-0.0562,0.5868
10.5610,-0.8190,-0.0562,0.5868
10.5610,-0.8190,-0.0562,0.5868
10.5610,-0.7992,-0.0579,0.5680
10.5610,-0.7992,-0.0579,0.5680
10.5620,-0.7992,-0.0579,0.5680
10.5620,-0.7992,-0.0579,0.5680
10.5620,-0.7992,-0.0579,0.5680
10.5800,-0.8309,-0.0415,0.5790
10.5800,-0.8309,-0.0415,0.5790
10.5800,-0.8309,-0.0415,0.5790
10.5980,-0.8138,-0.0459,0.6054
10.5980,-0.8138,-0.0459,0.6054
10.5980,-0.8138,-0.0459,0.6054
10.6180,-0.7530,-0.0552,0.5914
10.6180,-0.7530,-0.0552,0.5914
10.6180,-0.7530,-0.0552,0.5914
10.6390,-0.7801,-0.0540,0.5970
10.6390,-0.7801,-0.0540,0.5970
10.6400,-0.7801,-0.0540,0.5970
10.6400,-0.7801,-0.0540,0.5970
10.6400,-0.7801,-0.0540,0.5970
10.6600,-0.8192,-0.0699,0.6203
10.6600,-0.8192,-0.0699,0.6203
10.6600,-0.8192,-0.0699,0.6203
10.6770,-0.8053,-0.0831,0.5878
10.6780,-0.8053,-0.0831,0.5878
10.6780,-0.8053,-0.0831,0.5878
10.6970,-0.8104,-0.0926,0.5777
10.6970,-0.8104,-0.0926,0.5777
10.6970,-0.8104,-0.0926,0.5777
10.7120,-0.8104,-0.0926,0.5777
10.7180,-0.8339,-0.0841,0.5753
10.7180,-0.8339,-0.0841,0.5753
10.7180,-0.8339,-0.0841,0.5753
10.7180,-0.8339,-0.0841,0.5753
10.7180,-0.8339,-0.0841,0.5753
10.7400,-0.8691,-0.0569,0.5692
10.7400,-0.8691,-0.0569,0.5692
10.7410,-0.8691,-0.0569,0.5692
10.7570,-0.8691,-0.0569,0.5692
10.7580,-0.8576,-0.0374,0.5650
10.7580,-0.8576,-0.0374,0.5650
10.7580,-0.8576,-0.0374,0.5650
10.7770,-0.8053,-0.0374,0.5897
10.7780,-0.8053,-0.0374,0.5897
10.7780,-0.8053,-0.0374,0.5897
10.7990,-0.7564,-0.0530,0.6232
10.8000,-0.7564,-0.0530,0.6232
10.8000,-0.7564,-0.0530,0.6232
10.8010,-0.7564,-0.0530,0.6232
10.8010,-0.7564,-0.0530,0.6232
10.8190,-0.7493,-0.0675,0.6405
10.8200,-0.7493,-0.0675,0.6405
10.8200,-0.7493,-0.0675,0.6405
10.8380,-0.7864,-0.0582,0.6173
10.8390,-0.7864,-0.0582,0.6173
10.8400,-0.7864,-0.0582,0.6173
10.8560,-0.8373,-0.0609,0.6039
10.8570,-0.8373,-0.0609,0.6039
10.8570,-0.8373,-0.0609,0.6039
10.8790,-0.8473,-0.0784,0.5978
10.8800,-0.8473,-0.0784,0.5978
10.8810,-0.8473,-0.0784,0.5978
10.8810,-0.8473,-0.0784,0.5978
10.8820,-0.8473,-0.0784,0.5978
10.8980,-0.8268,-0.0675,0.5856
10.8990,-0.8268,-0.0675,0.5856
10.8990,-0.8268,-0.0675,0.5856
10.9140,-0.8268,-0.0675,0.5856
10.9160,-0.8642,-0.0381,0.5567
10.9160,-0.8642,-0.0381,0.5567
10.9170,-0.8642,-0.0381,0.5567
10.9360,-0.8363,-0.0418,0.5604
10.9370,-0.8363,-0.0418,0.5604
10.9370,-0.8363,-0.0418,0.5604
10.9520,-0.8363,-0.0418,0.5604
10.9570,-0.7825,-0.0506,0.5650
10.9580,-0.7825,-0.0506,0.5650
10.9580,-0.7825,-0.0506,0.5650
10.9580,-0.7825,-0.0506,0.5650
10.9600,-0.7825,-0.0506,0.5650
10.9790,-0.7828,-0.0452,0.5575
10.9790,-0.7828,-0.0452,0.5575
10.9800,-0.7828,-0.0452,0.5575
10.9960,-0.7774,-0.0440,0.5824
10.9960,-0.7774,-0.0440,0.5824
10.9970,-0.7774,-0.0440,0.5824
11.0150,-0.8018,-0.0423,0.5702
11.0160,-0.8018,-0.0423,0.5702
11.0160,-0.8018,-0.0423,0.5702
11.0350,-0.8241,-0.0596,0.5863
11.0920,-0.8241,-0.0596,0.5863
11.0920,-0.8241,-0.0596,0.5863
11.0920,-0.8241,-0.0596,0.5863
11.0930,-0.8241,-0.0596,0.5863
11.0930,-0.8737,-0.0767,0.6083
11.0930,-0.8737,-0.0767,0.6083
11.0930,-0.8737,-0.0767,0.6083
11.0930,-0.8385,-0.0704,0.6056
11.0930,-0.8385,-0.0704,0.6056
11.0940,-0.8385,-0.0704,0.6056
11.0940,-0.8062,-0.0694,0.6014
11.0940,-0.8062,-0.0694,0.6014
11.0940,-0.8062,-0.0694,0.6014
11.1140,-0.8214,-0.0719,0.6193
11.1140,-0.8214,-0.0719,0.6193
11.1150,-0.8214,-0.0719,0.6193
11.1160,-0.8214,-0.0719,0.6193
11.1160,-0.8214,-0.0719,0.6193
11.1360,-0.8351,-0.0626,0.6178
11.1360,-0.8351,-0.0626,0.6178
11.1360,-0.8351,-0.0626,0.6178
11.1480,-0.8351,-0.0626,0.6178
11.1540,-0.8148,-0.0560,0.5851
11.1540,-0.8148,-0.0560,0.5851
11.1540,-0.8148,-0.0560,0.5851
11.1740,-0.8102,-0.0577,0.5836
11.1740,-0.8102,-0.0577,0.5836
11.1740,-0.8102,-0.0577,0.5836
11.1940,-0.8131,-0.0543,0.6012
11.1940,-0.8131,-0.0543,0.6012
11.1950,-0.8131,-0.0543,0.6012
11.1960,-0.8131,-0.0543,0.6012
11.1970,-0.8131,-0.0543,0.6012
11.2140,-0.8194,-0.0457,0.5978
11.2140,-0.8194,-0.0457,0.5978
11.2140,-0.8194,-0.0457,0.5978
11.2360,-0.8050,-0.0477,0.5870
11.2370,-0.8050,-0.0477,0.5870
11.2370,-0.8050,-0.0477,0.5870
11.2540,-0.7823,-0.0665,0.6002
11.2540,-0.7823,-0.0665,0.6002
11.2540,-0.7823,-0.0665,0.6002
11.2750,-0.7769,-0.0833,0.6122
11.2750,-0.7769,-0.0833,0.6122
11.2750,-0.7769,-0.0833,0.6122
11.2750,-0.7769,-0.0833,0.6122
11.2750,-0.7769,-0.0833,0.6122
11.2930,-0.8014,-0.0733,0.5716
11.2930,-0.8014,-0.0733,0.5716
11.2940,-0.8014,-0.0733,0.5716
11.3150,-0.8446,-0.0755,0.5692
11.3150,-0.8446,-0.0755,0.5692
11.3160,-0.8446,-0.0755,0.5692
11.3340,-0.8282,-0.0887,0.5685
11.3340,-0.8282,-0.0887,0.5685
11.3350,-0.8282,-0.0887,0.5685
11.3470,-0.8282,-0.0887,0.5685
11.3530,-0.8177,-0.0714,0.5606
11.3530,-0.8177,-0.0714,0.5606
11.3540,-0.8177,-0.0714,0.5606
11.3550,-0.8177,-0.0714,0.5606
11.3560,-0.8177,-0.0714,0.5606
11.3740,-0.8361,-0.0455,0.5709
11.3740,-0.8361,-0.0455,0.5709
11.3740,-0.8361,-0.0455,0.5709
11.3960,-0.7979,-0.0543,0.6000
11.3970,-0.7979,-0.0543,0.6000
11.3970,-0.7979,-0.0543,0.6000
11.4130,-0.7943,-0.0618,0.5924
11.4140,-0.7943,-0.0618,0.5924
11.4140,-0.7943,-0.0618,0.5924
11.4340,-0.8365,-0.0631,0.6029
11.4340,-0.8365,-0.0631,0.6029
11.4350,-0.8365,-0.0631,0.6029
11.4360,-0.8365,-0.0631,0.6029
11.4360,-0.8365,-0.0631,0.6029
11.4550,-0.8446,-0.0650,0.6032
11.4550,-0.8446,-0.0650,0.6032
11.4560,-0.8446,-0.0650,0.6032
11.4770,-0.8336,-0.0582,0.5846
11.4780,-0.8336,-0.0582,0.5846
11.4780,-0.8336,-0.0582,0.5846
11.4960,-0.8358,-0.0530,0.6007
11.4960,-0.8358,-0.0530,0.6007
11.4970,-0.8358,-0.0530,0.6007
11.5140,-0.8397,-0.0547,0.6132
11.5150,-0.8397,-0.0547,0.6132
11.5150,-0.8397,-0.0547,0.6132
11.5160,-0.8397,-0.0547,0.6132
11.5340,-0.8131,-0.0567,0.6124
11.5350,-0.8131,-0.0567,0.6124
11.5350,-0.8131,-0.0567,0.6124
11.5470,-0.8131,-0.0567,0.6124
11.5570,-0.7918,-0.0662,0.6139
11.5580,-0.7918,-0.0662,0.6139
11.5590,-0.7918,-0.0662,0.6139
11.5740,-0.7899,-0.0667,0.5892
11.5740,-0.7899,-0.0667,0.5892
11.5750,-0.7899,-0.0667,0.5892
11.5950,-0.7960,-0.0623,0.5689
11.6680,-0.7960,-0.0623,0.5689
11.6680,-0.7960,-0.0623,0.5689
11.6680,-0.7960,-0.0623,0.5689
11.6690,-0.7960,-0.0623,0.5689
11.6690,-0.8021,-0.0560,0.5555
11.6700,-0.8021,-0.0560,0.5555
11.6700,-0.8021,-0.0560,0.5555
11.6700,-0.7940,-0.0552,0.5780
11.6700,-0.7940,-0.0552,0.5780
11.6700,-0.7940,-0.0552,0.5780
11.6700,-0.7779,-0.0411,0.5804
11.6710,-0.7779,-0.0411,0.5804
11.6710,-0.7779,-0.0411,0.5804
11.6720,-0.8402,-0.0384,0.5804
11.6730,-0.8402,-0.0384,0.5804
11.6730,-0.8402,-0.0384,0.5804
11.6740,-0.8402,-0.0384,0.5804
11.6750,-0.8402,-0.0384,0.5804
11.6920,-0.8329,-0.0579,0.5794
11.6920,-0.8329,-0.0579,0.5794
11.6920,-0.8329,-0.0579,0.5794
11.7110,-0.7872,-0.0687,0.5875
11.7110,-0.7872,-0.0687,0.5875
11.7110,-0.7872,-0.0687,0.5875
11.7310,-0.8495,-0.0609,0.5768
11.7310,-0.8495,-0.0609,0.5768
11.7310,-0.8495,-0.0609,0.5768
11.7430,-0.8495,-0.0609,0.5768
11.7510,-0.8427,-0.0631,0.5843
11.7520,-0.8427,-0.0631,0.5843
11.7530,-0.8427,-0.0631,0.5843
11.7540,-0.8427,-0.0631,0.5843
11.7540,-0.8427,-0.0631,0.5843
11.7710,-0.8236,-0.0635,0.6073
11.7710,-0.8236,-0.0635,0.6073
11.7720,-0.8236,-0.0635,0.6073
11.7910,-0.8475,-0.0538,0.5988
11.7910,-0.8475,-0.0538,0.5988
11.7910,-0.8475,-0.0538,0.5988
11.8110,-0.8219,-0.0670,0.5978
11.8120,-0.8219,-0.0670,0.5978
11.8120,-0.8219,-0.0670,0.5978
11.8330,-0.8121,-0.0714,0.5978
11.8330,-0.8121,-0.0714,0.5978
11.8330,-0.8121,-0.0714,0.5978
11.8340,-0.8121,-0.0714,0.5978
11.8340,-0.8121,-0.0714,0.5978
11.8520,-0.8072,-0.0694,0.6080
11.8520,-0.8072,-0.0694,0.6080
11.8520,-0.8072,-0.0694,0.6080
11.8730,-0.7977,-0.0584,0.5941
11.8730,-0.7977,-0.0584,0.5941
11.8730,-0.7977,-0.0584,0.5941
11.8940,-0.7877,-0.0587,0.6073
11.8940,-0.7877,-0.0587,0.6073
11.8950,-0.7877,-0.0587,0.6073
11.9140,-0.8102,-0.0626,0.6036
11.9140,-0.8102,-0.0626,0.6036
11.9150,-0.8102,-0.0626,0.6036
11.9160,-0.8102,-0.0626,0.6036
11.9160,-0.8102,-0.0626,0.6036
11.9340,-0.8273,-0.0682,0.5785
11.9340,-0.8273,-0.0682,0.5785
11.9350,-0.8273,-0.0682,0.5785
11.9440,-0.8273,-0.0682,0.5785
11.9520,-0.8185,-0.0762,0.5550
11.9540,-0.8185,-0.0762,0.5550
11.9560,-0.8185,-0.0762,0.5550
11.9740,-0.8336,-0.0694,0.5577
11.9750,-0.8336,-0.0694,0.5577
11.9760,-0.8336,-0.0694,0.5577
11.9920,-0.8187,-0.0459,0.5660
11.9930,-0.8187,-0.0459,0.5660
11.9930,-0.8187,-0.0459,0.5660
11.9940,-0.8187,-0.0459,0.5660
11.9940,-0.8187,-0.0459,0.5660
12.0140,-0.8109,-0.0225,0.5611
12.0140,-0.8109,-0.0225,0.5611
12.0150,-0.8109,-0.0225,0.5611
12.0330,-0.8231,-0.0406,0.5895
12.0340,-0.8231,-0.0406,0.5895
12.0340,-0.8231,-0.0406,0.5895
12.0540,-0.8126,-0.0623,0.6041
12.0550,-0.8126,-0.0623,0.6041
12.0550,-0.8126,-0.0623,0.6041
12.0760,-0.8109,-0.0667,0.6051
12.0760,-0.8109,-0.0667,0.6051
12.0780,-0.8109,-0.0667,0.6051
12.0800,-0.8109,-0.0667,0.6051
12.0800,-0.8109,-0.0667,0.6051
12.0920,-0.8314,-0.0555,0.5848
12.0920,-0.8314,-0.0555,0.5848
12.0930,-0.8314,-0.0555,0.5848
12.1000,-0.8314,-0.0555,0.5848
12.1130,-0.8717,-0.0469,0.5777
12.1130,-0.8717,-0.0469,0.5777
12.1140,-0.8717,-0.0469,0.5777
12.1300,-0.8522,-0.0533,0.5868
12.1310,-0.8522,-0.0533,0.5868
12.1310,-0.8522,-0.0533,0.5868
12.1910,-0.8522,-0.0533,0.5868
12.1910,-0.8065,-0.0494,0.5562
12.1910,-0.8065,-0.0494,0.5562
12.1920,-0.8065,-0.0494,0.5562
12.1920,-0.8065,-0.0494,0.5562
12.1920,-0.8065,-0.0494,0.5562
12.1920,-0.8102,-0.0418,0.5775
12.1920,-0.8102,-0.0418,0.5775
12.1930,-0.8102,-0.0418,0.5775
12.1930,-0.8307,-0.0484,0.5992
12.1930,-0.8307,-0.0484,0.5992
12.1930,-0.8307,-0.0484,0.5992
12.2090,-0.8197,-0.0459,0.5856
12.2090,-0.8197,-0.0459,0.5856
12.2090,-0.8197,-0.0459,0.5856
12.2290,-0.8023,-0.0437,0.5709
12.2300,-0.8023,-0.0437,0.5709
12.2300,-0.8023,-0.0437,0.5709
12.2320,-0.8023,-0.0437,0.5709
12.2320,-0.8023,-0.0437,0.5709
12.2490,-0.8282,-0.0533,0.5462
12.2490,-0.8282,-0.0533,0.5462
12.2490,-0.8282,-0.0533,0.5462
12.2680,-0.7974,-0.0640,0.5631
12.2680,-0.7974,-0.0640,0.5631
12.2680,-0.7974,-0.0640,0.5631
12.2880,-0.8146,-0.0452,0.5606
12.2890,-0.8146,-0.0452,0.5606
12.2890,-0.8146,-0.0452,0.5606
12.2980,-0.8146,-0.0452,0.5606
12.3070,-0.8434,-0.0320,0.5638
12.3080,-0.8434,-0.0320,0.5638
12.3080,-0.8434,-0.0320,0.5638
12.3120,-0.8434,-0.0320,0.5638
12.3120,-0.8434,-0.0320,0.5638
12.3270,-0.8405,-0.0452,0.5770
12.3270,-0.8405,-0.0452,0.5770
12.3270,-0.8405,-0.0452,0.5770
12.3380,-0.8405,-0.0452,0.5770
12.3480,-0.8224,-0.0623,0.5907
12.3480,-0.8224,-0.0623,0.5907
12.3490,-0.8224,-0.0623,0.5907
12.3670,-0.8128,-0.0547,0.6085
12.3670,-0.8128,-0.0547,0.6085
12.3680,-0.8128,-0.0547,0.6085
12.3880,-0.8400,-0.0521,0.5772
12.3880,-0.8400,-0.0521,0.5772
12.3880,-0.8400,-0.0521,0.5772
12.3920,-0.8400,-0.0521,0.5772
12.3930,-0.8400,-0.0521,0.5772
12.4080,-0.8505,-0.0684,0.5611
12.4080,-0.8505,-0.0684,0.5611
12.4080,-0.8505,-0.0684,0.5611
12.4280,-0.8292,-0.0811,0.5900
12.4280,-0.8292,-0.0811,0.5900
12.4280,-0.8292,-0.0811,0.5900
12.4480,-0.8182,-0.0589,0.5882
12.4480,-0.8182,-0.0589,0.5882
12.4480,-0.8182,-0.0589,0.5882
12.4700,-0.8331,-0.0401,0.5738
12.4700,-0.8331,-0.0401,0.5738
12.4710,-0.8331,-0.0401,0.5738
12.4710,-0.8331,-0.0401,0.5738
12.4720,-0.8331,-0.0401,0.5738
12.4900,-0.8434,-0.0450,0.5900
12.4910,-0.8434,-0.0450,0.5900
12.4910,-0.8434,-0.0450,0.5900
12.4970,-0.8434,-0.0450,0.5900
12.5080,-0.8187,-0.0604,0.6088
12.5110,-0.8187,-0.0604,0.6088
12.5130,-0.8187,-0.0604,0.6088
12.5320,-0.8104,-0.0618,0.5912
12.5330,-0.8104,-0.0618,0.5912
12.5330,-0.8104,-0.0618,0.5912
12.5390,-0.8104,-0.0618,0.5912
12.5480,-0.8126,-0.0591,0.5873
12.5490,-0.8126,-0.0591,0.5873
12.5490,-0.8126,-0.0591,0.5873
12.5520,-0.8126,-0.0591,0.5873
12.5520,-0.8126,-0.0591,0.5873
12.5680,-0.8282,-0.0733,0.6093
12.5690,-0.8282,-0.0733,0.6093
12.5690,-0.8282,-0.0733,0.6093
12.5880,-0.8224,-0.0689,0.5687
12.5890,-0.8224,-0.0689,0.5687
12.5930,-0.8224,-0.0689,0.5687
12.6080,-0.8097,-0.0631,0.5433
12.6080,-0.8097,-0.0631,0.5433
12.6120,-0.8097,-0.0631,0.5433
12.6280,-0.8412,-0.0633,0.5394
12.6280,-0.8412,-0.0633,0.5394
12.6290,-0.8412,-0.0633,0.5394
12.6320,-0.8412,-0.0633,0.5394
12.6330,-0.8412,-0.0633,0.5394
12.6470,-0.8681,-0.0503,0.5423
12.6480,-0.8681,-0.0503,0.5423
12.6480,-0.8681,-0.0503,0.5423
12.6700,-0.8446,-0.0357,0.5557
12.6700,-0.8446,-0.0357,0.5557
12.6710,-0.8446,-0.0357,0.5557
12.7510,-0.8155,-0.0291,0.5643
12.7510,-0.8155,-0.0291,0.5643
12.7510,-0.8155,-0.0291,0.5643
12.7520,-0.7943,-0.0437,0.6056
12.7520,-0.7943,-0.0437,0.6056
12.7520,-0.7943,-0.0437,0.6056
12.7520,-0.7943,-0.0437,0.6056
12.7530,-0.7943,-0.0437,0.6056
12.7530,-0.7742,-0.0560,0.6115
12.7530,-0.7742,-0.0560,0.6115
12.7530,-0.7742,-0.0560,0.6115
12.7540,-0.7742,-0.0560,0.6115
12.7540,-0.7940,-0.0525,0.5829
12.7540,-0.7940,-0.0525,0.5829
12.7540,-0.7940,-0.0525,0.5829
12.7660,-0.8422,-0.0513,0.5958
12.7660,-0.8422,-0.0513,0.5958
12.7660,-0.8422,-0.0513,0.5958
12.7860,-0.8869,-0.0596,0.6000
12.7860,-0.8869,-0.0596,0.6000
12.7860,-0.8869,-0.0596,0.6000
12.7890,-0.8869,-0.0596,0.6000
12.7890,-0.8869,-0.0596,0.6000
12.8060,-0.8754,-0.0533,0.5711
12.8060,-0.8754,-0.0533,0.5711
12.8060,-0.8754,-0.0533,0.5711
12.8260,-0.8397,-0.0474,0.5623
12.8260,-0.8397,-0.0474,0.5623
12.8260,-0.8397,-0.0474,0.5623
12.8460,-0.8456,-0.0496,0.5643
12.8460,-0.8456,-0.0496,0.5643
12.8470,-0.8456,-0.0496,0.5643
12.8640,-0.8339,-0.0543,0.5599
12.8650,-0.8339,-0.0543,0.5599
12.8650,-0.8339,-0.0543,0.5599
12.8680,-0.8339,-0.0543,0.5599
12.8680,-0.8339,-0.0543,0.5599
12.8860,-0.7957,-0.0435,0.5469
12.8860,-0.7957,-0.0435,0.5469
12.8870,-0.7957,-0.0435,0.5469
12.8930,-0.7957,-0.0435,0.5469
12.9030,-0.8136,-0.0359,0.5677
12.9040,-0.8136,-0.0359,0.5677
12.9040,-0.8136,-0.0359,0.5677
12.9240,-0.8458,-0.0479,0.5851
12.9240,-0.8458,-0.0479,0.5851
12.9240,-0.8458,-0.0479,0.5851
12.9330,-0.8458,-0.0479,0.5851
12.9450,-0.8431,-0.0433,0.5523
12.9450,-0.8431,-0.0433,0.5523
12.9450,-0.8431,-0.0433,0.5523
12.9470,-0.8431,-0.0433,0.5523
12.9470,-0.8431,-0.0433,0.5523
12.9640,-0.8617,-0.0618,0.5728
12.9640,-0.8617,-0.0618,0.5728
12.9640,-0.8617,-0.0618,0.5728
12.9840,-0.8299,-0.0841,0.5787
12.9840,-0.8299,-0.0841,0.5787
12.9840,-0.8299,-0.0841,0.5787
13.0040,-0.8067,-0.0560,0.5677
13.0050,-0.8067,-0.0560,0.5677
13.0050,-0.8067,-0.0560,0.5677
13.0250,-0.8160,-0.0384,0.5807
13.0250,-0.8160,-0.0384,0.5807
13.0250,-0.8160,-0.0384,0.5807
13.0280,-0.8160,-0.0384,0.5807
13.0280,-0.8160,-0.0384,0.5807
13.0440,-0.8153,-0.0381,0.5897
13.0450,-0.8153,-0.0381,0.5897
13.0460,-0.8153,-0.0381,0.5897
13.0680,-0.8050,-0.0349,0.5878
13.0680,-0.8050,-0.0349,0.5878
13.0690,-0.8050,-0.0349,0.5878
13.0850,-0.8253,-0.0362,0.5763
13.0850,-0.8253,-0.0362,0.5763
13.0860,-0.8253,-0.0362,0.5763
13.0930,-0.8253,-0.0362,0.5763
13.1050,-0.8194,-0.0381,0.5677
13.1050,-0.8194,-0.0381,0.5677
13.1050,-0.8194,-0.0381,0.5677
13.1060,-0.8194,-0.0381,0.5677
13.1070,-0.8194,-0.0381,0.5677
13.1250,-0.8006,-0.0484,0.5785
13.1250,-0.8006,-0.0484,0.5785
13.1260,-0.8006,-0.0484,0.5785
13.1340,-0.8006,-0.0484,0.5785
13.1440,-0.8185,-0.0572,0.5802
13.1450,-0.8185,-0.0572,0.5802
13.1450,-0.8185,-0.0572,0.5802
13.1660,-0.8221,-0.0574,0.5926
13.1670,-0.8221,-0.0574,0.5926
13.1670,-0.8221,-0.0574,0.5926
13.1840,-0.8043,-0.0672,0.5907
13.1840,-0.8043,-0.0672,0.5907
13.1850,-0.8043,-0.0672,0.5907
13.1860,-0.8043,-0.0672,0.5907
13.1860,-0.8043,-0.0672,0.5907
13.2040,-0.7948,-0.0709,0.5780
13.2050,-0.7948,-0.0709,0.5780
13.2050,-0.7948,-0.0709,0.5780
13.2770,-0.8136,-0.0670,0.5953
13.2770,-0.8136,-0.0670,0.5953
13.2770,-0.8136,-0.0670,0.5953
13.2770,-0.8742,-0.0472,0.5966
13.2770,-0.8742,-0.0472,0.5966
13.2770,-0.8742,-0.0472,0.5966
13.2780,-0.8920,-0.0459,0.6027
13.2780,-0.8920,-0.0459,0.6027
13.2780,-0.8920,-0.0459,0.6027
13.2780,-0.8920,-0.0459,0.6027
13.2780,-0.8920,-0.0459,0.6027
13.2820,-0.8243,-0.0711,0.6051
13.2820,-0.8243,-0.0711,0.6051
13.2820,-0.8243,-0.0711,0.6051
13.3020,-0.7767,-0.0741,0.5677
13.3020,-0.7767,-0.0741,0.5677
13.3020,-0.7767,-0.0741,0.5677
13.3220,-0.7698,-0.0513,0.5606
13.3220,-0.7698,-0.0513,0.5606
13.3220,-0.7698,-0.0513,0.5606
13.3320,-0.7698,-0.0513,0.5606
13.3430,-0.7781,-0.0565,0.5988
13.3430,-0.7781,-0.0565,0.5988
13.3430,-0.7781,-0.0565,0.5988
13.3440,-0.7781,-0.0565,0.5988
13.3440,-0.7781,-0.0565,0.5988
13.3640,-0.8124,-0.0582,0.5953
13.3650,-0.8124,-0.0582,0.5953
13.3650,-0.8124,-0.0582,0.5953
13.3830,-0.8453,-0.0545,0.5983
13.3830,-0.8453,-0.0545,0.5983
13.3830,-0.8453,-0.0545,0.5983
13.4030,-0.8857,-0.0584,0.5856
13.4030,-0.8857,-0.0584,0.5856
13.4040,-0.8857,-0.0584,0.5856
13.4250,-0.8527,-0.0648,0.5787
13.4260,-0.8527,-0.0648,0.5787
13.4260,-0.8527,-0.0648,0.5787
13.4270,-0.8527,-0.0648,0.5787
13.4280,-0.8527,-0.0648,0.5787
13.4430,-0.8136,-0.0626,0.5709
13.4430,-0.8136,-0.0626,0.5709
13.4440,-0.8136,-0.0626,0.5709
13.4610,-0.8048,-0.0538,0.5721
13.4620,-0.8048,-0.0538,0.5721
13.4620,-0.8048,-0.0538,0.5721
13.4800,-0.7693,-0.0501,0.5809
13.4810,-0.7693,-0.0501,0.5809
13.4810,-0.7693,-0.0501,0.5809
13.5000,-0.7740,-0.0496,0.5699
13.5000,-0.7740,-0.0496,0.5699
13.5000,-0.7740,-0.0496,0.5699
13.5030,-0.7740,-0.0496,0.5699
13.5040,-0.7740,-0.0496,0.5699
13.5200,-0.8253,-0.0469,0.5665
13.5200,-0.8253,-0.0469,0.5665
13.5200,-0.8253,-0.0469,0.5665
13.5290,-0.8253,-0.0469,0.5665
13.5400,-0.8292,-0.0501,0.5768
13.5400,-0.8292,-0.0501,0.5768
13.5410,-0.8292,-0.0501,0.5768
13.5600,-0.8180,-0.0508,0.5660
13.5600,-0.8180,-0.0508,0.5660
13.5600,-0.8180,-0.0508,0.5660
13.5790,-0.8336,-0.0496,0.5924
13.5790,-0.8336,-0.0496,0.5924
13.5800,-0.8336,-0.0496,0.5924
13.5820,-0.8336,-0.0496,0.5924
13.5830,-0.8336,-0.0496,0.5924
13.6000,-0.8397,-0.0503,0.6132
13.6000,-0.8397,-0.0503,0.6132
13.6000,-0.8397,-0.0503,0.6132
13.6200,-0.8319,-0.0496,0.5902
13.6200,-0.8319,-0.0496,0.5902
13.6200,-0.8319,-0.0496,0.5902
13.6390,-0.8185,-0.0633,0.5628
13.6400,-0.8185,-0.0633,0.5628
13.6400,-0.8185,-0.0633,0.5628
13.6600,-0.8104,-0.0650,0.5721
13.6610,-0.8104,-0.0650,0.5721
13.6610,-0.8104,-0.0650,0.5721
13.6650,-0.8104,-0.0650,0.5721
13.6660,-0.8104,-0.0650,0.5721
13.6820,-0.8297,-0.0406,0.5777
13.6830,-0.8297,-0.0406,0.5777
13.6830,-0.8297,-0.0406,0.5777
13.7000,-0.8654,-0.0415,0.5829
13.7000,-0.8654,-0.0415,0.5829
13.7010,-0.8654,-0.0415,0.5829
13.7200,-0.8488,-0.0736,0.5963
13.7200,-0.8488,-0.0736,0.5963
13.7210,-0.8488,-0.0736,0.5963
13.7280,-0.8488,-0.0736,0.5963
13.7420,-0.7992,-0.0868,0.5902
13.7430,-0.7992,-0.0868,0.5902
13.7440,-0.7992,-0.0868,0.5902
13.7440,-0.7992,-0.0868,0.5902
13.7460,-0.7992,-0.0868,0.5902
13.7590,-0.8033,-0.0679,0.5892
13.7600,-0.8033,-0.0679,0.5892
13.8320,-0.8033,-0.0679,0.5892
13.8320,-0.8431,-0.0425,0.5858
13.8320,-0.8431,-0.0425,0.5858
13.8320,-0.8431,-0.0425,0.5858
13.8320,-0.8431,-0.0464,0.6041
13.8330,-0.8431,-0.0464,0.6041
13.8330,-0.8431,-0.0464,0.6041
13.8330,-0.8277,-0.0638,0.6036
13.8330,-0.8277,-0.0638,0.6036
13.8330,-0.8277,-0.0638,0.6036
13.8330,-0.8277,-0.0638,0.6036
13.8330,-0.8277,-0.0638,0.6036
13.8380,-0.8204,-0.0579,0.5880
13.8380,-0.8204,-0.0579,0.5880
13.8390,-0.8204,-0.0579,0.5880
13.8590,-0.8011,-0.0628,0.5846
13.8600,-0.8011,-0.0628,0.5846
13.8600,-0.8011,-0.0628,0.5846
13.8790,-0.8018,-0.0723,0.6014
13.8800,-0.8018,-0.0723,0.6014
13.8800,-0.8018,-0.0723,0.6014
13.8980,-0.8363,-0.0472,0.5851
13.8980,-0.8363,-0.0472,0.5851
13.8990,-0.8363,-0.0472,0.5851
13.9030,-0.8363,-0.0472,0.5851
13.9030,-0.8363,-0.0472,0.5851
13.9190,-0.8456,-0.0447,0.5648
13.9190,-0.8456,-0.0447,0.5648
13.9200,-0.8456,-0.0447,0.5648
13.9280,-0.8456,-0.0447,0.5648
13.9390,-0.8062,-0.0638,0.5597
13.9390,-0.8062,-0.0638,0.5597
13.9400,-0.8062,-0.0638,0.5597
13.9580,-0.8009,-0.0591,0.5543
13.9580,-0.8009,-0.0591,0.5543
13.9590,-0.8009,-0.0591,0.5543
13.9790,-0.7935,-0.0530,0.5567
13.9800,-0.7935,-0.0530,0.5567
13.9810,-0.7935,-0.0530,0.5567
13.9820,-0.7935,-0.0530,0.5567
13.9830,-0.7935,-0.0530,0.5567
13.9980,-0.8065,-0.0450,0.5531
13.9990,-0.8065,-0.0450,0.5531
14.0000,-0.8065,-0.0450,0.5531
14.0180,-0.8028,-0.0335,0.5611
14.0180,-0.8028,-0.0335,0.5611
14.0190,-0.8028,-0.0335,0.5611
14.0380,-0.8268,-0.0352,0.5760
14.0380,-0.8268,-0.0352,0.5760
14.0390,-0.8268,-0.0352,0.5760
14.0610,-0.8507,-0.0499,0.5902
14.0620,-0.8507,-0.0499,0.5902
14.0640,-0.8507,-0.0499,0.5902
14.0700,-0.8507,-0.0499,0.5902
14.0710,-0.8507,-0.0499,0.5902
14.0760,-0.8478,-0.0501,0.5860
14.0770,-0.8478,-0.0501,0.5860
14.0770,-0.8478,-0.0501,0.5860
14.0970,-0.8297,-0.0540,0.5995
14.0980,-0.8297,-0.0540,0.5995
14.0980,-0.8297,-0.0540,0.5995
14.1160,-0.8187,-0.0569,0.5978
14.1160,-0.8187,-0.0569,0.5978
14.1160,-0.8187,-0.0569,0.5978
14.1240,-0.8187,-0.0569,0.5978
14.1360,-0.8329,-0.0442,0.5792
14.1360,-0.8329,-0.0442,0.5792
14.1360,-0.8329,-0.0442,0.5792
14.1400,-0.8329,-0.0442,0.5792
14.1400,-0.8329,-0.0442,0.5792
14.1560,-0.8380,-0.0447,0.5755
14.1560,-0.8380,-0.0447,0.5755
14.1560,-0.8380,-0.0447,0.5755
14.1770,-0.8216,-0.0538,0.5944
14.1770,-0.8216,-0.0538,0.5944
14.1770,-0.8216,-0.0538,0.5944
14.1960,-0.8040,-0.0552,0.5966
14.1960,-0.8040,-0.0552,0.5966
14.1960,-0.8040,-0.0552,0.5966
14.2170,-0.8292,-0.0565,0.5860
14.2170,-0.8292,-0.0565,0.5860
14.2170,-0.8292,-0.0565,0.5860
14.2200,-0.8292,-0.0565,0.5860
14.2200,-0.8292,-0.0565,0.5860
14.2360,-0.8346,-0.0667,0.5797
14.2370,-0.8346,-0.0667,0.5797
14.2370,-0.8346,-0.0667,0.5797
14.2570,-0.8436,-0.0723,0.5631
14.2570,-0.8436,-0.0723,0.5631
14.2580,-0.8436,-0.0723,0.5631
14.2770,-0.8554,-0.0699,0.5560
14.2770,-0.8554,-0.0699,0.5560
14.2770,-0.8554,-0.0699,0.5560
14.2970,-0.8185,-0.0560,0.5721
14.2980,-0.8185,-0.0560,0.5721
14.2990,-0.8185,-0.0560,0.5721
14.2990,-0.8185,-0.0560,0.5721
14.3000,-0.8185,-0.0560,0.5721
14.3170,-0.8214,-0.0291,0.5794
14.3170,-0.8214,-0.0291,0.5794
14.3940,-0.8214,-0.0291,0.5794
14.3950,-0.8214,-0.0291,0.5794
14.3950,-0.8214,-0.0266,0.5836
14.3950,-0.8214,-0.0266,0.5836
14.3950,-0.8214,-0.0266,0.5836
14.3950,-0.7882,-0.0474,0.5900
14.3960,-0.7882,-0.0474,0.5900
14.3960,-0.7882,-0.0474,0.5900
14.3960,-0.8080,-0.0594,0.5743
14.3960,-0.8080,-0.0594,0.5743
14.3960,-0.8080,-0.0594,0.5743
14.3960,-0.8080,-0.0594,0.5743
14.3970,-0.8080,-0.0594,0.5743
14.3970,-0.8471,-0.0555,0.5848
14.3970,-0.8471,-0.0555,0.5848
14.3970,-0.8471,-0.0555,0.5848
14.4140,-0.8285,-0.0511,0.5922
14.4150,-0.8285,-0.0511,0.5922
14.4150,-0.8285,-0.0511,0.5922
14.4350,-0.8058,-0.0437,0.5697
14.4360,-0.8058,-0.0437,0.5697
14.4360,-0.8058,-0.0437,0.5697
14.4560,-0.7957,-0.0437,0.5804
14.4560,-0.7957,-0.0437,0.5804
14.4570,-0.7957,-0.0437,0.5804
14.4580,-0.7957,-0.0437,0.5804
14.4590,-0.7957,-0.0437,0.5804
14.4780,-0.8143,-0.0523,0.5966
14.4780,-0.8143,-0.0523,0.5966
14.4790,-0.8143,-0.0523,0.5966
14.4960,-0.8302,-0.0550,0.5858
14.4960,-0.8302,-0.0550,0.5858
14.4970,-0.8302,-0.0550,0.5858
14.5150,-0.8270,-0.0535,0.5787
14.5160,-0.8270,-0.0535,0.5787
14.5170,-0.8270,-0.0535,0.5787
14.5220,-0.8270,-0.0535,0.5787
14.5370,-0.8336,-0.0499,0.5736
14.5380,-0.8336,-0.0499,0.5736
14.5390,-0.8336,-0.0499,0.5736
14.5400,-0.8336,-0.0499,0.5736
14.5430,-0.8336,-0.0499,0.5736
14.5590,-0.8497,-0.0484,0.5802
14.5600,-0.8497,-0.0484,0.5802
14.5610,-0.8497,-0.0484,0.5802
14.5780,-0.8500,-0.0418,0.5819
14.5790,-0.8500,-0.0418,0.5819
14.5800,-0.8500,-0.0418,0.5819
14.5990,-0.8185,-0.0364,0.5787
14.6000,-0.8185,-0.0364,0.5787
14.6000,-0.8185,-0.0364,0.5787
14.6150,-0.8131,-0.0369,0.5616
14.6160,-0.8131,-0.0369,0.5616
14.6170,-0.8131,-0.0369,0.5616
14.6170,-0.8131,-0.0369,0.5616
14.6180,-0.8131,-0.0369,0.5616
14.6340,-0.8248,-0.0455,0.5562
14.6350,-0.8248,-0.0455,0.5562
14.6350,-0.8248,-0.0455,0.5562
14.6530,-0.8043,-0.0501,0.5570
14.6540,-0.8043,-0.0501,0.5570
14.6540,-0.8043,-0.0501,0.5570
14.6750,-0.8099,-0.0484,0.5562
14.6760,-0.8099,-0.0484,0.5562
14.6760,-0.8099,-0.0484,0.5562
14.6940,-0.8363,-0.0462,0.5790
14.6940,-0.8363,-0.0462,0.5790
14.6950,-0.8363,-0.0462,0.5790
14.6960,-0.8363,-0.0462,0.5790
14.6960,-0.8363,-0.0462,0.5790
14.7120,-0.8576,-0.0579,0.6027
14.7130,-0.8576,-0.0579,0.6027
14.7130,-0.8576,-0.0579,0.6027
14.7190,-0.8576,-0.0579,0.6027
14.7360,-0.8549,-0.0467,0.5853
14.7360,-0.8549,-0.0467,0.5853
14.7360,-0.8549,-0.0467,0.5853
14.7520,-0.8280,-0.0450,0.5814
14.7530,-0.8280,-0.0450,0.5814
14.7530,-0.8280,-0.0450,0.5814
14.7730,-0.8236,-0.0565,0.5843
14.7740,-0.8236,-0.0565,0.5843
14.7740,-0.8236,-0.0565,0.5843
14.7750,-0.8236,-0.0565,0.5843
14.7760,-0.8236,-0.0565,0.5843
14.7920,-0.8211,-0.0528,0.5714
14.7920,-0.8211,-0.0528,0.5714
14.7920,-0.8211,-0.0528,0.5714
14.8130,-0.8639,-0.0423,0.5772
14.8130,-0.8639,-0.0423,0.5772
14.8130,-0.8639,-0.0423,0.5772
14.8370,-0.8744,-0.0464,0.5951
14.8370,-0.8744,-0.0464,0.5951
14.8410,-0.8744,-0.0464,0.5951
14.8540,-0.7928,-0.0521,0.5843
14.8540,-0.7928,-0.0521,0.5843
14.8550,-0.7928,-0.0521,0.5843
14.8560,-0.7928,-0.0521,0.5843
14.8570,-0.7928,-0.0521,0.5843
14.8750,-0.7864,-0.0565,0.5812
14.9530,-0.7864,-0.0565,0.5812
14.9530,-0.7864,-0.0565,0.5812
14.9530,-0.7879,-0.0679,0.6019
14.9530,-0.7879,-0.0679,0.6019
14.9540,-0.7879,-0.0679,0.6019
14.9540,-0.7686,-0.0719,0.5944
14.9540,-0.7686,-0.0719,0.5944
14.9540,-0.7686,-0.0719,0.5944
14.9540,-0.7686,-0.0719,0.5944
14.9540,-0.8270,-0.0511,0.5692
14.9550,-0.8270,-0.0511,0.5692
14.9550,-0.8270,-0.0511,0.5692
14.9550,-0.8270,-0.0511,0.5692
14.9550,-0.8270,-0.0511,0.5692
14.9550,-0.8659,-0.0408,0.5963
14.9560,-0.8659,-0.0408,0.5963
14.9560,-0.8659,-0.0408,0.5963
14.9720,-0.7974,-0.0748,0.5707
14.9720,-0.7974,-0.0748,0.5707
14.9720,-0.7974,-0.0748,0.5707
14.9960,-0.7627,-0.0824,0.5098
14.9960,-0.7627,-0.0824,0.5098
14.9970,-0.7627,-0.0824,0.5098
15.0150,-0.8055,-0.0545,0.5293
15.0150,-0.8055,-0.0545,0.5293
15.0160,-0.8055,-0.0545,0.5293
15.0160,-0.8055,-0.0545,0.5293
15.0170,-0.8055,-0.0545,0.5293
15.0330,-0.8255,-0.0296,0.5504
15.0340,-0.8255,-0.0296,0.5504
15.0340,-0.8255,-0.0296,0.5504
15.0560,-0.8395,-0.0196,0.5132
15.0570,-0.8395,-0.0196,0.5132
15.0570,-0.8395,-0.0196,0.5132
15.0750,-0.8522,-0.0364,0.5210
15.0750,-0.8522,-0.0364,0.5210
15.0760,-0.8522,-0.0364,0.5210
15.0800,-0.8522,-0.0364,0.5210
15.0930,-0.8754,-0.0550,0.5330
15.0930,-0.8754,-0.0550,0.5330
15.0940,-0.8754,-0.0550,0.5330
15.0940,-0.8754,-0.0550,0.5330
15.0940,-0.8754,-0.0550,0.5330
15.1150,-0.8769,-0.0569,0.5293
15.1150,-0.8769,-0.0569,0.5293
15.1150,-0.8769,-0.0569,0.5293
15.1190,-0.8769,-0.0569,0.5293
15.1320,-0.9055,-0.0430,0.5528
15.1330,-0.9055,-0.0430,0.5528
15.1330,-0.9055,-0.0430,0.5528
15.1520,-0.9162,-0.0318,0.5416
15.1530,-0.9162,-0.0318,0.5416
15.1530,-0.9162,-0.0318,0.5416
15.1720,-0.9038,-0.0291,0.5428
15.1720,-0.9038,-0.0291,0.5428
15.1720,-0.9038,-0.0291,0.5428
15.1730,-0.9038,-0.0291,0.5428
15.1730,-0.9038,-0.0291,0.5428
15.1920,-0.8720,-0.0706,0.5560
15.1920,-0.8720,-0.0706,0.5560
15.1930,-0.8720,-0.0706,0.5560
15.2090,-0.8456,-0.0924,0.5296
15.2090,-0.8456,-0.0924,0.5296
15.2090,-0.8456,-0.0924,0.5296
15.2310,-0.8649,-0.0794,0.5435
15.2310,-0.8649,-0.0794,0.5435
15.2310,-0.8649,-0.0794,0.5435
15.2500,-0.9018,-0.0726,0.5741
15.2500,-0.9018,-0.0726,0.5741
15.2500,-0.9018,-0.0726,0.5741
15.2530,-0.9018,-0.0726,0.5741
15.2530,-0.9018,-0.0726,0.5741
15.2740,-0.8774,-0.0775,0.5988
15.2740,-0.8774,-0.0775,0.5988
15.2740,-0.8774,-0.0775,0.5988
15.2740,-0.8774,-0.0775,0.5988
15.2900,-0.8622,-0.0682,0.5958
15.2900,-0.8622,-0.0682,0.5958
15.2900,-0.8622,-0.0682,0.5958
15.3090,-0.8722,-0.0643,0.6137
15.3090,-0.8722,-0.0643,0.6137
15.3090,-0.8722,-0.0643,0.6137
15.3140,-0.8722,-0.0643,0.6137
