time,AccelerometerX,AccelerometerY,AccelerometerZ
0.052,-0.3812,0.3111,0.8793
0.052,-0.3812,0.3111,0.8793
0.052,-0.3812,0.3111,0.8793
0.052,-0.3812,0.3111,0.8793
0.052,-0.3981,0.2876,0.8309
0.052,-0.3981,0.2876,0.8309
0.052,-0.3981,0.2876,0.8309
0.053,-0.3981,0.2876,0.8309
0.053,-0.3981,0.2876,0.8309
0.053,-0.3756,0.2994,0.8693
0.053,-0.3756,0.2994,0.8693
0.053,-0.3756,0.2994,0.8693
0.053,-0.4221,0.3387,0.9096
0.053,-0.4221,0.3387,0.9096
0.053,-0.4221,0.3387,0.9096
0.053,-0.4157,0.3228,0.9121
0.053,-0.4157,0.3228,0.9121
0.053,-0.4157,0.3228,0.9121
0.053,-0.391,0.2947,0.9069
0.053,-0.391,0.2947,0.9069
0.053,-0.391,0.2947,0.9069
0.054,-0.391,0.2947,0.9069
0.054,-0.391,0.2947,0.9069
0.054,-0.39,0.3013,0.8862
0.054,-0.39,0.3013,0.8862
0.054,-0.39,0.3013,0.8862
0.067,-0.3861,0.3079,0.8637
0.067,-0.3861,0.3079,0.8637
0.067,-0.3861,0.3079,0.8637
0.089,-0.3893,0.3128,0.8691
0.089,-0.3893,0.3128,0.8691
0.089,-0.3893,0.3128,0.8691
0.157,-0.3854,0.3175,0.8886
0.157,-0.3854,0.3175,0.8886
0.158,-0.3854,0.3175,0.8886
0.158,-0.3854,0.3175,0.8886
0.158,-0.3854,0.3175,0.8886
0.158,-0.404,0.3184,0.891
0.158,-0.404,0.3184,0.891
0.158,-0.404,0.3184,0.891
0.158,-0.404,0.3184,0.891
0.158,-0.3949,0.3028,0.8854
0.158,-0.3949,0.3028,0.8854
0.158,-0.3949,0.3028,0.8854
0.165,-0.3795,0.2945,0.8749
0.166,-0.3795,0.2945,0.8749
0.166,-0.3795,0.2945,0.8749
0.185,-0.39,0.305,0.8639
0.185,-0.39,0.305,0.8639
0.185,-0.39,0.305,0.8639
0.187,-0.39,0.305,0.8639
0.187,-0.39,0.305,0.8639
0.205,-0.4015,0.3109,0.8603
0.205,-0.4015,0.3109,0.8603
0.205,-0.4015,0.3109,0.8603
0.226,-0.3776,0.2989,0.8796
0.226,-0.3776,0.2989,0.8796
0.226,-0.3776,0.2989,0.8796
0.245,-0.3781,0.2989,0.8862
0.246,-0.3781,0.2989,0.8862
0.246,-0.3781,0.2989,0.8862
0.265,-0.3891,0.3138,0.8683
0.265,-0.3891,0.3138,0.8683
0.266,-0.3891,0.3138,0.8683
0.268,-0.3891,0.3138,0.8683
0.268,-0.3891,0.3138,0.8683
0.285,-0.3947,0.3048,0.8942
0.285,-0.3947,0.3048,0.8942
0.285,-0.3947,0.3048,0.8942
0.305,-0.3925,0.2991,0.9074
0.306,-0.3925,0.2991,0.9074
0.306,-0.3925,0.2991,0.9074
0.324,-0.3915,0.3111,0.8849
0.325,-0.3915,0.3111,0.8849
0.325,-0.3915,0.3111,0.8849
0.339,-0.3915,0.3111,0.8849
0.344,-0.392,0.3082,0.9077
0.344,-0.392,0.3082,0.9077
0.345,-0.392,0.3082,0.9077
0.347,-0.392,0.3082,0.9077
0.347,-0.392,0.3082,0.9077
0.365,-0.3913,0.3101,0.9057
0.365,-0.3913,0.3101,0.9057
0.365,-0.3913,0.3101,0.9057
0.385,-0.3781,0.3023,0.8896
0.386,-0.3781,0.3023,0.8896
0.386,-0.3781,0.3023,0.8896
0.404,-0.3553,0.283,0.894
0.405,-0.3553,0.283,0.894
0.405,-0.3553,0.283,0.894
0.424,-0.3566,0.2952,0.8962
0.424,-0.3566,0.2952,0.8962
0.424,-0.3566,0.2952,0.8962
0.426,-0.3566,0.2952,0.8962
0.426,-0.3566,0.2952,0.8962
0.444,-0.3976,0.3123,0.9016
0.445,-0.3976,0.3123,0.9016
0.445,-0.3976,0.3123,0.9016
0.465,-0.3869,0.3092,0.8952
0.465,-0.3869,0.3092,0.8952
0.505,-0.3869,0.3092,0.8952
0.505,-0.3856,0.3094,0.8874
0.505,-0.3856,0.3094,0.8874
0.505,-0.3856,0.3094,0.8874
0.505,-0.383,0.3038,0.8715
0.505,-0.383,0.3038,0.8715
0.506,-0.383,0.3038,0.8715
0.507,-0.383,0.3038,0.8715
0.507,-0.383,0.3038,0.8715
0.523,-0.3781,0.2989,0.8847
0.523,-0.3781,0.2989,0.8847
0.523,-0.3781,0.2989,0.8847
0.537,-0.3781,0.2989,0.8847
0.544,-0.3793,0.303,0.8825
0.544,-0.3793,0.303,0.8825
0.545,-0.3793,0.303,0.8825
0.563,-0.3663,0.306,0.8827
0.563,-0.3663,0.306,0.8827
0.563,-0.3663,0.306,0.8827
0.583,-0.3541,0.2967,0.8869
0.583,-0.3541,0.2967,0.8869
0.583,-0.3541,0.2967,0.8869
0.585,-0.3541,0.2967,0.8869
0.586,-0.3541,0.2967,0.8869
0.603,-0.3685,0.3101,0.8932
0.603,-0.3685,0.3101,0.8932
0.603,-0.3685,0.3101,0.8932
0.624,-0.3773,0.317,0.8962
0.624,-0.3773,0.317,0.8962
0.624,-0.3773,0.317,0.8962
0.643,-0.3578,0.2982,0.8942
0.643,-0.3578,0.2982,0.8942
0.643,-0.3578,0.2982,0.8942
0.663,-0.3575,0.2972,0.8866
0.663,-0.3575,0.2972,0.8866
0.664,-0.3575,0.2972,0.8866
0.664,-0.3575,0.2972,0.8866
0.665,-0.3575,0.2972,0.8866
0.682,-0.3624,0.3021,0.8935
0.682,-0.3624,0.3021,0.8935
0.682,-0.3624,0.3021,0.8935
0.703,-0.3575,0.3013,0.9011
0.703,-0.3575,0.3013,0.9011
0.703,-0.3575,0.3013,0.9011
0.722,-0.3585,0.3001,0.9038
0.722,-0.3585,0.3001,0.9038
0.722,-0.3585,0.3001,0.9038
0.737,-0.3585,0.3001,0.9038
0.743,-0.3666,0.3021,0.8947
0.743,-0.3666,0.3021,0.8947
0.743,-0.3666,0.3021,0.8947
0.745,-0.3666,0.3021,0.8947
0.745,-0.3666,0.3021,0.8947
0.762,-0.371,0.2994,0.8879
0.762,-0.371,0.2994,0.8879
0.762,-0.371,0.2994,0.8879
0.782,-0.3612,0.2898,0.8935
0.782,-0.3612,0.2898,0.8935
0.783,-0.3612,0.2898,0.8935
0.802,-0.3568,0.2894,0.895
0.802,-0.3568,0.2894,0.895
0.802,-0.3568,0.2894,0.895
0.822,-0.3575,0.2879,0.8972
0.822,-0.3575,0.2879,0.8972
0.822,-0.3575,0.2879,0.8972
0.824,-0.3575,0.2879,0.8972
0.824,-0.3575,0.2879,0.8972
0.841,-0.3622,0.2898,0.8906
0.842,-0.3622,0.2898,0.8906
0.842,-0.3622,0.2898,0.8906
0.863,-0.3407,0.2803,0.9135
0.863,-0.3407,0.2803,0.9135
0.863,-0.3407,0.2803,0.9135
0.882,-0.3976,0.3021,0.9218
0.882,-0.3976,0.3021,0.9218
0.882,-0.3976,0.3021,0.9218
0.901,-0.416,0.3153,0.9064
0.902,-0.416,0.3153,0.9064
0.902,-0.416,0.3153,0.9064
0.904,-0.416,0.3153,0.9064
0.904,-0.416,0.3153,0.9064
0.921,-0.4013,0.3096,0.8835
0.921,-0.4013,0.3096,0.8835
0.921,-0.4013,0.3096,0.8835
0.935,-0.4013,0.3096,0.8835
0.942,-0.383,0.292,0.872
0.942,-0.383,0.292,0.872
0.942,-0.383,0.292,0.872
0.963,-0.3475,0.284,0.873
0.963,-0.3475,0.284,0.873
0.963,-0.3475,0.284,0.873
0.981,-0.3671,0.292,0.8832
0.981,-0.3671,0.292,0.8832
0.981,-0.3671,0.292,0.8832
0.983,-0.3671,0.292,0.8832
0.984,-0.3671,0.292,0.8832
1.002,-0.3893,0.2908,0.8981
1.002,-0.3893,0.2908,0.8981
1.002,-0.3893,0.2908,0.8981
1.022,-0.3852,0.2879,0.9062
1.067,-0.3852,0.2879,0.9062
1.067,-0.3852,0.2879,0.9062
1.067,-0.3927,0.2945,0.9023
1.067,-0.3927,0.2945,0.9023
1.067,-0.3927,0.2945,0.9023
1.068,-0.3896,0.2886,0.9035
1.068,-0.3896,0.2886,0.9035
1.068,-0.3896,0.2886,0.9035
1.068,-0.3896,0.2886,0.9035
1.068,-0.3896,0.2886,0.9035
1.081,-0.3861,0.2876,0.8925
1.082,-0.3861,0.2876,0.8925
1.082,-0.3861,0.2876,0.8925
1.103,-0.3746,0.2857,0.8847
1.103,-0.3746,0.2857,0.8847
1.103,-0.3746,0.2857,0.8847
1.121,-0.3668,0.293,0.8874
1.121,-0.3668,0.293,0.8874
1.121,-0.3668,0.293,0.8874
1.136,-0.3668,0.293,0.8874
1.139,-0.3839,0.3001,0.9025
1.14,-0.3839,0.3001,0.9025
1.14,-0.3839,0.3001,0.9025
1.142,-0.3839,0.3001,0.9025
1.142,-0.3839,0.3001,0.9025
1.159,-0.379,0.3033,0.9042
1.159,-0.379,0.3033,0.9042
1.16,-0.379,0.3033,0.9042
1.181,-0.3756,0.2977,0.8996
1.181,-0.3756,0.2977,0.8996
1.181,-0.3756,0.2977,0.8996
1.199,-0.3861,0.2918,0.9008
1.2,-0.3861,0.2918,0.9008
1.2,-0.3861,0.2918,0.9008
1.219,-0.3803,0.2808,0.9091
1.219,-0.3803,0.2808,0.9091
1.219,-0.3803,0.2808,0.9091
1.224,-0.3803,0.2808,0.9091
1.225,-0.3803,0.2808,0.9091
1.238,-0.3746,0.2881,0.9011
1.238,-0.3746,0.2881,0.9011
1.239,-0.3746,0.2881,0.9011
1.26,-0.3854,0.293,0.8989
1.26,-0.3854,0.293,0.8989
1.26,-0.3854,0.293,0.8989
1.279,-0.3683,0.2845,0.8945
1.279,-0.3683,0.2845,0.8945
1.279,-0.3683,0.2845,0.8945
1.299,-0.37,0.2901,0.8869
1.299,-0.37,0.2901,0.8869
1.299,-0.37,0.2901,0.8869
1.302,-0.37,0.2901,0.8869
1.302,-0.37,0.2901,0.8869
1.319,-0.372,0.2945,0.8935
1.32,-0.372,0.2945,0.8935
1.32,-0.372,0.2945,0.8935
1.335,-0.372,0.2945,0.8935
1.34,-0.3639,0.2884,0.8998
1.342,-0.3639,0.2884,0.8998
1.343,-0.3639,0.2884,0.8998
1.362,-0.3678,0.2908,0.891
1.362,-0.3678,0.2908,0.891
1.362,-0.3678,0.2908,0.891
1.38,-0.37,0.2925,0.8967
1.38,-0.37,0.2925,0.8967
1.381,-0.37,0.2925,0.8967
1.381,-0.37,0.2925,0.8967
1.382,-0.37,0.2925,0.8967
1.4,-0.3644,0.2911,0.8898
1.401,-0.3644,0.2911,0.8898
1.401,-0.3644,0.2911,0.8898
1.42,-0.3666,0.2815,0.8947
1.421,-0.3666,0.2815,0.8947
1.421,-0.3666,0.2815,0.8947
1.444,-0.3597,0.2803,0.8976
1.445,-0.3597,0.2803,0.8976
1.445,-0.3597,0.2803,0.8976
1.46,-0.3778,0.2996,0.8967
1.46,-0.3778,0.2996,0.8967
1.461,-0.3778,0.2996,0.8967
1.462,-0.3778,0.2996,0.8967
1.463,-0.3778,0.2996,0.8967
1.485,-0.3773,0.2889,0.9116
1.486,-0.3773,0.2889,0.9116
1.487,-0.3773,0.2889,0.9116
1.499,-0.3583,0.283,0.9084
1.502,-0.3583,0.283,0.9084
1.502,-0.3583,0.283,0.9084
1.518,-0.3685,0.2935,0.9001
1.518,-0.3685,0.2935,0.9001
1.518,-0.3685,0.2935,0.9001
1.53,-0.3685,0.2935,0.9001
1.538,-0.3671,0.2771,0.9069
1.538,-0.3671,0.2771,0.9069
1.538,-0.3671,0.2771,0.9069
1.54,-0.3671,0.2771,0.9069
1.54,-0.3671,0.2771,0.9069
1.559,-0.3375,0.2688,0.902
1.559,-0.3375,0.2688,0.902
1.559,-0.3375,0.2688,0.902
1.603,-0.3519,0.2984,0.884
1.603,-0.3519,0.2984,0.884
1.603,-0.3519,0.2984,0.884
1.603,-0.3612,0.2957,0.8859
1.603,-0.3612,0.2957,0.8859
1.603,-0.3612,0.2957,0.8859
1.617,-0.318,0.2696,0.8854
1.617,-0.318,0.2696,0.8854
1.617,-0.318,0.2696,0.8854
1.619,-0.318,0.2696,0.8854
1.619,-0.318,0.2696,0.8854
1.636,-0.3187,0.2832,0.9104
1.636,-0.3187,0.2832,0.9104
1.637,-0.3187,0.2832,0.9104
1.657,-0.3683,0.2749,0.8974
1.657,-0.3683,0.2749,0.8974
1.658,-0.3683,0.2749,0.8974
1.676,-0.3962,0.2832,0.9221
1.677,-0.3962,0.2832,0.9221
1.677,-0.3962,0.2832,0.9221
1.698,-0.4367,0.2879,0.9201
1.698,-0.4367,0.2879,0.9201
1.699,-0.4367,0.2879,0.9201
1.7,-0.4367,0.2879,0.9201
1.7,-0.4367,0.2879,0.9201
1.719,-0.425,0.295,0.8945
1.72,-0.425,0.295,0.8945
1.72,-0.425,0.295,0.8945
1.731,-0.425,0.295,0.8945
1.739,-0.3524,0.2906,0.8644
1.739,-0.3524,0.2906,0.8644
1.74,-0.3524,0.2906,0.8644
1.758,-0.3258,0.2701,0.849
1.758,-0.3258,0.2701,0.849
1.759,-0.3258,0.2701,0.849
1.779,-0.2813,0.2713,0.839
1.779,-0.2813,0.2713,0.839
1.78,-0.2813,0.2713,0.839
1.782,-0.2813,0.2713,0.839
1.783,-0.2813,0.2713,0.839
1.799,-0.3387,0.2986,0.8969
1.8,-0.3387,0.2986,0.8969
1.8,-0.3387,0.2986,0.8969
1.82,-0.4692,0.3004,0.8972
1.821,-0.4692,0.3004,0.8972
1.823,-0.4692,0.3004,0.8972
1.84,-0.4763,0.2923,0.8805
1.84,-0.4763,0.2923,0.8805
1.841,-0.4763,0.2923,0.8805
1.86,-0.4551,0.2825,0.8715
1.861,-0.4551,0.2825,0.8715
1.862,-0.4551,0.2825,0.8715
1.862,-0.4551,0.2825,0.8715
1.863,-0.4551,0.2825,0.8715
1.879,-0.4282,0.2744,0.8737
1.88,-0.4282,0.2744,0.8737
1.881,-0.4282,0.2744,0.8737
1.9,-0.4094,0.2771,0.8544
1.901,-0.4094,0.2771,0.8544
1.902,-0.4094,0.2771,0.8544
1.917,-0.4465,0.2977,0.8326
1.918,-0.4465,0.2977,0.8326
1.918,-0.4465,0.2977,0.8326
1.928,-0.4465,0.2977,0.8326
1.939,-0.4766,0.2854,0.8515
1.939,-0.4766,0.2854,0.8515
1.94,-0.4766,0.2854,0.8515
1.94,-0.4766,0.2854,0.8515
1.94,-0.4766,0.2854,0.8515
1.959,-0.4758,0.2593,0.8676
1.959,-0.4758,0.2593,0.8676
1.96,-0.4758,0.2593,0.8676
1.977,-0.4907,0.2635,0.8632
1.978,-0.4907,0.2635,0.8632
1.979,-0.4907,0.2635,0.8632
1.999,-0.5391,0.2818,0.8519
2,-0.5391,0.2818,0.8519
2.001,-0.5391,0.2818,0.8519
2.019,-0.5472,0.26,0.8854
2.02,-0.5472,0.26,0.8854
2.02,-0.5472,0.26,0.8854
2.021,-0.5472,0.26,0.8854
2.021,-0.5472,0.26,0.8854
2.041,-0.5372,0.2498,0.873
2.042,-0.5372,0.2498,0.873
2.042,-0.5372,0.2498,0.873
2.065,-0.555,0.2723,0.8346
2.066,-0.555,0.2723,0.8346
2.067,-0.555,0.2723,0.8346
2.077,-0.5726,0.2769,0.8275
2.078,-0.5726,0.2769,0.8275
2.079,-0.5726,0.2769,0.8275
2.096,-0.5423,0.2581,0.8251
2.096,-0.5423,0.2581,0.8251
2.097,-0.5423,0.2581,0.8251
2.098,-0.5423,0.2581,0.8251
2.099,-0.5423,0.2581,0.8251
2.118,-0.5311,0.2806,0.7999
2.118,-0.5311,0.2806,0.7999
2.119,-0.5311,0.2806,0.7999
2.187,-0.5311,0.2806,0.7999
2.187,-0.5389,0.3128,0.8248
2.187,-0.5389,0.3128,0.8248
2.188,-0.5389,0.3128,0.8248
2.188,-0.5296,0.3148,0.8219
2.188,-0.5296,0.3148,0.8219
2.188,-0.5296,0.3148,0.8219
2.188,-0.5171,0.2825,0.8097
2.188,-0.5171,0.2825,0.8097
2.189,-0.5171,0.2825,0.8097
2.189,-0.5171,0.2825,0.8097
2.189,-0.5171,0.2825,0.8097
2.193,-0.4905,0.2542,0.8346
2.193,-0.4905,0.2542,0.8346
2.193,-0.4905,0.2542,0.8346
2.213,-0.5008,0.3021,0.8128
2.214,-0.5008,0.3021,0.8128
2.214,-0.5008,0.3021,0.8128
2.233,-0.5653,0.3424,0.7776
2.233,-0.5653,0.3424,0.7776
2.233,-0.5653,0.3424,0.7776
2.253,-0.5543,0.2832,0.8094
2.253,-0.5543,0.2832,0.8094
2.253,-0.5543,0.2832,0.8094
2.255,-0.5543,0.2832,0.8094
2.255,-0.5543,0.2832,0.8094
2.273,-0.478,0.2334,0.826
2.273,-0.478,0.2334,0.826
2.274,-0.478,0.2334,0.826
2.296,-0.502,0.2967,0.7945
2.296,-0.502,0.2967,0.7945
2.296,-0.502,0.2967,0.7945
2.315,-0.5692,0.3529,0.8006
2.315,-0.5692,0.3529,0.8006
2.316,-0.5692,0.3529,0.8006
2.326,-0.5692,0.3529,0.8006
2.335,-0.5538,0.2898,0.8375
2.336,-0.5538,0.2898,0.8375
2.336,-0.5538,0.2898,0.8375
2.337,-0.5538,0.2898,0.8375
2.337,-0.5538,0.2898,0.8375
2.354,-0.5078,0.2749,0.8092
2.355,-0.5078,0.2749,0.8092
2.355,-0.5078,0.2749,0.8092
2.376,-0.5496,0.3487,0.7615
2.376,-0.5496,0.3487,0.7615
2.377,-0.5496,0.3487,0.7615
2.396,-0.6019,0.3458,0.7962
2.396,-0.6019,0.3458,0.7962
2.396,-0.6019,0.3458,0.7962
2.416,-0.5462,0.2788,0.8141
2.416,-0.5462,0.2788,0.8141
2.417,-0.5462,0.2788,0.8141
2.417,-0.5462,0.2788,0.8141
2.418,-0.5462,0.2788,0.8141
2.435,-0.5152,0.2955,0.7723
2.435,-0.5152,0.2955,0.7723
2.436,-0.5152,0.2955,0.7723
2.455,-0.5821,0.3448,0.7669
2.455,-0.5821,0.3448,0.7669
2.456,-0.5821,0.3448,0.7669
2.475,-0.6078,0.3267,0.8048
2.475,-0.6078,0.3267,0.8048
2.476,-0.6078,0.3267,0.8048
2.496,-0.5511,0.2727,0.816
2.496,-0.5511,0.2727,0.816
2.497,-0.5511,0.2727,0.816
2.504,-0.5511,0.2727,0.816
2.505,-0.5511,0.2727,0.816
2.517,-0.5188,0.2916,0.8018
2.518,-0.5188,0.2916,0.8018
2.519,-0.5188,0.2916,0.8018
2.523,-0.5188,0.2916,0.8018
2.535,-0.5794,0.3451,0.8062
2.536,-0.5794,0.3451,0.8062
2.538,-0.5794,0.3451,0.8062
2.554,-0.6479,0.3531,0.796
2.555,-0.6479,0.3531,0.796
2.555,-0.6479,0.3531,0.796
2.577,-0.5799,0.2825,0.815
2.578,-0.5799,0.2825,0.815
2.579,-0.5799,0.2825,0.815
2.579,-0.5799,0.2825,0.815
2.581,-0.5799,0.2825,0.815
2.595,-0.4944,0.2639,0.7992
2.595,-0.4944,0.2639,0.7992
2.596,-0.4944,0.2639,0.7992
2.616,-0.5249,0.3202,0.7776
2.617,-0.5249,0.3202,0.7776
2.62,-0.5249,0.3202,0.7776
2.635,-0.5699,0.3487,0.7862
2.636,-0.5699,0.3487,0.7862
2.636,-0.5699,0.3487,0.7862
2.655,-0.5614,0.3153,0.7957
2.656,-0.5614,0.3153,0.7957
2.658,-0.5614,0.3153,0.7957
2.659,-0.5614,0.3153,0.7957
2.659,-0.5614,0.3153,0.7957
2.672,-0.5352,0.2708,0.797
2.673,-0.5352,0.2708,0.797
2.756,-0.5352,0.2708,0.797
2.756,-0.5215,0.2708,0.7772
2.756,-0.5215,0.2708,0.7772
2.756,-0.5215,0.2708,0.7772
2.756,-0.5274,0.2916,0.7737
2.757,-0.5274,0.2916,0.7737
2.757,-0.5274,0.2916,0.7737
2.757,-0.5274,0.2916,0.7737
2.758,-0.5401,0.2842,0.8136
2.758,-0.5401,0.2842,0.8136
2.759,-0.5401,0.2842,0.8136
2.759,-0.5401,0.2842,0.8136
2.759,-0.5401,0.2842,0.8136
2.759,-0.5555,0.2894,0.8187
2.759,-0.5555,0.2894,0.8187
2.76,-0.5555,0.2894,0.8187
2.771,-0.5616,0.3131,0.8021
2.771,-0.5616,0.3131,0.8021
2.771,-0.5616,0.3131,0.8021
2.791,-0.5699,0.3074,0.7906
2.791,-0.5699,0.3074,0.7906
2.792,-0.5699,0.3074,0.7906
2.81,-0.5477,0.294,0.793
2.81,-0.5477,0.294,0.793
2.81,-0.5477,0.294,0.793
2.812,-0.5477,0.294,0.793
2.813,-0.5477,0.294,0.793
2.83,-0.5191,0.3096,0.7894
2.83,-0.5191,0.3096,0.7894
2.83,-0.5191,0.3096,0.7894
2.851,-0.5042,0.336,0.7706
2.851,-0.5042,0.336,0.7706
2.851,-0.5042,0.336,0.7706
2.87,-0.5052,0.3368,0.7547
2.87,-0.5052,0.3368,0.7547
2.87,-0.5052,0.3368,0.7547
2.892,-0.5188,0.3214,0.7461
2.893,-0.5188,0.3214,0.7461
2.893,-0.5188,0.3214,0.7461
2.893,-0.5188,0.3214,0.7461
2.893,-0.5188,0.3214,0.7461
2.912,-0.5281,0.3172,0.7708
2.912,-0.5281,0.3172,0.7708
2.912,-0.5281,0.3172,0.7708
2.92,-0.5281,0.3172,0.7708
2.932,-0.5457,0.3175,0.7786
2.932,-0.5457,0.3175,0.7786
2.933,-0.5457,0.3175,0.7786
2.953,-0.5677,0.3206,0.763
2.954,-0.5677,0.3206,0.763
2.955,-0.5677,0.3206,0.763
2.973,-0.5885,0.3101,0.7957
2.973,-0.5885,0.3101,0.7957
2.974,-0.5885,0.3101,0.7957
2.976,-0.5885,0.3101,0.7957
2.976,-0.5885,0.3101,0.7957
2.991,-0.5834,0.2854,0.8182
2.992,-0.5834,0.2854,0.8182
2.992,-0.5834,0.2854,0.8182
3.012,-0.5922,0.2896,0.8082
3.013,-0.5922,0.2896,0.8082
3.013,-0.5922,0.2896,0.8082
3.032,-0.5992,0.2945,0.8185
3.033,-0.5992,0.2945,0.8185
3.034,-0.5992,0.2945,0.8185
3.052,-0.6019,0.2786,0.8241
3.053,-0.6019,0.2786,0.8241
3.054,-0.6019,0.2786,0.8241
3.055,-0.6019,0.2786,0.8241
3.057,-0.6019,0.2786,0.8241
3.07,-0.6117,0.2657,0.8216
3.071,-0.6117,0.2657,0.8216
3.071,-0.6117,0.2657,0.8216
3.098,-0.6168,0.2803,0.8126
3.101,-0.6168,0.2803,0.8126
3.102,-0.6168,0.2803,0.8126
3.112,-0.61,0.2955,0.8031
3.112,-0.61,0.2955,0.8031
3.113,-0.61,0.2955,0.8031
3.122,-0.61,0.2955,0.8031
3.13,-0.6017,0.2818,0.7835
3.131,-0.6017,0.2818,0.7835
3.132,-0.6017,0.2818,0.7835
3.134,-0.6017,0.2818,0.7835
3.135,-0.6017,0.2818,0.7835
3.151,-0.5887,0.262,0.7772
3.151,-0.5887,0.262,0.7772
3.152,-0.5887,0.262,0.7772
3.17,-0.588,0.2652,0.7776
3.171,-0.588,0.2652,0.7776
3.171,-0.588,0.2652,0.7776
3.188,-0.5922,0.272,0.7791
3.188,-0.5922,0.272,0.7791
3.189,-0.5922,0.272,0.7791
3.21,-0.5819,0.2644,0.7992
3.211,-0.5819,0.2644,0.7992
3.211,-0.5819,0.2644,0.7992
3.213,-0.5819,0.2644,0.7992
3.214,-0.5819,0.2644,0.7992
3.23,-0.5946,0.2525,0.8072
3.297,-0.5946,0.2525,0.8072
3.298,-0.5946,0.2525,0.8072
3.299,-0.612,0.2505,0.7847
3.3,-0.612,0.2505,0.7847
3.3,-0.612,0.2505,0.7847
3.301,-0.6249,0.251,0.7794
3.301,-0.6249,0.251,0.7794
3.301,-0.6249,0.251,0.7794
3.302,-0.6251,0.2468,0.795
3.302,-0.6251,0.2468,0.795
3.302,-0.6251,0.2468,0.795
3.302,-0.6251,0.2468,0.795
3.303,-0.6251,0.2468,0.795
3.307,-0.6112,0.2498,0.782
3.307,-0.6112,0.2498,0.782
3.307,-0.6112,0.2498,0.782
3.316,-0.6112,0.2498,0.782
3.327,-0.6176,0.2762,0.7601
3.327,-0.6176,0.2762,0.7601
3.327,-0.6176,0.2762,0.7601
3.346,-0.6293,0.2791,0.7698
3.346,-0.6293,0.2791,0.7698
3.347,-0.6293,0.2791,0.7698
3.366,-0.6308,0.2625,0.7701
3.366,-0.6308,0.2625,0.7701
3.366,-0.6308,0.2625,0.7701
3.368,-0.6308,0.2625,0.7701
3.368,-0.6308,0.2625,0.7701
3.385,-0.6376,0.2598,0.7539
3.386,-0.6376,0.2598,0.7539
3.386,-0.6376,0.2598,0.7539
3.408,-0.6276,0.2637,0.75
3.408,-0.6276,0.2637,0.75
3.408,-0.6276,0.2637,0.75
3.427,-0.6076,0.2525,0.7503
3.427,-0.6076,0.2525,0.7503
3.427,-0.6076,0.2525,0.7503
3.446,-0.6166,0.2534,0.7366
3.446,-0.6166,0.2534,0.7366
3.447,-0.6166,0.2534,0.7366
3.448,-0.6166,0.2534,0.7366
3.448,-0.6166,0.2534,0.7366
3.466,-0.6112,0.2784,0.7283
3.466,-0.6112,0.2784,0.7283
3.466,-0.6112,0.2784,0.7283
3.486,-0.6242,0.3016,0.7429
3.486,-0.6242,0.3016,0.7429
3.486,-0.6242,0.3016,0.7429
3.507,-0.6657,0.3094,0.7429
3.507,-0.6657,0.3094,0.7429
3.507,-0.6657,0.3094,0.7429
3.515,-0.6657,0.3094,0.7429
3.526,-0.6955,0.2879,0.739
3.526,-0.6955,0.2879,0.739
3.526,-0.6955,0.2879,0.739
3.528,-0.6955,0.2879,0.739
3.528,-0.6955,0.2879,0.739
3.548,-0.7002,0.2718,0.7334
3.548,-0.7002,0.2718,0.7334
3.549,-0.7002,0.2718,0.7334
3.567,-0.6777,0.2964,0.7122
3.567,-0.6777,0.2964,0.7122
3.567,-0.6777,0.2964,0.7122
3.586,-0.6733,0.3158,0.73
3.587,-0.6733,0.3158,0.73
3.587,-0.6733,0.3158,0.73
3.606,-0.6779,0.314,0.7183
3.606,-0.6779,0.314,0.7183
3.607,-0.6779,0.314,0.7183
3.608,-0.6779,0.314,0.7183
3.608,-0.6779,0.314,0.7183
3.63,-0.6897,0.3101,0.6853
3.631,-0.6897,0.3101,0.6853
3.632,-0.6897,0.3101,0.6853
3.646,-0.6931,0.2908,0.6853
3.646,-0.6931,0.2908,0.6853
3.647,-0.6931,0.2908,0.6853
3.666,-0.673,0.2874,0.7041
3.666,-0.673,0.2874,0.7041
3.667,-0.673,0.2874,0.7041
3.685,-0.6518,0.3292,0.6806
3.685,-0.6518,0.3292,0.6806
3.686,-0.6518,0.3292,0.6806
3.689,-0.6518,0.3292,0.6806
3.69,-0.6518,0.3292,0.6806
3.705,-0.6833,0.3605,0.6589
3.705,-0.6833,0.3605,0.6589
3.706,-0.6833,0.3605,0.6589
3.714,-0.6833,0.3605,0.6589
3.725,-0.7014,0.3451,0.6679
3.725,-0.7014,0.3451,0.6679
3.726,-0.7014,0.3451,0.6679
3.746,-0.6823,0.3258,0.6383
3.748,-0.6823,0.3258,0.6383
3.748,-0.6823,0.3258,0.6383
3.768,-0.6975,0.3277,0.6039
3.77,-0.6975,0.3277,0.6039
3.77,-0.6975,0.3277,0.6039
3.771,-0.6975,0.3277,0.6039
3.771,-0.6975,0.3277,0.6039
3.83,-0.7368,0.3004,0.6403
3.831,-0.7368,0.3004,0.6403
3.831,-0.7368,0.3004,0.6403
3.831,-0.7209,0.285,0.6398
3.832,-0.7209,0.285,0.6398
3.832,-0.7209,0.285,0.6398
3.832,-0.7219,0.3209,0.6251
3.832,-0.7219,0.3209,0.6251
3.832,-0.7219,0.3209,0.6251
3.844,-0.7407,0.3282,0.6491
3.844,-0.7407,0.3282,0.6491
3.845,-0.7407,0.3282,0.6491
3.846,-0.7407,0.3282,0.6491
3.846,-0.7407,0.3282,0.6491
3.863,-0.7166,0.3111,0.6625
3.863,-0.7166,0.3111,0.6625
3.863,-0.7166,0.3111,0.6625
3.883,-0.7117,0.3192,0.6684
3.883,-0.7117,0.3192,0.6684
3.884,-0.7117,0.3192,0.6684
3.904,-0.7185,0.328,0.6713
3.905,-0.7185,0.328,0.6713
3.905,-0.7185,0.328,0.6713
3.911,-0.7185,0.328,0.6713
3.923,-0.7119,0.3258,0.6459
3.923,-0.7119,0.3258,0.6459
3.923,-0.7119,0.3258,0.6459
3.927,-0.7119,0.3258,0.6459
3.927,-0.7119,0.3258,0.6459
3.942,-0.7246,0.3148,0.6374
3.942,-0.7246,0.3148,0.6374
3.942,-0.7246,0.3148,0.6374
3.962,-0.7613,0.3231,0.6232
3.962,-0.7613,0.3231,0.6232
3.963,-0.7613,0.3231,0.6232
3.983,-0.7596,0.339,0.6347
3.983,-0.7596,0.339,0.6347
3.983,-0.7596,0.339,0.6347
4.002,-0.7271,0.3597,0.6335
4.002,-0.7271,0.3597,0.6335
4.002,-0.7271,0.3597,0.6335
4.006,-0.7271,0.3597,0.6335
4.006,-0.7271,0.3597,0.6335
4.022,-0.7249,0.3681,0.6271
4.023,-0.7249,0.3681,0.6271
4.023,-0.7249,0.3681,0.6271
4.027,-0.7249,0.3681,0.6271
4.042,-0.7434,0.3629,0.5988
4.042,-0.7434,0.3629,0.5988
4.043,-0.7434,0.3629,0.5988
4.063,-0.7679,0.3509,0.5912
4.063,-0.7679,0.3509,0.5912
4.063,-0.7679,0.3509,0.5912
4.083,-0.7476,0.3377,0.6269
4.083,-0.7476,0.3377,0.6269
4.083,-0.7476,0.3377,0.6269
4.085,-0.7476,0.3377,0.6269
4.085,-0.7476,0.3377,0.6269
4.103,-0.7368,0.3431,0.6374
4.103,-0.7368,0.3431,0.6374
4.103,-0.7368,0.3431,0.6374
4.115,-0.7368,0.3431,0.6374
4.125,-0.7495,0.358,0.6305
4.128,-0.7495,0.358,0.6305
4.129,-0.7495,0.358,0.6305
4.142,-0.7525,0.3651,0.6132
4.143,-0.7525,0.3651,0.6132
4.143,-0.7525,0.3651,0.6132
4.162,-0.7007,0.3583,0.5926
4.162,-0.7007,0.3583,0.5926
4.162,-0.7007,0.3583,0.5926
4.164,-0.7007,0.3583,0.5926
4.164,-0.7007,0.3583,0.5926
4.182,-0.6992,0.3458,0.5983
4.182,-0.6992,0.3458,0.5983
4.182,-0.6992,0.3458,0.5983
4.202,-0.7586,0.3351,0.6183
4.203,-0.7586,0.3351,0.6183
4.203,-0.7586,0.3351,0.6183
4.223,-0.7847,0.3253,0.6188
4.223,-0.7847,0.3253,0.6188
4.223,-0.7847,0.3253,0.6188
4.241,-0.764,0.306,0.6308
4.242,-0.764,0.306,0.6308
4.242,-0.764,0.306,0.6308
4.244,-0.764,0.306,0.6308
4.244,-0.764,0.306,0.6308
4.263,-0.728,0.3177,0.608
4.264,-0.728,0.3177,0.608
4.264,-0.728,0.3177,0.608
4.282,-0.7016,0.3343,0.6112
4.282,-0.7016,0.3343,0.6112
4.282,-0.7016,0.3343,0.6112
4.302,-0.7119,0.3424,0.6459
4.302,-0.7119,0.3424,0.6459
4.302,-0.7119,0.3424,0.6459
4.31,-0.7119,0.3424,0.6459
4.321,-0.7205,0.3541,0.6002
4.321,-0.7205,0.3541,0.6002
4.321,-0.7205,0.3541,0.6002
4.362,-0.7205,0.3541,0.6002
4.362,-0.7205,0.3541,0.6002
4.362,-0.7381,0.3465,0.5753
4.362,-0.7381,0.3465,0.5753
4.362,-0.7381,0.3465,0.5753
4.362,-0.7515,0.3211,0.6029
4.362,-0.7515,0.3211,0.6029
4.362,-0.7515,0.3211,0.6029
4.381,-0.7278,0.3353,0.5856
4.382,-0.7278,0.3353,0.5856
4.382,-0.7278,0.3353,0.5856
4.401,-0.7056,0.3566,0.588
4.401,-0.7056,0.3566,0.588
4.401,-0.7056,0.3566,0.588
4.403,-0.7056,0.3566,0.588
4.404,-0.7056,0.3566,0.588
4.42,-0.6975,0.3397,0.6283
4.42,-0.6975,0.3397,0.6283
4.42,-0.6975,0.3397,0.6283
4.44,-0.7288,0.3404,0.6322
4.44,-0.7288,0.3404,0.6322
4.441,-0.7288,0.3404,0.6322
4.46,-0.7794,0.3612,0.6095
4.46,-0.7794,0.3612,0.6095
4.46,-0.7794,0.3612,0.6095
4.488,-0.8023,0.3612,0.5995
4.489,-0.8023,0.3612,0.5995
4.489,-0.8023,0.3612,0.5995
4.489,-0.8023,0.3612,0.5995
4.489,-0.8023,0.3612,0.5995
4.499,-0.7962,0.3419,0.6286
4.499,-0.7962,0.3419,0.6286
4.499,-0.7962,0.3419,0.6286
4.507,-0.7962,0.3419,0.6286
4.519,-0.7884,0.3419,0.6139
4.519,-0.7884,0.3419,0.6139
4.519,-0.7884,0.3419,0.6139
4.54,-0.773,0.3654,0.577
4.541,-0.773,0.3654,0.577
4.541,-0.773,0.3654,0.577
4.559,-0.7486,0.3563,0.5816
4.559,-0.7486,0.3563,0.5816
4.559,-0.7486,0.3563,0.5816
4.561,-0.7486,0.3563,0.5816
4.561,-0.7486,0.3563,0.5816
4.579,-0.7415,0.3363,0.5746
4.579,-0.7415,0.3363,0.5746
4.579,-0.7415,0.3363,0.5746
4.599,-0.7459,0.3468,0.5533
4.599,-0.7459,0.3468,0.5533
4.599,-0.7459,0.3468,0.5533
4.62,-0.7503,0.35,0.5807
4.62,-0.7503,0.35,0.5807
4.62,-0.7503,0.35,0.5807
4.622,-0.7503,0.35,0.5807
4.639,-0.7537,0.3507,0.6022
4.64,-0.7537,0.3507,0.6022
4.64,-0.7537,0.3507,0.6022
4.642,-0.7537,0.3507,0.6022
4.642,-0.7537,0.3507,0.6022
4.658,-0.7654,0.38,0.5836
4.658,-0.7654,0.38,0.5836
4.658,-0.7654,0.38,0.5836
4.679,-0.7754,0.3773,0.609
4.679,-0.7754,0.3773,0.609
4.68,-0.7754,0.3773,0.609
4.7,-0.7747,0.3639,0.6019
4.7,-0.7747,0.3639,0.6019
4.7,-0.7747,0.3639,0.6019
4.706,-0.7747,0.3639,0.6019
4.718,-0.7874,0.3896,0.5746
4.719,-0.7874,0.3896,0.5746
4.719,-0.7874,0.3896,0.5746
4.721,-0.7874,0.3896,0.5746
4.722,-0.7874,0.3896,0.5746
4.738,-0.7889,0.3703,0.608
4.739,-0.7889,0.3703,0.608
4.739,-0.7889,0.3703,0.608
4.758,-0.7395,0.3402,0.5956
4.758,-0.7395,0.3402,0.5956
4.759,-0.7395,0.3402,0.5956
4.779,-0.7188,0.3534,0.5692
4.779,-0.7188,0.3534,0.5692
4.779,-0.7188,0.3534,0.5692
4.799,-0.7596,0.3551,0.5812
4.799,-0.7596,0.3551,0.5812
4.799,-0.7596,0.3551,0.5812
4.801,-0.7596,0.3551,0.5812
4.801,-0.7596,0.3551,0.5812
4.818,-0.742,0.3377,0.5985
4.818,-0.742,0.3377,0.5985
4.818,-0.742,0.3377,0.5985
4.838,-0.7557,0.3583,0.5863
4.839,-0.7557,0.3583,0.5863
4.839,-0.7557,0.3583,0.5863
4.858,-0.7864,0.3639,0.6024
4.858,-0.7864,0.3639,0.6024
4.858,-0.7864,0.3639,0.6024
4.879,-0.7718,0.3463,0.6036
4.879,-0.7718,0.3463,0.6036
4.919,-0.7718,0.3463,0.6036
4.919,-0.7718,0.3463,0.6036
4.919,-0.7718,0.3463,0.6036
4.919,-0.7674,0.3531,0.6107
4.919,-0.7674,0.3531,0.6107
4.919,-0.7674,0.3531,0.6107
4.919,-0.7674,0.3531,0.6107
4.919,-0.7794,0.3656,0.6039
4.919,-0.7794,0.3656,0.6039
4.92,-0.7794,0.3656,0.6039
4.938,-0.7862,0.3634,0.5902
4.938,-0.7862,0.3634,0.5902
4.938,-0.7862,0.3634,0.5902
4.958,-0.7625,0.3563,0.5787
4.958,-0.7625,0.3563,0.5787
4.958,-0.7625,0.3563,0.5787
4.96,-0.7625,0.3563,0.5787
4.96,-0.7625,0.3563,0.5787
4.978,-0.7268,0.3558,0.5743
4.978,-0.7268,0.3558,0.5743
4.978,-0.7268,0.3558,0.5743
4.997,-0.7549,0.359,0.5694
4.998,-0.7549,0.359,0.5694
4.998,-0.7549,0.359,0.5694
5.018,-0.7598,0.3571,0.5726
5.018,-0.7598,0.3571,0.5726
5.018,-0.7598,0.3571,0.5726
5.039,-0.742,0.3566,0.5709
5.039,-0.742,0.3566,0.5709
5.039,-0.742,0.3566,0.5709
5.039,-0.742,0.3566,0.5709
5.039,-0.742,0.3566,0.5709
5.056,-0.7593,0.3583,0.5768
5.056,-0.7593,0.3583,0.5768
5.056,-0.7593,0.3583,0.5768
5.076,-0.7684,0.3541,0.5873
5.076,-0.7684,0.3541,0.5873
5.077,-0.7684,0.3541,0.5873
5.097,-0.7718,0.3539,0.5821
5.097,-0.7718,0.3539,0.5821
5.097,-0.7718,0.3539,0.5821
5.102,-0.7718,0.3539,0.5821
5.117,-0.773,0.3597,0.5807
5.117,-0.773,0.3597,0.5807
5.117,-0.773,0.3597,0.5807
5.119,-0.773,0.3597,0.5807
5.119,-0.773,0.3597,0.5807
5.137,-0.783,0.3529,0.5924
5.137,-0.783,0.3529,0.5924
5.137,-0.783,0.3529,0.5924
5.155,-0.7742,0.3505,0.6044
5.155,-0.7742,0.3505,0.6044
5.155,-0.7742,0.3505,0.6044
5.177,-0.7493,0.3607,0.5914
5.177,-0.7493,0.3607,0.5914
5.177,-0.7493,0.3607,0.5914
5.197,-0.7591,0.3632,0.5804
5.197,-0.7591,0.3632,0.5804
5.198,-0.7591,0.3632,0.5804
5.199,-0.7591,0.3632,0.5804
5.199,-0.7591,0.3632,0.5804
5.219,-0.7588,0.3502,0.5792
5.219,-0.7588,0.3502,0.5792
5.219,-0.7588,0.3502,0.5792
5.219,-0.7588,0.3502,0.5792
5.236,-0.7559,0.348,0.5797
5.236,-0.7559,0.348,0.5797
5.236,-0.7559,0.348,0.5797
5.257,-0.7608,0.3431,0.5948
5.257,-0.7608,0.3431,0.5948
5.257,-0.7608,0.3431,0.5948
5.276,-0.761,0.3478,0.5772
5.276,-0.761,0.3478,0.5772
5.276,-0.761,0.3478,0.5772
5.278,-0.761,0.3478,0.5772
5.278,-0.761,0.3478,0.5772
5.296,-0.7449,0.3475,0.5851
5.296,-0.7449,0.3475,0.5851
5.296,-0.7449,0.3475,0.5851
5.3,-0.7449,0.3475,0.5851
5.316,-0.7532,0.339,0.6005
5.317,-0.7532,0.339,0.6005
5.317,-0.7532,0.339,0.6005
5.338,-0.7737,0.3519,0.5958
5.339,-0.7737,0.3519,0.5958
5.339,-0.7737,0.3519,0.5958
5.357,-0.774,0.3607,0.6041
5.357,-0.774,0.3607,0.6041
5.358,-0.774,0.3607,0.6041
5.358,-0.774,0.3607,0.6041
5.359,-0.774,0.3607,0.6041
5.377,-0.7601,0.3509,0.6046
5.378,-0.7601,0.3509,0.6046
5.378,-0.7601,0.3509,0.6046
5.397,-0.7432,0.3509,0.5814
5.397,-0.7432,0.3509,0.5814
5.398,-0.7432,0.3509,0.5814
5.418,-0.7366,0.3487,0.5768
5.418,-0.7366,0.3487,0.5768
5.419,-0.7366,0.3487,0.5768
5.469,-0.7366,0.3487,0.5768
5.47,-0.7376,0.3461,0.5748
5.47,-0.7376,0.3461,0.5748
5.47,-0.7376,0.3461,0.5748
5.47,-0.7376,0.3461,0.5748
5.471,-0.7376,0.3461,0.5748
5.471,-0.7747,0.3617,0.5733
5.471,-0.7747,0.3617,0.5733
5.471,-0.7747,0.3617,0.5733
5.476,-0.8038,0.3575,0.5882
5.476,-0.8038,0.3575,0.5882
5.476,-0.8038,0.3575,0.5882
5.497,-0.7539,0.3375,0.587
5.497,-0.7539,0.3375,0.587
5.497,-0.7539,0.3375,0.587
5.5,-0.7539,0.3375,0.587
5.515,-0.71,0.3351,0.5753
5.516,-0.71,0.3351,0.5753
5.516,-0.71,0.3351,0.5753
5.516,-0.71,0.3351,0.5753
5.516,-0.71,0.3351,0.5753
5.538,-0.7403,0.3414,0.5758
5.538,-0.7403,0.3414,0.5758
5.538,-0.7403,0.3414,0.5758
5.555,-0.7776,0.3377,0.5961
5.555,-0.7776,0.3377,0.5961
5.555,-0.7776,0.3377,0.5961
5.576,-0.7398,0.3336,0.5931
5.577,-0.7398,0.3336,0.5931
5.577,-0.7398,0.3336,0.5931
5.594,-0.7701,0.3534,0.5944
5.595,-0.7701,0.3534,0.5944
5.595,-0.7701,0.3534,0.5944
5.596,-0.7701,0.3534,0.5944
5.597,-0.7701,0.3534,0.5944
5.613,-0.8255,0.3593,0.5868
5.615,-0.8255,0.3593,0.5868
5.616,-0.8255,0.3593,0.5868
5.618,-0.8255,0.3593,0.5868
5.632,-0.8216,0.3517,0.5677
5.632,-0.8216,0.3517,0.5677
5.632,-0.8216,0.3517,0.5677
5.653,-0.7552,0.337,0.5846
5.653,-0.7552,0.337,0.5846
5.653,-0.7552,0.337,0.5846
5.672,-0.7437,0.347,0.5851
5.672,-0.7437,0.347,0.5851
5.672,-0.7437,0.347,0.5851
5.674,-0.7437,0.347,0.5851
5.675,-0.7437,0.347,0.5851
5.692,-0.7627,0.3541,0.5931
5.692,-0.7627,0.3541,0.5931
5.692,-0.7627,0.3541,0.5931
5.697,-0.7627,0.3541,0.5931
5.712,-0.7583,0.3294,0.61
5.713,-0.7583,0.3294,0.61
5.713,-0.7583,0.3294,0.61
5.735,-0.7833,0.3263,0.5846
5.735,-0.7833,0.3263,0.5846
5.735,-0.7833,0.3263,0.5846
5.752,-0.7884,0.3094,0.5838
5.752,-0.7884,0.3094,0.5838
5.753,-0.7884,0.3094,0.5838
5.756,-0.7884,0.3094,0.5838
5.756,-0.7884,0.3094,0.5838
5.773,-0.729,0.2908,0.5912
5.773,-0.729,0.2908,0.5912
5.773,-0.729,0.2908,0.5912
5.796,-0.6831,0.3106,0.6039
5.796,-0.6831,0.3106,0.6039
5.796,-0.6831,0.3106,0.6039
5.814,-0.7363,0.3487,0.6164
5.815,-0.7363,0.3487,0.6164
5.815,-0.7363,0.3487,0.6164
5.815,-0.7363,0.3487,0.6164
5.832,-0.7757,0.359,0.6061
5.832,-0.7757,0.359,0.6061
5.832,-0.7757,0.359,0.6061
5.835,-0.7757,0.359,0.6061
5.836,-0.7757,0.359,0.6061
5.851,-0.7698,0.3497,0.5907
5.851,-0.7698,0.3497,0.5907
5.851,-0.7698,0.3497,0.5907
5.872,-0.8126,0.3456,0.5838
5.872,-0.8126,0.3456,0.5838
5.872,-0.8126,0.3456,0.5838
5.892,-0.7916,0.3483,0.5826
5.893,-0.7916,0.3483,0.5826
5.893,-0.7916,0.3483,0.5826
5.897,-0.7916,0.3483,0.5826
5.912,-0.7601,0.3512,0.5814
5.912,-0.7601,0.3512,0.5814
5.912,-0.7601,0.3512,0.5814
5.915,-0.7601,0.3512,0.5814
5.915,-0.7601,0.3512,0.5814
5.931,-0.7759,0.3456,0.5504
5.932,-0.7759,0.3456,0.5504
5.932,-0.7759,0.3456,0.5504
5.954,-0.7732,0.336,0.5416
5.955,-0.7732,0.336,0.5416
6.033,-0.7732,0.336,0.5416
6.034,-0.763,0.3287,0.5535
6.034,-0.763,0.3287,0.5535
6.034,-0.763,0.3287,0.5535
6.034,-0.7732,0.3355,0.5575
6.034,-0.7732,0.3355,0.5575
6.035,-0.7732,0.3355,0.5575
6.035,-0.7732,0.3355,0.5575
6.035,-0.7732,0.3355,0.5575
6.035,-0.7752,0.3421,0.5812
6.035,-0.7752,0.3421,0.5812
6.035,-0.7752,0.3421,0.5812
6.036,-0.8067,0.3507,0.5792
6.036,-0.8067,0.3507,0.5792
6.036,-0.8067,0.3507,0.5792
6.052,-0.8106,0.3439,0.5841
6.053,-0.8106,0.3439,0.5841
6.053,-0.8106,0.3439,0.5841
6.072,-0.7899,0.3468,0.5748
6.073,-0.7899,0.3468,0.5748
6.073,-0.7899,0.3468,0.5748
6.076,-0.7899,0.3468,0.5748
6.077,-0.7899,0.3468,0.5748
6.092,-0.7901,0.35,0.577
6.093,-0.7901,0.35,0.577
6.093,-0.7901,0.35,0.577
6.096,-0.7901,0.35,0.577
6.113,-0.8146,0.3468,0.5787
6.118,-0.8146,0.3468,0.5787
6.118,-0.8146,0.3468,0.5787
6.132,-0.8124,0.347,0.5548
6.133,-0.8124,0.347,0.5548
6.133,-0.8124,0.347,0.5548
6.153,-0.7742,0.3522,0.5499
6.153,-0.7742,0.3522,0.5499
6.156,-0.7742,0.3522,0.5499
6.159,-0.7742,0.3522,0.5499
6.161,-0.7742,0.3522,0.5499
6.172,-0.7351,0.3632,0.546
6.172,-0.7351,0.3632,0.546
6.173,-0.7351,0.3632,0.546
6.19,-0.7926,0.3881,0.5335
6.191,-0.7926,0.3881,0.5335
6.192,-0.7926,0.3881,0.5335
6.213,-0.8246,0.3734,0.5511
6.214,-0.8246,0.3734,0.5511
6.214,-0.8246,0.3734,0.5511
6.23,-0.7835,0.359,0.5428
6.231,-0.7835,0.359,0.5428
6.231,-0.7835,0.359,0.5428
6.235,-0.7835,0.359,0.5428
6.236,-0.7835,0.359,0.5428
6.249,-0.8036,0.3712,0.5298
6.25,-0.8036,0.3712,0.5298
6.25,-0.8036,0.3712,0.5298
6.269,-0.7911,0.3683,0.5377
6.27,-0.7911,0.3683,0.5377
6.27,-0.7911,0.3683,0.5377
6.289,-0.7796,0.359,0.5531
6.289,-0.7796,0.359,0.5531
6.289,-0.7796,0.359,0.5531
6.293,-0.7796,0.359,0.5531
6.309,-0.8018,0.3712,0.5638
6.309,-0.8018,0.3712,0.5638
6.309,-0.8018,0.3712,0.5638
6.31,-0.8018,0.3712,0.5638
6.311,-0.8018,0.3712,0.5638
6.329,-0.8175,0.3859,0.5604
6.329,-0.8175,0.3859,0.5604
6.33,-0.8175,0.3859,0.5604
6.349,-0.8158,0.3717,0.5682
6.349,-0.8158,0.3717,0.5682
6.349,-0.8158,0.3717,0.5682
6.371,-0.8021,0.3421,0.576
6.371,-0.8021,0.3421,0.576
6.371,-0.8021,0.3421,0.576
6.391,-0.7718,0.3439,0.5482
6.392,-0.7718,0.3439,0.5482
6.392,-0.7718,0.3439,0.5482
6.392,-0.7718,0.3439,0.5482
6.393,-0.7718,0.3439,0.5482
6.411,-0.763,0.3624,0.5223
6.411,-0.763,0.3624,0.5223
6.412,-0.763,0.3624,0.5223
6.431,-0.7495,0.3487,0.5345
6.432,-0.7495,0.3487,0.5345
6.432,-0.7495,0.3487,0.5345
6.451,-0.7322,0.3368,0.5484
6.452,-0.7322,0.3368,0.5484
6.452,-0.7322,0.3368,0.5484
6.47,-0.7544,0.3656,0.5425
6.471,-0.7544,0.3656,0.5425
6.472,-0.7544,0.3656,0.5425
6.472,-0.7544,0.3656,0.5425
6.473,-0.7544,0.3656,0.5425
6.492,-0.7916,0.3878,0.5633
6.492,-0.7916,0.3878,0.5633
6.493,-0.7916,0.3878,0.5633
6.493,-0.7916,0.3878,0.5633
6.51,-0.7752,0.3705,0.5895
6.6,-0.7752,0.3705,0.5895
6.6,-0.7752,0.3705,0.5895
6.6,-0.7579,0.3541,0.5807
6.6,-0.7579,0.3541,0.5807
6.6,-0.7579,0.3541,0.5807
6.601,-0.7725,0.3487,0.5711
6.601,-0.7725,0.3487,0.5711
6.601,-0.7725,0.3487,0.5711
6.601,-0.7725,0.3487,0.5711
6.601,-0.7725,0.3487,0.5711
6.601,-0.775,0.3387,0.5721
6.602,-0.775,0.3387,0.5721
6.602,-0.775,0.3387,0.5721
6.602,-0.7747,0.3502,0.5702
6.602,-0.7747,0.3502,0.5702
6.602,-0.7747,0.3502,0.5702
6.607,-0.762,0.369,0.5553
6.607,-0.762,0.369,0.5553
6.607,-0.762,0.369,0.5553
6.608,-0.762,0.369,0.5553
6.627,-0.773,0.37,0.545
6.627,-0.773,0.37,0.545
6.627,-0.773,0.37,0.545
6.629,-0.773,0.37,0.545
6.63,-0.773,0.37,0.545
6.649,-0.8102,0.3497,0.5667
6.649,-0.8102,0.3497,0.5667
6.649,-0.8102,0.3497,0.5667
6.667,-0.8062,0.3536,0.5374
6.667,-0.8062,0.3536,0.5374
6.668,-0.8062,0.3536,0.5374
6.689,-0.7554,0.3644,0.5313
6.689,-0.7554,0.3644,0.5313
6.69,-0.7554,0.3644,0.5313
6.691,-0.7554,0.3644,0.5313
6.709,-0.7366,0.3739,0.5411
6.709,-0.7366,0.3739,0.5411
6.71,-0.7366,0.3739,0.5411
6.711,-0.7366,0.3739,0.5411
6.711,-0.7366,0.3739,0.5411
6.742,-0.7427,0.3739,0.5658
6.743,-0.7427,0.3739,0.5658
6.743,-0.7427,0.3739,0.5658
6.745,-0.7789,0.3649,0.5702
6.746,-0.7789,0.3649,0.5702
6.746,-0.7789,0.3649,0.5702
6.768,-0.8224,0.3634,0.5487
6.768,-0.8224,0.3634,0.5487
6.768,-0.8224,0.3634,0.5487
6.788,-0.8275,0.3597,0.5457
6.788,-0.8275,0.3597,0.5457
6.789,-0.8275,0.3597,0.5457
6.789,-0.8275,0.3597,0.5457
6.79,-0.8275,0.3597,0.5457
6.806,-0.8158,0.3644,0.5504
6.807,-0.8158,0.3644,0.5504
6.807,-0.8158,0.3644,0.5504
6.825,-0.7869,0.3737,0.5352
6.828,-0.7869,0.3737,0.5352
6.828,-0.7869,0.3737,0.5352
6.845,-0.7994,0.3783,0.5267
6.845,-0.7994,0.3783,0.5267
6.845,-0.7994,0.3783,0.5267
6.865,-0.8537,0.3815,0.5166
6.865,-0.8537,0.3815,0.5166
6.866,-0.8537,0.3815,0.5166
6.868,-0.8537,0.3815,0.5166
6.868,-0.8537,0.3815,0.5166
6.884,-0.8128,0.3749,0.5227
6.888,-0.8128,0.3749,0.5227
6.888,-0.8128,0.3749,0.5227
6.888,-0.8128,0.3749,0.5227
6.904,-0.764,0.3783,0.5232
6.905,-0.764,0.3783,0.5232
6.905,-0.764,0.3783,0.5232
6.925,-0.7872,0.3825,0.5259
6.925,-0.7872,0.3825,0.5259
6.925,-0.7872,0.3825,0.5259
6.946,-0.808,0.3739,0.5091
6.946,-0.808,0.3739,0.5091
6.946,-0.808,0.3739,0.5091
6.948,-0.808,0.3739,0.5091
6.948,-0.808,0.3739,0.5091
6.965,-0.8099,0.3544,0.5091
6.965,-0.8099,0.3544,0.5091
6.965,-0.8099,0.3544,0.5091
6.985,-0.8273,0.3465,0.5245
6.985,-0.8273,0.3465,0.5245
6.985,-0.8273,0.3465,0.5245
7.007,-0.8334,0.3693,0.535
7.007,-0.8334,0.3693,0.535
7.008,-0.8334,0.3693,0.535
7.027,-0.8192,0.3847,0.5531
7.029,-0.8192,0.3847,0.5531
7.029,-0.8192,0.3847,0.5531
7.03,-0.8192,0.3847,0.5531
7.046,-0.7952,0.3715,0.5535
7.046,-0.7952,0.3715,0.5535
7.047,-0.7952,0.3715,0.5535
7.066,-0.7847,0.3607,0.5362
7.135,-0.7847,0.3607,0.5362
7.136,-0.7847,0.3607,0.5362
7.136,-0.7818,0.3458,0.5384
7.136,-0.7818,0.3458,0.5384
7.136,-0.7818,0.3458,0.5384
7.137,-0.7818,0.3458,0.5384
7.137,-0.7754,0.3333,0.5369
7.137,-0.7754,0.3333,0.5369
7.137,-0.7754,0.3333,0.5369
7.138,-0.7754,0.3333,0.5369
7.138,-0.7754,0.3333,0.5369
7.138,-0.794,0.3465,0.5274
7.138,-0.794,0.3465,0.5274
7.139,-0.794,0.3465,0.5274
7.145,-0.8172,0.3583,0.5377
7.145,-0.8172,0.3583,0.5377
7.145,-0.8172,0.3583,0.5377
7.164,-0.7728,0.3453,0.5621
7.164,-0.7728,0.3453,0.5621
7.165,-0.7728,0.3453,0.5621
7.184,-0.763,0.3397,0.5653
7.184,-0.763,0.3397,0.5653
7.185,-0.763,0.3397,0.5653
7.187,-0.763,0.3397,0.5653
7.188,-0.763,0.3397,0.5653
7.207,-0.8077,0.3707,0.5389
7.208,-0.8077,0.3707,0.5389
7.208,-0.8077,0.3707,0.5389
7.209,-0.8077,0.3707,0.5389
7.223,-0.8155,0.3663,0.5665
7.224,-0.8155,0.3663,0.5665
7.224,-0.8155,0.3663,0.5665
7.245,-0.7867,0.3402,0.5626
7.245,-0.7867,0.3402,0.5626
7.246,-0.7867,0.3402,0.5626
7.264,-0.7818,0.35,0.534
7.265,-0.7818,0.35,0.534
7.266,-0.7818,0.35,0.534
7.267,-0.7818,0.35,0.534
7.268,-0.7818,0.35,0.534
7.284,-0.7713,0.3563,0.544
7.287,-0.7713,0.3563,0.544
7.287,-0.7713,0.3563,0.544
7.288,-0.7713,0.3563,0.544
7.303,-0.774,0.3629,0.5296
7.303,-0.774,0.3629,0.5296
7.304,-0.774,0.3629,0.5296
7.325,-0.7798,0.3634,0.5372
7.328,-0.7798,0.3634,0.5372
7.328,-0.7798,0.3634,0.5372
7.343,-0.7889,0.3634,0.5538
7.343,-0.7889,0.3634,0.5538
7.344,-0.7889,0.3634,0.5538
7.346,-0.7889,0.3634,0.5538
7.347,-0.7889,0.3634,0.5538
7.363,-0.7901,0.3681,0.5474
7.364,-0.7901,0.3681,0.5474
7.365,-0.7901,0.3681,0.5474
7.383,-0.7586,0.3514,0.5425
7.383,-0.7586,0.3514,0.5425
7.384,-0.7586,0.3514,0.5425
7.403,-0.7398,0.3382,0.5474
7.404,-0.7398,0.3382,0.5474
7.405,-0.7398,0.3382,0.5474
7.405,-0.7398,0.3382,0.5474
7.422,-0.7938,0.3585,0.5548
7.423,-0.7938,0.3585,0.5548
7.423,-0.7938,0.3585,0.5548
7.426,-0.7938,0.3585,0.5548
7.426,-0.7938,0.3585,0.5548
7.443,-0.8363,0.3651,0.566
7.443,-0.8363,0.3651,0.566
7.443,-0.8363,0.3651,0.566
7.461,-0.7806,0.3531,0.5755
7.461,-0.7806,0.3531,0.5755
7.462,-0.7806,0.3531,0.5755
7.481,-0.7891,0.3668,0.5548
7.481,-0.7891,0.3668,0.5548
7.481,-0.7891,0.3668,0.5548
7.484,-0.7891,0.3668,0.5548
7.501,-0.8072,0.3602,0.5619
7.502,-0.8072,0.3602,0.5619
7.502,-0.8072,0.3602,0.5619
7.505,-0.8072,0.3602,0.5619
7.506,-0.8072,0.3602,0.5619
7.521,-0.7732,0.3497,0.5562
7.521,-0.7732,0.3497,0.5562
7.521,-0.7732,0.3497,0.5562
7.542,-0.7801,0.37,0.5367
7.543,-0.7801,0.37,0.5367
7.543,-0.7801,0.37,0.5367
7.561,-0.8138,0.382,0.5391
7.561,-0.8138,0.382,0.5391
7.561,-0.8138,0.382,0.5391
7.582,-0.8177,0.3727,0.5157
7.582,-0.8177,0.3727,0.5157
7.582,-0.8177,0.3727,0.5157
7.584,-0.8177,0.3727,0.5157
7.584,-0.8177,0.3727,0.5157
7.602,-0.8033,0.3717,0.5147
7.64,-0.8033,0.3717,0.5147
7.64,-0.8033,0.3717,0.5147
7.64,-0.7901,0.3837,0.511
7.64,-0.7901,0.3837,0.511
7.64,-0.7901,0.3837,0.511
7.64,-0.7992,0.3979,0.5091
7.64,-0.7992,0.3979,0.5091
7.64,-0.7992,0.3979,0.5091
7.661,-0.7984,0.3817,0.5467
7.661,-0.7984,0.3817,0.5467
7.661,-0.7984,0.3817,0.5467
7.665,-0.7984,0.3817,0.5467
7.665,-0.7984,0.3817,0.5467
7.681,-0.7742,0.3639,0.5479
7.681,-0.7742,0.3639,0.5479
7.682,-0.7742,0.3639,0.5479
7.685,-0.7742,0.3639,0.5479
7.701,-0.7728,0.3786,0.5377
7.701,-0.7728,0.3786,0.5377
7.701,-0.7728,0.3786,0.5377
7.721,-0.7764,0.3839,0.5406
7.721,-0.7764,0.3839,0.5406
7.721,-0.7764,0.3839,0.5406
7.741,-0.7835,0.3634,0.5533
7.741,-0.7835,0.3634,0.5533
7.742,-0.7835,0.3634,0.5533
7.745,-0.7835,0.3634,0.5533
7.745,-0.7835,0.3634,0.5533
7.761,-0.8043,0.3612,0.5352
7.761,-0.8043,0.3612,0.5352
7.761,-0.8043,0.3612,0.5352
7.781,-0.7999,0.3688,0.535
7.781,-0.7999,0.3688,0.535
7.781,-0.7999,0.3688,0.535
7.8,-0.7794,0.3622,0.5435
7.801,-0.7794,0.3622,0.5435
7.801,-0.7794,0.3622,0.5435
7.82,-0.74,0.3605,0.5296
7.821,-0.74,0.3605,0.5296
7.821,-0.74,0.3605,0.5296
7.823,-0.74,0.3605,0.5296
7.823,-0.74,0.3605,0.5296
7.839,-0.7708,0.3651,0.5501
7.84,-0.7708,0.3651,0.5501
7.84,-0.7708,0.3651,0.5501
7.861,-0.805,0.3659,0.5609
7.861,-0.805,0.3659,0.5609
7.862,-0.805,0.3659,0.5609
7.879,-0.771,0.3519,0.5682
7.88,-0.771,0.3519,0.5682
7.88,-0.771,0.3519,0.5682
7.882,-0.771,0.3519,0.5682
7.9,-0.7608,0.336,0.5726
7.901,-0.7608,0.336,0.5726
7.901,-0.7608,0.336,0.5726
7.902,-0.7608,0.336,0.5726
7.903,-0.7608,0.336,0.5726
7.92,-0.7933,0.349,0.579
7.921,-0.7933,0.349,0.579
7.921,-0.7933,0.349,0.579
7.939,-0.8177,0.3615,0.5741
7.941,-0.8177,0.3615,0.5741
7.941,-0.8177,0.3615,0.5741
7.96,-0.8053,0.3417,0.5663
7.961,-0.8053,0.3417,0.5663
7.961,-0.8053,0.3417,0.5663
7.98,-0.7725,0.3285,0.5538
7.98,-0.7725,0.3285,0.5538
7.981,-0.7725,0.3285,0.5538
7.983,-0.7725,0.3285,0.5538
7.983,-0.7725,0.3285,0.5538
8,-0.7564,0.3492,0.5474
8.001,-0.7564,0.3492,0.5474
8.001,-0.7564,0.3492,0.5474
8.02,-0.7317,0.3693,0.5313
8.02,-0.7317,0.3693,0.5313
8.021,-0.7317,0.3693,0.5313
8.04,-0.7789,0.3705,0.5342
8.04,-0.7789,0.3705,0.5342
8.041,-0.7789,0.3705,0.5342
8.061,-0.8314,0.3673,0.532
8.061,-0.8314,0.3673,0.532
8.062,-0.8314,0.3673,0.532
8.062,-0.8314,0.3673,0.532
8.062,-0.8314,0.3673,0.532
8.079,-0.8424,0.3739,0.5105
8.079,-0.8424,0.3739,0.5105
8.079,-0.8424,0.3739,0.5105
8.082,-0.8424,0.3739,0.5105
8.098,-0.8429,0.3585,0.5433
8.098,-0.8429,0.3585,0.5433
8.098,-0.8429,0.3585,0.5433
8.119,-0.8124,0.3441,0.5545
8.122,-0.8124,0.3441,0.5545
8.122,-0.8124,0.3441,0.5545
8.137,-0.761,0.3612,0.5347
8.137,-0.761,0.3612,0.5347
8.137,-0.761,0.3612,0.5347
8.14,-0.761,0.3612,0.5347
8.14,-0.761,0.3612,0.5347
8.178,-0.7759,0.3908,0.5064
8.178,-0.7759,0.3908,0.5064
8.178,-0.7759,0.3908,0.5064
8.179,-0.8282,0.3715,0.5521
8.179,-0.8282,0.3715,0.5521
8.179,-0.8282,0.3715,0.5521
8.198,-0.8277,0.3385,0.5535
8.198,-0.8277,0.3385,0.5535
8.198,-0.8277,0.3385,0.5535
8.218,-0.7921,0.3514,0.5061
8.218,-0.7921,0.3514,0.5061
8.219,-0.7921,0.3514,0.5061
8.221,-0.7921,0.3514,0.5061
8.221,-0.7921,0.3514,0.5061
8.238,-0.7762,0.3529,0.524
8.238,-0.7762,0.3529,0.524
8.238,-0.7762,0.3529,0.524
8.258,-0.7869,0.3531,0.5247
8.258,-0.7869,0.3531,0.5247
8.258,-0.7869,0.3531,0.5247
8.277,-0.7906,0.3698,0.5247
8.278,-0.7906,0.3698,0.5247
8.278,-0.7906,0.3698,0.5247
8.28,-0.7906,0.3698,0.5247
8.299,-0.7906,0.3742,0.5315
8.299,-0.7906,0.3742,0.5315
8.3,-0.7906,0.3742,0.5315
8.302,-0.7906,0.3742,0.5315
8.303,-0.7906,0.3742,0.5315
8.316,-0.815,0.3822,0.5201
8.316,-0.815,0.3822,0.5201
8.316,-0.815,0.3822,0.5201
8.338,-0.8534,0.3834,0.5249
8.338,-0.8534,0.3834,0.5249
8.338,-0.8534,0.3834,0.5249
8.357,-0.8461,0.3776,0.5147
8.357,-0.8461,0.3776,0.5147
8.357,-0.8461,0.3776,0.5147
8.38,-0.8153,0.3778,0.4944
8.38,-0.8153,0.3778,0.4944
8.381,-0.8153,0.3778,0.4944
8.381,-0.8153,0.3778,0.4944
8.382,-0.8153,0.3778,0.4944
8.398,-0.7992,0.3695,0.5091
8.399,-0.7992,0.3695,0.5091
8.399,-0.7992,0.3695,0.5091
8.418,-0.7789,0.3634,0.5279
8.419,-0.7789,0.3634,0.5279
8.419,-0.7789,0.3634,0.5279
8.439,-0.7908,0.3837,0.5193
8.44,-0.7908,0.3837,0.5193
8.441,-0.7908,0.3837,0.5193
8.459,-0.8233,0.3988,0.5012
8.46,-0.8233,0.3988,0.5012
8.463,-0.8233,0.3988,0.5012
8.463,-0.8233,0.3988,0.5012
8.464,-0.8233,0.3988,0.5012
8.479,-0.8185,0.3612,0.5421
8.48,-0.8185,0.3612,0.5421
8.481,-0.8185,0.3612,0.5421
8.483,-0.8185,0.3612,0.5421
8.498,-0.8084,0.3426,0.5611
8.498,-0.8084,0.3426,0.5611
8.499,-0.8084,0.3426,0.5611
8.517,-0.8168,0.3771,0.5176
8.518,-0.8168,0.3771,0.5176
8.518,-0.8168,0.3771,0.5176
8.538,-0.7828,0.3759,0.5157
8.538,-0.7828,0.3759,0.5157
8.539,-0.7828,0.3759,0.5157
8.539,-0.7828,0.3759,0.5157
8.54,-0.7828,0.3759,0.5157
8.559,-0.7635,0.3436,0.5474
8.559,-0.7635,0.3436,0.5474
8.56,-0.7635,0.3436,0.5474
8.579,-0.8302,0.3553,0.5042
8.579,-0.8302,0.3553,0.5042
8.58,-0.8302,0.3553,0.5042
8.598,-0.797,0.358,0.4942
8.599,-0.797,0.358,0.4942
8.601,-0.797,0.358,0.4942
8.618,-0.7732,0.3331,0.5352
8.619,-0.7732,0.3331,0.5352
8.619,-0.7732,0.3331,0.5352
8.62,-0.7732,0.3331,0.5352
8.62,-0.7732,0.3331,0.5352
8.638,-0.7762,0.3392,0.5548
8.638,-0.7762,0.3392,0.5548
8.639,-0.7762,0.3392,0.5548
8.656,-0.7671,0.3722,0.5406
8.656,-0.7671,0.3722,0.5406
8.656,-0.7671,0.3722,0.5406
8.676,-0.786,0.3778,0.5513
8.676,-0.786,0.3778,0.5513
8.677,-0.786,0.3778,0.5513
8.677,-0.786,0.3778,0.5513
8.696,-0.8116,0.3597,0.5545
8.696,-0.8116,0.3597,0.5545
8.697,-0.8116,0.3597,0.5545
8.699,-0.8116,0.3597,0.5545
8.739,-0.8116,0.3597,0.5545
8.74,-0.8255,0.3732,0.5311
8.74,-0.8255,0.3732,0.5311
8.74,-0.8255,0.3732,0.5311
8.74,-0.8153,0.3668,0.5355
8.74,-0.8153,0.3668,0.5355
8.741,-0.8153,0.3668,0.5355
8.754,-0.7828,0.3443,0.5276
8.754,-0.7828,0.3443,0.5276
8.755,-0.7828,0.3443,0.5276
8.776,-0.7674,0.3566,0.4964
8.776,-0.7674,0.3566,0.4964
8.776,-0.7674,0.3566,0.4964
8.776,-0.7674,0.3566,0.4964
8.777,-0.7674,0.3566,0.4964
8.796,-0.773,0.3754,0.5098
8.797,-0.773,0.3754,0.5098
8.797,-0.773,0.3754,0.5098
8.815,-0.7845,0.3634,0.5489
8.816,-0.7845,0.3634,0.5489
8.816,-0.7845,0.3634,0.5489
8.834,-0.807,0.3602,0.5408
8.834,-0.807,0.3602,0.5408
8.834,-0.807,0.3602,0.5408
8.854,-0.8534,0.3666,0.522
8.854,-0.8534,0.3666,0.522
8.855,-0.8534,0.3666,0.522
8.859,-0.8534,0.3666,0.522
8.859,-0.8534,0.3666,0.522
8.875,-0.872,0.3439,0.5284
8.875,-0.872,0.3439,0.5284
8.875,-0.872,0.3439,0.5284
8.876,-0.872,0.3439,0.5284
8.896,-0.8209,0.3377,0.545
8.896,-0.8209,0.3377,0.545
8.897,-0.8209,0.3377,0.545
8.914,-0.7879,0.3707,0.5083
8.915,-0.7879,0.3707,0.5083
8.915,-0.7879,0.3707,0.5083
8.934,-0.7996,0.3886,0.5191
8.935,-0.7996,0.3886,0.5191
8.935,-0.7996,0.3886,0.5191
8.939,-0.7996,0.3886,0.5191
8.94,-0.7996,0.3886,0.5191
8.954,-0.8106,0.3583,0.5372
8.954,-0.8106,0.3583,0.5372
8.954,-0.8106,0.3583,0.5372
8.972,-0.7999,0.3517,0.5149
8.972,-0.7999,0.3517,0.5149
8.972,-0.7999,0.3517,0.5149
8.992,-0.8192,0.3624,0.5166
8.992,-0.8192,0.3624,0.5166
8.993,-0.8192,0.3624,0.5166
9.012,-0.8339,0.3529,0.5303
9.013,-0.8339,0.3529,0.5303
9.013,-0.8339,0.3529,0.5303
9.015,-0.8339,0.3529,0.5303
9.016,-0.8339,0.3529,0.5303
9.032,-0.8094,0.3556,0.5245
9.032,-0.8094,0.3556,0.5245
9.032,-0.8094,0.3556,0.5245
9.051,-0.8072,0.3761,0.5196
9.051,-0.8072,0.3761,0.5196
9.051,-0.8072,0.3761,0.5196
9.075,-0.8121,0.3847,0.5188
9.076,-0.8121,0.3847,0.5188
9.076,-0.8121,0.3847,0.5188
9.077,-0.8121,0.3847,0.5188
9.095,-0.7769,0.3666,0.5269
9.096,-0.7769,0.3666,0.5269
9.099,-0.7769,0.3666,0.5269
9.099,-0.7769,0.3666,0.5269
9.101,-0.7769,0.3666,0.5269
9.114,-0.7605,0.3639,0.5135
9.115,-0.7605,0.3639,0.5135
9.115,-0.7605,0.3639,0.5135
9.134,-0.7989,0.3705,0.5174
9.136,-0.7989,0.3705,0.5174
9.138,-0.7989,0.3705,0.5174
9.153,-0.8075,0.3634,0.5284
9.156,-0.8075,0.3634,0.5284
9.157,-0.8075,0.3634,0.5284
9.174,-0.8148,0.3712,0.5066
9.176,-0.8148,0.3712,0.5066
9.18,-0.8148,0.3712,0.5066
9.181,-0.8148,0.3712,0.5066
9.182,-0.8148,0.3712,0.5066
9.194,-0.8219,0.3781,0.5105
9.195,-0.8219,0.3781,0.5105
9.195,-0.8219,0.3781,0.5105
9.216,-0.7855,0.3695,0.5196
9.218,-0.7855,0.3695,0.5196
9.219,-0.7855,0.3695,0.5196
9.233,-0.7847,0.3786,0.5142
9.235,-0.7847,0.3786,0.5142
9.237,-0.7847,0.3786,0.5142
9.252,-0.8099,0.3969,0.5227
9.253,-0.8099,0.3969,0.5227
9.254,-0.8099,0.3969,0.5227
9.254,-0.8099,0.3969,0.5227
9.309,-0.8099,0.3969,0.5227
9.309,-0.8067,0.3773,0.5443
9.31,-0.8067,0.3773,0.5443
9.31,-0.8067,0.3773,0.5443
9.31,-0.8067,0.3773,0.5443
9.31,-0.7886,0.3605,0.5433
9.31,-0.7886,0.3605,0.5433
9.311,-0.7886,0.3605,0.5433
9.311,-0.7899,0.3724,0.5237
9.311,-0.7899,0.3724,0.5237
9.311,-0.7899,0.3724,0.5237
9.33,-0.806,0.3732,0.5235
9.33,-0.806,0.3732,0.5235
9.33,-0.806,0.3732,0.5235
9.333,-0.806,0.3732,0.5235
9.334,-0.806,0.3732,0.5235
9.349,-0.8055,0.3529,0.5289
9.349,-0.8055,0.3529,0.5289
9.349,-0.8055,0.3529,0.5289
9.37,-0.7579,0.3531,0.5059
9.37,-0.7579,0.3531,0.5059
9.37,-0.7579,0.3531,0.5059
9.39,-0.761,0.3575,0.5235
9.391,-0.761,0.3575,0.5235
9.391,-0.761,0.3575,0.5235
9.411,-0.8036,0.3624,0.5293
9.411,-0.8036,0.3624,0.5293
9.411,-0.8036,0.3624,0.5293
9.414,-0.8036,0.3624,0.5293
9.414,-0.8036,0.3624,0.5293
9.432,-0.7745,0.3575,0.5215
9.432,-0.7745,0.3575,0.5215
9.432,-0.7745,0.3575,0.5215
9.452,-0.7972,0.3514,0.5264
9.452,-0.7972,0.3514,0.5264
9.452,-0.7972,0.3514,0.5264
9.472,-0.8353,0.3434,0.5687
9.473,-0.8353,0.3434,0.5687
9.473,-0.8353,0.3434,0.5687
9.473,-0.8353,0.3434,0.5687
9.491,-0.8361,0.3549,0.579
9.491,-0.8361,0.3549,0.579
9.492,-0.8361,0.3549,0.579
9.496,-0.8361,0.3549,0.579
9.496,-0.8361,0.3549,0.579
9.511,-0.7987,0.3712,0.5587
9.511,-0.7987,0.3712,0.5587
9.512,-0.7987,0.3712,0.5587
9.533,-0.7943,0.361,0.556
9.533,-0.7943,0.361,0.556
9.533,-0.7943,0.361,0.556
9.552,-0.797,0.3397,0.5399
9.552,-0.797,0.3397,0.5399
9.552,-0.797,0.3397,0.5399
9.571,-0.7745,0.3441,0.5379
9.572,-0.7745,0.3441,0.5379
9.573,-0.7745,0.3441,0.5379
9.573,-0.7745,0.3441,0.5379
9.574,-0.7745,0.3441,0.5379
9.593,-0.7779,0.3644,0.5381
9.594,-0.7779,0.3644,0.5381
9.595,-0.7779,0.3644,0.5381
9.612,-0.7899,0.3734,0.4949
9.612,-0.7899,0.3734,0.4949
9.612,-0.7899,0.3734,0.4949
9.631,-0.7862,0.3617,0.4986
9.632,-0.7862,0.3617,0.4986
9.633,-0.7862,0.3617,0.4986
9.653,-0.7808,0.3465,0.5335
9.653,-0.7808,0.3465,0.5335
9.656,-0.7808,0.3465,0.5335
9.656,-0.7808,0.3465,0.5335
9.657,-0.7808,0.3465,0.5335
9.669,-0.8094,0.369,0.5318
9.67,-0.8094,0.369,0.5318
9.672,-0.8094,0.369,0.5318
9.673,-0.8094,0.369,0.5318
9.692,-0.8678,0.3844,0.5389
9.692,-0.8678,0.3844,0.5389
9.693,-0.8678,0.3844,0.5389
9.712,-0.851,0.38,0.5281
9.713,-0.851,0.38,0.5281
9.717,-0.851,0.38,0.5281
9.732,-0.7894,0.3534,0.5213
9.733,-0.7894,0.3534,0.5213
9.733,-0.7894,0.3534,0.5213
9.735,-0.7894,0.3534,0.5213
9.736,-0.7894,0.3534,0.5213
9.751,-0.7601,0.3514,0.5096
9.751,-0.7601,0.3514,0.5096
9.752,-0.7601,0.3514,0.5096
9.77,-0.7745,0.3688,0.5213
9.77,-0.7745,0.3688,0.5213
9.771,-0.7745,0.3688,0.5213
9.789,-0.794,0.3724,0.5298
9.79,-0.794,0.3724,0.5298
9.79,-0.794,0.3724,0.5298
9.81,-0.7906,0.3685,0.4993
9.81,-0.7906,0.3685,0.4993
9.811,-0.7906,0.3685,0.4993
9.878,-0.7906,0.3685,0.4993
9.879,-0.7906,0.3685,0.4993
9.879,-0.8121,0.3712,0.4983
9.879,-0.8121,0.3712,0.4983
9.879,-0.8121,0.3712,0.4983
9.879,-0.8417,0.3666,0.535
9.88,-0.8417,0.3666,0.535
9.88,-0.8417,0.3666,0.535
9.88,-0.8336,0.3773,0.5196
9.88,-0.8336,0.3773,0.5196
9.88,-0.8336,0.3773,0.5196
9.881,-0.8336,0.3773,0.5196
9.889,-0.8255,0.3947,0.5066
9.889,-0.8255,0.3947,0.5066
9.889,-0.8255,0.3947,0.5066
9.89,-0.8255,0.3947,0.5066
9.89,-0.8255,0.3947,0.5066
9.906,-0.8004,0.3883,0.5086
9.906,-0.8004,0.3883,0.5086
9.907,-0.8004,0.3883,0.5086
9.926,-0.8106,0.3793,0.5345
9.926,-0.8106,0.3793,0.5345
9.926,-0.8106,0.3793,0.5345
9.947,-0.8331,0.3793,0.5083
9.947,-0.8331,0.3793,0.5083
9.947,-0.8331,0.3793,0.5083
9.966,-0.7952,0.3744,0.4829
9.966,-0.7952,0.3744,0.4829
9.966,-0.7952,0.3744,0.4829
9.969,-0.7952,0.3744,0.4829
9.969,-0.7952,0.3744,0.4829
9.987,-0.7877,0.3717,0.4854
9.988,-0.7877,0.3717,0.4854
9.988,-0.7877,0.3717,0.4854
10.006,-0.8001,0.3768,0.5115
10.007,-0.8001,0.3768,0.5115
10.007,-0.8001,0.3768,0.5115
10.027,-0.7926,0.392,0.5096
10.027,-0.7926,0.392,0.5096
10.027,-0.7926,0.392,0.5096
10.046,-0.7996,0.3869,0.5012
10.046,-0.7996,0.3869,0.5012
10.046,-0.7996,0.3869,0.5012
10.048,-0.7996,0.3869,0.5012
10.048,-0.7996,0.3869,0.5012
10.068,-0.8407,0.3756,0.5276
10.068,-0.8407,0.3756,0.5276
10.068,-0.8407,0.3756,0.5276
10.068,-0.8407,0.3756,0.5276
10.088,-0.8539,0.3624,0.5553
10.088,-0.8539,0.3624,0.5553
10.088,-0.8539,0.3624,0.5553
10.108,-0.8106,0.3695,0.5215
10.108,-0.8106,0.3695,0.5215
10.109,-0.8106,0.3695,0.5215
10.128,-0.7962,0.3798,0.5042
10.129,-0.7962,0.3798,0.5042
10.129,-0.7962,0.3798,0.5042
10.13,-0.7962,0.3798,0.5042
10.13,-0.7962,0.3798,0.5042
10.148,-0.7713,0.3563,0.5223
10.148,-0.7713,0.3563,0.5223
10.148,-0.7713,0.3563,0.5223
10.166,-0.761,0.3561,0.5
10.166,-0.761,0.3561,0.5
10.166,-0.761,0.3561,0.5
10.186,-0.7537,0.3644,0.5286
10.187,-0.7537,0.3644,0.5286
10.187,-0.7537,0.3644,0.5286
10.208,-0.8016,0.3615,0.5271
10.209,-0.8016,0.3615,0.5271
10.209,-0.8016,0.3615,0.5271
10.21,-0.8016,0.3615,0.5271
10.213,-0.8016,0.3615,0.5271
10.228,-0.7754,0.347,0.4973
10.228,-0.7754,0.347,0.4973
10.229,-0.7754,0.347,0.4973
10.246,-0.7698,0.3456,0.5149
10.248,-0.7698,0.3456,0.5149
10.249,-0.7698,0.3456,0.5149
10.266,-0.8121,0.358,0.5645
10.267,-0.8121,0.358,0.5645
10.268,-0.8121,0.358,0.5645
10.268,-0.8121,0.358,0.5645
10.285,-0.8299,0.3849,0.5577
10.286,-0.8299,0.3849,0.5577
10.287,-0.8299,0.3849,0.5577
10.288,-0.8299,0.3849,0.5577
10.288,-0.8299,0.3849,0.5577
10.306,-0.8551,0.3883,0.5418
10.307,-0.8551,0.3883,0.5418
10.308,-0.8551,0.3883,0.5418
10.325,-0.8488,0.3646,0.5206
10.325,-0.8488,0.3646,0.5206
10.326,-0.8488,0.3646,0.5206
10.348,-0.8241,0.3417,0.5235
10.348,-0.8241,0.3417,0.5235
10.349,-0.8241,0.3417,0.5235
10.365,-0.7698,0.3541,0.5064
10.366,-0.7698,0.3541,0.5064
10.432,-0.7698,0.3541,0.5064
10.432,-0.7698,0.3541,0.5064
10.432,-0.7698,0.3541,0.5064
10.432,-0.7698,0.3541,0.5064
10.432,-0.7476,0.3746,0.479
10.433,-0.7476,0.3746,0.479
10.433,-0.7476,0.3746,0.479
10.433,-0.7982,0.3673,0.4981
10.433,-0.7982,0.3673,0.4981
10.434,-0.7982,0.3673,0.4981
10.434,-0.8297,0.3536,0.5206
10.434,-0.8297,0.3536,0.5206
10.434,-0.8297,0.3536,0.5206
10.446,-0.8146,0.3659,0.5044
10.446,-0.8146,0.3659,0.5044
10.446,-0.8146,0.3659,0.5044
10.448,-0.8146,0.3659,0.5044
10.449,-0.8146,0.3659,0.5044
10.464,-0.8331,0.3693,0.5157
10.464,-0.8331,0.3693,0.5157
10.464,-0.8331,0.3693,0.5157
10.464,-0.8331,0.3693,0.5157
10.483,-0.8292,0.3654,0.5196
10.483,-0.8292,0.3654,0.5196
10.483,-0.8292,0.3654,0.5196
10.502,-0.8336,0.3751,0.5159
10.503,-0.8336,0.3751,0.5159
10.503,-0.8336,0.3751,0.5159
10.523,-0.8537,0.3759,0.5188
10.523,-0.8537,0.3759,0.5188
10.523,-0.8537,0.3759,0.5188
10.525,-0.8537,0.3759,0.5188
10.525,-0.8537,0.3759,0.5188
10.544,-0.84,0.3703,0.4942
10.544,-0.84,0.3703,0.4942
10.544,-0.84,0.3703,0.4942
10.563,-0.7796,0.3575,0.492
10.563,-0.7796,0.3575,0.492
10.563,-0.7796,0.3575,0.492
10.583,-0.753,0.3563,0.4876
10.583,-0.753,0.3563,0.4876
10.584,-0.753,0.3563,0.4876
10.603,-0.7996,0.3683,0.4976
10.603,-0.7996,0.3683,0.4976
10.604,-0.7996,0.3683,0.4976
10.606,-0.7996,0.3683,0.4976
10.606,-0.7996,0.3683,0.4976
10.624,-0.8258,0.3734,0.5012
10.626,-0.8258,0.3734,0.5012
10.627,-0.8258,0.3734,0.5012
10.644,-0.8348,0.3717,0.5203
10.645,-0.8348,0.3717,0.5203
10.645,-0.8348,0.3717,0.5203
10.663,-0.8348,0.3768,0.5193
10.663,-0.8348,0.3768,0.5193
10.663,-0.8348,0.3768,0.5193
10.664,-0.8348,0.3768,0.5193
10.683,-0.8211,0.3812,0.511
10.684,-0.8211,0.3812,0.511
10.685,-0.8211,0.3812,0.511
10.685,-0.8211,0.3812,0.511
10.686,-0.8211,0.3812,0.511
10.705,-0.8114,0.3724,0.5132
10.705,-0.8114,0.3724,0.5132
10.705,-0.8114,0.3724,0.5132
10.723,-0.8194,0.3781,0.4976
10.723,-0.8194,0.3781,0.4976
10.724,-0.8194,0.3781,0.4976
10.743,-0.8419,0.3993,0.4546
10.743,-0.8419,0.3993,0.4546
10.744,-0.8419,0.3993,0.4546
10.762,-0.8297,0.3737,0.502
10.763,-0.8297,0.3737,0.502
10.764,-0.8297,0.3737,0.502
10.765,-0.8297,0.3737,0.502
10.766,-0.8297,0.3737,0.502
10.783,-0.7921,0.3551,0.5103
10.783,-0.7921,0.3551,0.5103
10.784,-0.7921,0.3551,0.5103
10.803,-0.7835,0.3688,0.4964
10.803,-0.7835,0.3688,0.4964
10.804,-0.7835,0.3688,0.4964
10.822,-0.8058,0.3803,0.503
10.823,-0.8058,0.3803,0.503
10.823,-0.8058,0.3803,0.503
10.846,-0.826,0.3749,0.5301
10.846,-0.826,0.3749,0.5301
10.847,-0.826,0.3749,0.5301
10.848,-0.826,0.3749,0.5301
10.848,-0.826,0.3749,0.5301
10.864,-0.85,0.3597,0.5286
10.865,-0.85,0.3597,0.5286
10.866,-0.85,0.3597,0.5286
10.866,-0.85,0.3597,0.5286
10.883,-0.8348,0.3514,0.5008
10.887,-0.8348,0.3514,0.5008
10.888,-0.8348,0.3514,0.5008
10.904,-0.8172,0.3509,0.4876
10.905,-0.8172,0.3509,0.4876
10.905,-0.8172,0.3509,0.4876
10.971,-0.772,0.3407,0.5039
10.971,-0.772,0.3407,0.5039
10.971,-0.772,0.3407,0.5039
10.971,-0.772,0.3407,0.5039
10.971,-0.772,0.3407,0.5039
10.972,-0.731,0.3429,0.5076
10.972,-0.731,0.3429,0.5076
10.972,-0.731,0.3429,0.5076
10.972,-0.8006,0.3646,0.5208
10.972,-0.8006,0.3646,0.5208
10.972,-0.8006,0.3646,0.5208
10.981,-0.8295,0.3514,0.5318
10.981,-0.8295,0.3514,0.5318
10.981,-0.8295,0.3514,0.5318
11,-0.7696,0.3231,0.5411
11,-0.7696,0.3231,0.5411
11,-0.7696,0.3231,0.5411
11.003,-0.7696,0.3231,0.5411
11.003,-0.7696,0.3231,0.5411
11.021,-0.8187,0.3324,0.5337
11.021,-0.8187,0.3324,0.5337
11.021,-0.8187,0.3324,0.5337
11.041,-0.8651,0.3573,0.5303
11.041,-0.8651,0.3573,0.5303
11.042,-0.8651,0.3573,0.5303
11.059,-0.8253,0.3468,0.5328
11.059,-0.8253,0.3468,0.5328
11.06,-0.8253,0.3468,0.5328
11.06,-0.8253,0.3468,0.5328
11.079,-0.7776,0.3392,0.5306
11.079,-0.7776,0.3392,0.5306
11.079,-0.7776,0.3392,0.5306
11.082,-0.7776,0.3392,0.5306
11.082,-0.7776,0.3392,0.5306
11.1,-0.8114,0.3671,0.5078
11.1,-0.8114,0.3671,0.5078
11.1,-0.8114,0.3671,0.5078
11.119,-0.8637,0.3778,0.5083
11.119,-0.8637,0.3778,0.5083
11.119,-0.8637,0.3778,0.5083
11.14,-0.8211,0.3514,0.5279
11.14,-0.8211,0.3514,0.5279
11.14,-0.8211,0.3514,0.5279
11.159,-0.7334,0.3475,0.5071
11.159,-0.7334,0.3475,0.5071
11.159,-0.7334,0.3475,0.5071
11.162,-0.7334,0.3475,0.5071
11.162,-0.7334,0.3475,0.5071
11.179,-0.7571,0.369,0.4964
11.18,-0.7571,0.369,0.4964
11.18,-0.7571,0.369,0.4964
11.199,-0.8431,0.3712,0.5105
11.2,-0.8431,0.3712,0.5105
11.2,-0.8431,0.3712,0.5105
11.22,-0.8439,0.347,0.5213
11.22,-0.8439,0.347,0.5213
11.221,-0.8439,0.347,0.5213
11.239,-0.8456,0.3524,0.501
11.24,-0.8456,0.3524,0.501
11.24,-0.8456,0.3524,0.501
11.241,-0.8456,0.3524,0.501
11.241,-0.8456,0.3524,0.501
11.261,-0.8456,0.3524,0.501
11.261,-0.827,0.3561,0.5215
11.262,-0.827,0.3561,0.5215
11.263,-0.827,0.3561,0.5215
11.28,-0.8297,0.3536,0.535
11.281,-0.8297,0.3536,0.535
11.281,-0.8297,0.3536,0.535
11.3,-0.8143,0.3688,0.502
11.3,-0.8143,0.3688,0.502
11.301,-0.8143,0.3688,0.502
11.32,-0.8045,0.3742,0.4768
11.32,-0.8045,0.3742,0.4768
11.321,-0.8045,0.3742,0.4768
11.326,-0.8045,0.3742,0.4768
11.326,-0.8045,0.3742,0.4768
11.342,-0.8238,0.349,0.5078
11.344,-0.8238,0.349,0.5078
11.344,-0.8238,0.349,0.5078
11.361,-0.7967,0.3571,0.5088
11.362,-0.7967,0.3571,0.5088
11.362,-0.7967,0.3571,0.5088
11.379,-0.8031,0.3793,0.4907
11.38,-0.8031,0.3793,0.4907
11.381,-0.8031,0.3793,0.4907
11.4,-0.8248,0.3668,0.5005
11.401,-0.8248,0.3668,0.5005
11.402,-0.8248,0.3668,0.5005
11.404,-0.8248,0.3668,0.5005
11.405,-0.8248,0.3668,0.5005
11.42,-0.806,0.3448,0.5108
11.42,-0.806,0.3448,0.5108
11.421,-0.806,0.3448,0.5108
11.439,-0.8038,0.3458,0.5105
11.44,-0.8038,0.3458,0.5105
11.441,-0.8038,0.3458,0.5105
11.46,-0.8038,0.3458,0.5105
11.461,-0.8263,0.3644,0.5188
11.461,-0.8263,0.3644,0.5188
11.527,-0.8263,0.3644,0.5188
11.527,-0.8321,0.3693,0.5323
11.527,-0.8321,0.3693,0.5323
11.527,-0.8321,0.3693,0.5323
11.528,-0.8321,0.3693,0.5323
11.528,-0.8321,0.3693,0.5323
11.528,-0.8458,0.3764,0.5142
11.528,-0.8458,0.3764,0.5142
11.528,-0.8458,0.3764,0.5142
11.529,-0.8317,0.3717,0.5213
11.529,-0.8317,0.3717,0.5213
11.529,-0.8317,0.3717,0.5213
11.54,-0.8128,0.3681,0.4915
11.54,-0.8128,0.3681,0.4915
11.54,-0.8128,0.3681,0.4915
11.556,-0.7994,0.3717,0.491
11.557,-0.7994,0.3717,0.491
11.557,-0.7994,0.3717,0.491
11.559,-0.7994,0.3717,0.491
11.559,-0.7994,0.3717,0.491
11.573,-0.7994,0.3717,0.491
11.577,-0.8001,0.3783,0.5103
11.577,-0.8001,0.3783,0.5103
11.577,-0.8001,0.3783,0.5103
11.597,-0.8202,0.3861,0.4895
11.597,-0.8202,0.3861,0.4895
11.597,-0.8202,0.3861,0.4895
11.617,-0.829,0.383,0.4861
11.618,-0.829,0.383,0.4861
11.618,-0.829,0.383,0.4861
11.637,-0.8273,0.3637,0.5162
11.637,-0.8273,0.3637,0.5162
11.638,-0.8273,0.3637,0.5162
11.639,-0.8273,0.3637,0.5162
11.639,-0.8273,0.3637,0.5162
11.654,-0.8273,0.3637,0.5162
11.656,-0.7967,0.3751,0.514
11.657,-0.7967,0.3751,0.514
11.657,-0.7967,0.3751,0.514
11.675,-0.8018,0.4037,0.4959
11.675,-0.8018,0.4037,0.4959
11.675,-0.8018,0.4037,0.4959
11.695,-0.8424,0.3898,0.5039
11.695,-0.8424,0.3898,0.5039
11.696,-0.8424,0.3898,0.5039
11.716,-0.8207,0.3509,0.5179
11.717,-0.8207,0.3509,0.5179
11.717,-0.8207,0.3509,0.5179
11.718,-0.8207,0.3509,0.5179
11.718,-0.8207,0.3509,0.5179
11.736,-0.7774,0.3485,0.5078
11.737,-0.7774,0.3485,0.5078
11.737,-0.7774,0.3485,0.5078
11.756,-0.7791,0.3612,0.5066
11.756,-0.7791,0.3612,0.5066
11.756,-0.7791,0.3612,0.5066
11.779,-0.782,0.359,0.5271
11.779,-0.782,0.359,0.5271
11.779,-0.782,0.359,0.5271
11.799,-0.7855,0.3607,0.5184
11.8,-0.7855,0.3607,0.5184
11.8,-0.7855,0.3607,0.5184
11.8,-0.7855,0.3607,0.5184
11.801,-0.7855,0.3607,0.5184
11.817,-0.7811,0.3556,0.5113
11.818,-0.7811,0.3556,0.5113
11.818,-0.7811,0.3556,0.5113
11.838,-0.7745,0.3483,0.5328
11.838,-0.7745,0.3483,0.5328
11.839,-0.7745,0.3483,0.5328
11.856,-0.7745,0.3483,0.5328
11.856,-0.8006,0.3678,0.5181
11.856,-0.8006,0.3678,0.5181
11.857,-0.8006,0.3678,0.5181
11.879,-0.7926,0.3798,0.511
11.88,-0.7926,0.3798,0.511
11.88,-0.7926,0.3798,0.511
11.881,-0.7926,0.3798,0.511
11.881,-0.7926,0.3798,0.511
11.901,-0.805,0.3602,0.5281
11.902,-0.805,0.3602,0.5281
11.902,-0.805,0.3602,0.5281
11.92,-0.8461,0.3575,0.5403
11.921,-0.8461,0.3575,0.5403
11.921,-0.8461,0.3575,0.5403
11.938,-0.8087,0.369,0.5147
11.938,-0.8087,0.369,0.5147
11.939,-0.8087,0.369,0.5147
11.957,-0.8231,0.3764,0.4922
11.958,-0.8231,0.3764,0.4922
11.958,-0.8231,0.3764,0.4922
11.959,-0.8231,0.3764,0.4922
11.959,-0.8231,0.3764,0.4922
11.978,-0.8346,0.3585,0.5103
11.979,-0.8346,0.3585,0.5103
11.979,-0.8346,0.3585,0.5103
11.998,-0.8089,0.3607,0.4986
11.999,-0.8089,0.3607,0.4986
11.999,-0.8089,0.3607,0.4986
12.018,-0.7918,0.3793,0.5022
12.098,-0.7918,0.3793,0.5022
12.098,-0.7918,0.3793,0.5022
12.098,-0.8143,0.3759,0.5252
12.099,-0.8143,0.3759,0.5252
12.099,-0.8143,0.3759,0.5252
12.099,-0.8143,0.3759,0.5252
12.099,-0.8143,0.3759,0.5252
12.099,-0.8143,0.3759,0.5252
12.099,-0.8314,0.3688,0.5232
12.1,-0.8314,0.3688,0.5232
12.101,-0.8314,0.3688,0.5232
12.101,-0.8436,0.3717,0.5032
12.101,-0.8436,0.3717,0.5032
12.101,-0.8436,0.3717,0.5032
12.102,-0.828,0.3703,0.4976
12.102,-0.828,0.3703,0.4976
12.102,-0.828,0.3703,0.4976
12.114,-0.8187,0.3632,0.511
12.115,-0.8187,0.3632,0.511
12.115,-0.8187,0.3632,0.511
12.116,-0.8187,0.3632,0.511
12.116,-0.8187,0.3632,0.511
12.133,-0.7816,0.3641,0.5118
12.135,-0.7816,0.3641,0.5118
12.136,-0.7816,0.3641,0.5118
12.155,-0.7605,0.3644,0.4956
12.156,-0.7605,0.3644,0.4956
12.156,-0.7605,0.3644,0.4956
12.169,-0.7605,0.3644,0.4956
12.175,-0.7869,0.36,0.4915
12.176,-0.7869,0.36,0.4915
12.177,-0.7869,0.36,0.4915
12.196,-0.7928,0.3673,0.5113
12.196,-0.7928,0.3673,0.5113
12.197,-0.7928,0.3673,0.5113
12.197,-0.7928,0.3673,0.5113
12.198,-0.7928,0.3673,0.5113
12.214,-0.8209,0.3839,0.5144
12.215,-0.8209,0.3839,0.5144
12.215,-0.8209,0.3839,0.5144
12.233,-0.8725,0.3913,0.5213
12.233,-0.8725,0.3913,0.5213
12.234,-0.8725,0.3913,0.5213
12.251,-0.8725,0.3913,0.5213
12.252,-0.8478,0.3649,0.5242
12.253,-0.8478,0.3649,0.5242
12.253,-0.8478,0.3649,0.5242
12.272,-0.7823,0.3688,0.499
12.273,-0.7823,0.3688,0.499
12.273,-0.7823,0.3688,0.499
12.274,-0.7823,0.3688,0.499
12.274,-0.7823,0.3688,0.499
12.293,-0.8006,0.3996,0.4888
12.293,-0.8006,0.3996,0.4888
12.293,-0.8006,0.3996,0.4888
12.312,-0.8505,0.3874,0.5071
12.312,-0.8505,0.3874,0.5071
12.313,-0.8505,0.3874,0.5071
12.335,-0.8258,0.3617,0.5152
12.335,-0.8258,0.3617,0.5152
12.335,-0.8258,0.3617,0.5152
12.353,-0.8011,0.3619,0.499
12.353,-0.8011,0.3619,0.499
12.353,-0.8011,0.3619,0.499
12.357,-0.8011,0.3619,0.499
12.357,-0.8011,0.3619,0.499
12.368,-0.8011,0.3619,0.499
12.376,-0.8026,0.3639,0.51
12.376,-0.8026,0.3639,0.51
12.377,-0.8026,0.3639,0.51
12.396,-0.7923,0.3746,0.5137
12.396,-0.7923,0.3746,0.5137
12.396,-0.7923,0.3746,0.5137
12.417,-0.8202,0.3859,0.5162
12.418,-0.8202,0.3859,0.5162
12.418,-0.8202,0.3859,0.5162
12.435,-0.8532,0.3727,0.533
12.435,-0.8532,0.3727,0.533
12.436,-0.8532,0.3727,0.533
12.436,-0.8532,0.3727,0.533
12.437,-0.8532,0.3727,0.533
12.454,-0.8532,0.3727,0.533
12.455,-0.8058,0.3512,0.51
12.456,-0.8058,0.3512,0.51
12.457,-0.8058,0.3512,0.51
12.473,-0.7842,0.3617,0.5008
12.473,-0.7842,0.3617,0.5008
12.474,-0.7842,0.3617,0.5008
12.496,-0.7745,0.3668,0.5179
12.496,-0.7745,0.3668,0.5179
12.497,-0.7745,0.3668,0.5179
12.513,-0.764,0.3588,0.5208
12.519,-0.764,0.3588,0.5208
12.519,-0.764,0.3588,0.5208
12.522,-0.764,0.3588,0.5208
12.523,-0.764,0.3588,0.5208
12.535,-0.8045,0.3629,0.5181
12.535,-0.8045,0.3629,0.5181
12.536,-0.8045,0.3629,0.5181
12.555,-0.8146,0.3514,0.5328
12.611,-0.8146,0.3514,0.5328
12.611,-0.8146,0.3514,0.5328
12.612,-0.8146,0.3514,0.5328
12.612,-0.7823,0.3402,0.5367
12.612,-0.7823,0.3402,0.5367
12.612,-0.7823,0.3402,0.5367
12.612,-0.7916,0.3509,0.5284
12.612,-0.7916,0.3509,0.5284
12.612,-0.7916,0.3509,0.5284
12.613,-0.7916,0.3509,0.5284
12.613,-0.7916,0.3509,0.5284
12.613,-0.7992,0.3663,0.5284
12.613,-0.7992,0.3663,0.5284
12.614,-0.7992,0.3663,0.5284
12.632,-0.7774,0.3534,0.5433
12.632,-0.7774,0.3534,0.5433
12.632,-0.7774,0.3534,0.5433
12.649,-0.7774,0.3534,0.5433
12.65,-0.7725,0.3443,0.5443
12.65,-0.7725,0.3443,0.5443
12.65,-0.7725,0.3443,0.5443
12.671,-0.7852,0.3549,0.5355
12.671,-0.7852,0.3549,0.5355
12.671,-0.7852,0.3549,0.5355
12.673,-0.7852,0.3549,0.5355
12.673,-0.7852,0.3549,0.5355
12.693,-0.8075,0.3402,0.5403
12.693,-0.8075,0.3402,0.5403
12.693,-0.8075,0.3402,0.5403
12.713,-0.8138,0.3333,0.5201
12.714,-0.8138,0.3333,0.5201
12.714,-0.8138,0.3333,0.5201
12.732,-0.8021,0.3619,0.51
12.732,-0.8021,0.3619,0.51
12.733,-0.8021,0.3619,0.51
12.752,-0.8001,0.3703,0.523
12.752,-0.8001,0.3703,0.523
12.752,-0.8001,0.3703,0.523
12.753,-0.8001,0.3703,0.523
12.753,-0.8001,0.3703,0.523
12.773,-0.8204,0.3556,0.522
12.774,-0.8204,0.3556,0.522
12.774,-0.8204,0.3556,0.522
12.791,-0.8224,0.3512,0.512
12.792,-0.8224,0.3512,0.512
12.792,-0.8224,0.3512,0.512
12.809,-0.8072,0.3502,0.5311
12.81,-0.8072,0.3502,0.5311
12.812,-0.8072,0.3502,0.5311
12.83,-0.8146,0.3612,0.5311
12.83,-0.8146,0.3612,0.5311
12.83,-0.8146,0.3612,0.5311
12.835,-0.8146,0.3612,0.5311
12.836,-0.8146,0.3612,0.5311
12.848,-0.8146,0.3612,0.5311
12.85,-0.8097,0.371,0.5301
12.85,-0.8097,0.371,0.5301
12.85,-0.8097,0.371,0.5301
12.868,-0.7933,0.3617,0.5286
12.868,-0.7933,0.3617,0.5286
12.869,-0.7933,0.3617,0.5286
12.888,-0.8114,0.3705,0.4937
12.888,-0.8114,0.3705,0.4937
12.888,-0.8114,0.3705,0.4937
12.909,-0.8387,0.3715,0.4954
12.909,-0.8387,0.3715,0.4954
12.909,-0.8387,0.3715,0.4954
12.911,-0.8387,0.3715,0.4954
12.911,-0.8387,0.3715,0.4954
12.93,-0.8319,0.3443,0.5296
12.93,-0.8319,0.3443,0.5296
12.93,-0.8319,0.3443,0.5296
12.949,-0.8106,0.3575,0.5044
12.949,-0.8106,0.3575,0.5044
12.949,-0.8106,0.3575,0.5044
12.969,-0.8075,0.3861,0.4961
12.97,-0.8075,0.3861,0.4961
12.97,-0.8075,0.3861,0.4961
12.99,-0.7977,0.3698,0.5154
12.99,-0.7977,0.3698,0.5154
12.99,-0.7977,0.3698,0.5154
12.991,-0.7977,0.3698,0.5154
12.991,-0.7977,0.3698,0.5154
13.011,-0.7938,0.3585,0.5147
13.011,-0.7938,0.3585,0.5147
13.012,-0.7938,0.3585,0.5147
13.03,-0.8224,0.358,0.5069
13.03,-0.8224,0.358,0.5069
13.03,-0.8224,0.358,0.5069
13.047,-0.8224,0.358,0.5069
13.05,-0.8414,0.3483,0.5162
13.05,-0.8414,0.3483,0.5162
13.05,-0.8414,0.3483,0.5162
13.069,-0.7987,0.3512,0.5267
13.069,-0.7987,0.3512,0.5267
13.07,-0.7987,0.3512,0.5267
13.072,-0.7987,0.3512,0.5267
13.072,-0.7987,0.3512,0.5267
13.091,-0.7948,0.3822,0.5081
13.091,-0.7948,0.3822,0.5081
13.148,-0.7948,0.3822,0.5081
13.149,-0.8387,0.3925,0.5086
13.149,-0.8387,0.3925,0.5086
13.149,-0.8387,0.3925,0.5086
13.149,-0.8483,0.3641,0.5218
13.15,-0.8483,0.3641,0.5218
13.15,-0.8483,0.3641,0.5218
13.15,-0.8172,0.3531,0.5105
13.15,-0.8172,0.3531,0.5105
13.15,-0.8172,0.3531,0.5105
13.153,-0.8172,0.3531,0.5105
13.153,-0.8172,0.3531,0.5105
13.167,-0.8163,0.3717,0.4944
13.168,-0.8163,0.3717,0.4944
13.168,-0.8163,0.3717,0.4944
13.187,-0.797,0.3722,0.5012
13.187,-0.797,0.3722,0.5012
13.187,-0.797,0.3722,0.5012
13.207,-0.7984,0.3676,0.5091
13.207,-0.7984,0.3676,0.5091
13.208,-0.7984,0.3676,0.5091
13.228,-0.8182,0.3644,0.5071
13.228,-0.8182,0.3644,0.5071
13.228,-0.8182,0.3644,0.5071
13.232,-0.8182,0.3644,0.5071
13.232,-0.8182,0.3644,0.5071
13.245,-0.8182,0.3644,0.5071
13.248,-0.8016,0.3661,0.5083
13.248,-0.8016,0.3661,0.5083
13.248,-0.8016,0.3661,0.5083
13.266,-0.8214,0.3602,0.5091
13.266,-0.8214,0.3602,0.5091
13.267,-0.8214,0.3602,0.5091
13.288,-0.806,0.3558,0.5088
13.288,-0.806,0.3558,0.5088
13.288,-0.806,0.3558,0.5088
13.31,-0.7838,0.3573,0.5044
13.31,-0.7838,0.3573,0.5044
13.313,-0.7838,0.3573,0.5044
13.313,-0.7838,0.3573,0.5044
13.314,-0.7838,0.3573,0.5044
13.328,-0.7935,0.3561,0.5012
13.329,-0.7935,0.3561,0.5012
13.33,-0.7935,0.3561,0.5012
13.349,-0.8226,0.359,0.5137
13.349,-0.8226,0.359,0.5137
13.35,-0.8226,0.359,0.5137
13.367,-0.8275,0.3492,0.5103
13.367,-0.8275,0.3492,0.5103
13.367,-0.8275,0.3492,0.5103
13.387,-0.8048,0.3341,0.5122
13.387,-0.8048,0.3341,0.5122
13.387,-0.8048,0.3341,0.5122
13.388,-0.8048,0.3341,0.5122
13.388,-0.8048,0.3341,0.5122
13.407,-0.8119,0.3397,0.5223
13.407,-0.8119,0.3397,0.5223
13.408,-0.8119,0.3397,0.5223
13.426,-0.8273,0.3634,0.5193
13.426,-0.8273,0.3634,0.5193
13.426,-0.8273,0.3634,0.5193
13.442,-0.8273,0.3634,0.5193
13.444,-0.7896,0.3651,0.523
13.445,-0.7896,0.3651,0.523
13.445,-0.7896,0.3651,0.523
13.465,-0.795,0.3549,0.5367
13.465,-0.795,0.3549,0.5367
13.465,-0.795,0.3549,0.5367
13.467,-0.795,0.3549,0.5367
13.467,-0.795,0.3549,0.5367
13.484,-0.8317,0.3534,0.5174
13.484,-0.8317,0.3534,0.5174
13.484,-0.8317,0.3534,0.5174
13.506,-0.8375,0.3465,0.5088
13.506,-0.8375,0.3465,0.5088
13.506,-0.8375,0.3465,0.5088
13.525,-0.8392,0.3507,0.5059
13.525,-0.8392,0.3507,0.5059
13.525,-0.8392,0.3507,0.5059
13.546,-0.8226,0.3681,0.5039
13.546,-0.8226,0.3681,0.5039
13.546,-0.8226,0.3681,0.5039
13.546,-0.8226,0.3681,0.5039
13.548,-0.8226,0.3681,0.5039
13.565,-0.786,0.369,0.5235
13.565,-0.786,0.369,0.5235
13.565,-0.786,0.369,0.5235
13.587,-0.8075,0.3531,0.5347
13.587,-0.8075,0.3531,0.5347
13.587,-0.8075,0.3531,0.5347
13.604,-0.8554,0.3424,0.5333
13.605,-0.8554,0.3424,0.5333
13.605,-0.8554,0.3424,0.5333
13.627,-0.8691,0.3507,0.5154
13.628,-0.8691,0.3507,0.5154
13.629,-0.8691,0.3507,0.5154
13.629,-0.8691,0.3507,0.5154
13.629,-0.8691,0.3507,0.5154
13.641,-0.8691,0.3507,0.5154
13.645,-0.8409,0.3541,0.5274
13.7,-0.8409,0.3541,0.5274
13.7,-0.8409,0.3541,0.5274
13.7,-0.7618,0.3485,0.5269
13.701,-0.7618,0.3485,0.5269
13.701,-0.7618,0.3485,0.5269
13.701,-0.7728,0.3519,0.5445
13.701,-0.7728,0.3519,0.5445
13.701,-0.7728,0.3519,0.5445
13.705,-0.8307,0.3646,0.5311
13.705,-0.8307,0.3646,0.5311
13.705,-0.8307,0.3646,0.5311
13.706,-0.8307,0.3646,0.5311
13.706,-0.8307,0.3646,0.5311
13.723,-0.8136,0.3563,0.5149
13.723,-0.8136,0.3563,0.5149
13.723,-0.8136,0.3563,0.5149
13.746,-0.7762,0.3343,0.5174
13.746,-0.7762,0.3343,0.5174
13.747,-0.7762,0.3343,0.5174
13.763,-0.796,0.3536,0.5201
13.763,-0.796,0.3536,0.5201
13.765,-0.796,0.3536,0.5201
13.783,-0.8175,0.3761,0.5264
13.784,-0.8175,0.3761,0.5264
13.785,-0.8175,0.3761,0.5264
13.785,-0.8175,0.3761,0.5264
13.786,-0.8175,0.3761,0.5264
13.804,-0.8001,0.3632,0.5113
13.805,-0.8001,0.3632,0.5113
13.806,-0.8001,0.3632,0.5113
13.825,-0.7992,0.3615,0.4756
13.827,-0.7992,0.3615,0.4756
13.828,-0.7992,0.3615,0.4756
13.844,-0.7992,0.3615,0.4756
13.845,-0.8417,0.3666,0.502
13.845,-0.8417,0.3666,0.502
13.846,-0.8417,0.3666,0.502
13.865,-0.8295,0.3663,0.5169
13.865,-0.8295,0.3663,0.5169
13.867,-0.8295,0.3663,0.5169
13.868,-0.8295,0.3663,0.5169
13.868,-0.8295,0.3663,0.5169
13.883,-0.7791,0.3627,0.4927
13.884,-0.7791,0.3627,0.4927
13.885,-0.7791,0.3627,0.4927
13.905,-0.7877,0.3546,0.4934
13.905,-0.7877,0.3546,0.4934
13.906,-0.7877,0.3546,0.4934
13.923,-0.7955,0.3512,0.5176
13.924,-0.7955,0.3512,0.5176
13.924,-0.7955,0.3512,0.5176
13.945,-0.7776,0.358,0.5308
13.946,-0.7776,0.358,0.5308
13.947,-0.7776,0.358,0.5308
13.948,-0.7776,0.358,0.5308
13.948,-0.7776,0.358,0.5308
13.964,-0.7901,0.3744,0.5022
13.965,-0.7901,0.3744,0.5022
13.967,-0.7901,0.3744,0.5022
13.983,-0.8055,0.38,0.4983
13.983,-0.8055,0.38,0.4983
13.984,-0.8055,0.38,0.4983
14.008,-0.8077,0.3641,0.5384
14.008,-0.8077,0.3641,0.5384
14.009,-0.8077,0.3641,0.5384
14.021,-0.8373,0.3698,0.5284
14.022,-0.8373,0.3698,0.5284
14.022,-0.8373,0.3698,0.5284
14.024,-0.8373,0.3698,0.5284
14.024,-0.8373,0.3698,0.5284
14.037,-0.8373,0.3698,0.5284
14.041,-0.8422,0.3739,0.5227
14.041,-0.8422,0.3739,0.5227
14.041,-0.8422,0.3739,0.5227
14.062,-0.8302,0.347,0.5301
14.062,-0.8302,0.347,0.5301
14.062,-0.8302,0.347,0.5301
14.08,-0.7901,0.325,0.5223
14.081,-0.7901,0.325,0.5223
14.081,-0.7901,0.325,0.5223
14.101,-0.7874,0.3272,0.4924
14.102,-0.7874,0.3272,0.4924
14.102,-0.7874,0.3272,0.4924
14.104,-0.7874,0.3272,0.4924
14.104,-0.7874,0.3272,0.4924
14.121,-0.7967,0.3219,0.5125
14.121,-0.7967,0.3219,0.5125
14.121,-0.7967,0.3219,0.5125
14.145,-0.8669,0.3414,0.5428
14.145,-0.8669,0.3414,0.5428
14.145,-0.8669,0.3414,0.5428
14.161,-0.8444,0.3629,0.5391
14.161,-0.8444,0.3629,0.5391
14.161,-0.8444,0.3629,0.5391
14.181,-0.7779,0.361,0.5267
14.182,-0.7779,0.361,0.5267
14.182,-0.7779,0.361,0.5267
14.183,-0.7779,0.361,0.5267
14.183,-0.7779,0.361,0.5267
14.202,-0.8077,0.3563,0.5386
14.26,-0.8077,0.3563,0.5386
14.26,-0.8077,0.3563,0.5386
14.26,-0.8236,0.369,0.5435
14.26,-0.8236,0.369,0.5435
14.261,-0.8236,0.369,0.5435
14.261,-0.8236,0.369,0.5435
14.262,-0.8036,0.3771,0.5298
14.262,-0.8036,0.3771,0.5298
14.262,-0.8036,0.3771,0.5298
14.262,-0.7982,0.3649,0.5181
14.262,-0.7982,0.3649,0.5181
14.263,-0.7982,0.3649,0.5181
14.263,-0.7982,0.3649,0.5181
14.263,-0.7982,0.3649,0.5181
14.28,-0.7996,0.3624,0.5105
14.28,-0.7996,0.3624,0.5105
14.28,-0.7996,0.3624,0.5105
14.302,-0.7979,0.3534,0.5113
14.303,-0.7979,0.3534,0.5113
14.303,-0.7979,0.3534,0.5113
14.319,-0.7801,0.3461,0.5127
14.32,-0.7801,0.3461,0.5127
14.321,-0.7801,0.3461,0.5127
14.341,-0.7987,0.3519,0.5281
14.341,-0.7987,0.3519,0.5281
14.342,-0.7987,0.3519,0.5281
14.342,-0.7987,0.3519,0.5281
14.343,-0.7987,0.3519,0.5281
14.354,-0.7987,0.3519,0.5281
14.361,-0.8275,0.358,0.5149
14.363,-0.8275,0.358,0.5149
14.364,-0.8275,0.358,0.5149
14.381,-0.8058,0.3426,0.533
14.382,-0.8058,0.3426,0.533
14.382,-0.8058,0.3426,0.533
14.401,-0.772,0.3355,0.5262
14.403,-0.772,0.3355,0.5262
14.403,-0.772,0.3355,0.5262
14.421,-0.763,0.3424,0.523
14.422,-0.763,0.3424,0.523
14.423,-0.763,0.3424,0.523
14.423,-0.763,0.3424,0.523
14.424,-0.763,0.3424,0.523
14.439,-0.763,0.3424,0.523
14.442,-0.797,0.3258,0.5474
14.443,-0.797,0.3258,0.5474
14.443,-0.797,0.3258,0.5474
14.461,-0.8268,0.3245,0.535
14.462,-0.8268,0.3245,0.535
14.463,-0.8268,0.3245,0.535
14.48,-0.7984,0.3326,0.5396
14.48,-0.7984,0.3326,0.5396
14.481,-0.7984,0.3326,0.5396
14.502,-0.8148,0.3338,0.5491
14.503,-0.8148,0.3338,0.5491
14.503,-0.8148,0.3338,0.5491
14.504,-0.8148,0.3338,0.5491
14.504,-0.8148,0.3338,0.5491
14.52,-0.8407,0.3316,0.5523
14.521,-0.8407,0.3316,0.5523
14.521,-0.8407,0.3316,0.5523
14.543,-0.8431,0.3434,0.5462
14.544,-0.8431,0.3434,0.5462
14.545,-0.8431,0.3434,0.5462
14.551,-0.8431,0.3434,0.5462
14.561,-0.8363,0.3637,0.5421
14.561,-0.8363,0.3637,0.5421
14.562,-0.8363,0.3637,0.5421
14.579,-0.8207,0.3583,0.5215
14.58,-0.8207,0.3583,0.5215
14.581,-0.8207,0.3583,0.5215
14.582,-0.8207,0.3583,0.5215
14.585,-0.8207,0.3583,0.5215
14.599,-0.7772,0.3468,0.5059
14.6,-0.7772,0.3468,0.5059
14.6,-0.7772,0.3468,0.5059
14.619,-0.7764,0.3358,0.5166
14.619,-0.7764,0.3358,0.5166
14.619,-0.7764,0.3358,0.5166
14.632,-0.7764,0.3358,0.5166
14.638,-0.7852,0.3316,0.5198
14.639,-0.7852,0.3316,0.5198
14.639,-0.7852,0.3316,0.5198
14.657,-0.815,0.3475,0.5088
14.657,-0.815,0.3475,0.5088
14.658,-0.815,0.3475,0.5088
14.66,-0.815,0.3475,0.5088
14.66,-0.815,0.3475,0.5088
14.677,-0.8559,0.3563,0.5086
14.677,-0.8559,0.3563,0.5086
14.677,-0.8559,0.3563,0.5086
14.698,-0.837,0.3307,0.5467
14.698,-0.837,0.3307,0.5467
14.698,-0.837,0.3307,0.5467
14.717,-0.7982,0.3365,0.5291
14.717,-0.7982,0.3365,0.5291
14.717,-0.7982,0.3365,0.5291
14.737,-0.7825,0.3688,0.5125
14.737,-0.7825,0.3688,0.5125
14.737,-0.7825,0.3688,0.5125
14.773,-0.7825,0.3688,0.5125
14.774,-0.7825,0.3688,0.5125
14.774,-0.7825,0.3688,0.5125
14.774,-0.8004,0.371,0.5262
14.775,-0.8004,0.371,0.5262
14.775,-0.8004,0.371,0.5262
14.778,-0.8131,0.3502,0.5318
14.778,-0.8131,0.3502,0.5318
14.778,-0.8131,0.3502,0.5318
14.798,-0.8023,0.3392,0.5325
14.799,-0.8023,0.3392,0.5325
14.799,-0.8023,0.3392,0.5325
14.818,-0.817,0.3478,0.5227
14.818,-0.817,0.3478,0.5227
14.818,-0.817,0.3478,0.5227
14.818,-0.817,0.3478,0.5227
14.819,-0.817,0.3478,0.5227
14.833,-0.817,0.3478,0.5227
14.838,-0.8387,0.3461,0.5462
14.838,-0.8387,0.3461,0.5462
14.838,-0.8387,0.3461,0.5462
14.859,-0.8092,0.3434,0.5421
14.86,-0.8092,0.3434,0.5421
14.86,-0.8092,0.3434,0.5421
14.879,-0.7803,0.3531,0.5359
14.88,-0.7803,0.3531,0.5359
14.88,-0.7803,0.3531,0.5359
14.899,-0.7894,0.3612,0.5479
14.899,-0.7894,0.3612,0.5479
14.899,-0.7894,0.3612,0.5479
14.901,-0.7894,0.3612,0.5479
14.902,-0.7894,0.3612,0.5479
14.918,-0.7896,0.3663,0.5611
14.918,-0.7896,0.3663,0.5611
14.918,-0.7896,0.3663,0.5611
14.938,-0.795,0.3703,0.5479
14.939,-0.795,0.3703,0.5479
14.939,-0.795,0.3703,0.5479
14.96,-0.8099,0.3588,0.5399
14.961,-0.8099,0.3588,0.5399
14.962,-0.8099,0.3588,0.5399
14.979,-0.8128,0.339,0.5416
14.979,-0.8128,0.339,0.5416
14.98,-0.8128,0.339,0.5416
14.98,-0.8128,0.339,0.5416
14.981,-0.8128,0.339,0.5416
14.998,-0.7877,0.3346,0.5315
14.999,-0.7877,0.3346,0.5315
14.999,-0.7877,0.3346,0.5315
15.021,-0.7735,0.3583,0.4993
15.022,-0.7735,0.3583,0.4993
15.022,-0.7735,0.3583,0.4993
15.032,-0.7735,0.3583,0.4993
15.039,-0.7659,0.3671,0.511
15.039,-0.7659,0.3671,0.511
15.042,-0.7659,0.3671,0.511
15.059,-0.7828,0.3556,0.5296
15.06,-0.7828,0.3556,0.5296
15.061,-0.7828,0.3556,0.5296
15.061,-0.7828,0.3556,0.5296
15.062,-0.7828,0.3556,0.5296
15.078,-0.8028,0.3495,0.5408
15.079,-0.8028,0.3495,0.5408
15.079,-0.8028,0.3495,0.5408
15.098,-0.8121,0.3453,0.5421
15.099,-0.8121,0.3453,0.5421
15.099,-0.8121,0.3453,0.5421
15.117,-0.8097,0.3465,0.5225
15.119,-0.8097,0.3465,0.5225
15.119,-0.8097,0.3465,0.5225
15.138,-0.7867,0.3505,0.5291
15.139,-0.7867,0.3505,0.5291
15.139,-0.7867,0.3505,0.5291
15.147,-0.7867,0.3505,0.5291
15.147,-0.7867,0.3505,0.5291
15.148,-0.7867,0.3505,0.5291
15.158,-0.8038,0.3497,0.5399
15.159,-0.8038,0.3497,0.5399
15.159,-0.8038,0.3497,0.5399
15.178,-0.8072,0.3355,0.5406
15.178,-0.8072,0.3355,0.5406
15.179,-0.8072,0.3355,0.5406
15.197,-0.7549,0.3326,0.5318
15.197,-0.7549,0.3326,0.5318
15.198,-0.7549,0.3326,0.5318
15.216,-0.7671,0.3404,0.5289
15.216,-0.7671,0.3404,0.5289
15.217,-0.7671,0.3404,0.5289
15.219,-0.7671,0.3404,0.5289
15.219,-0.7671,0.3404,0.5289
15.228,-0.7671,0.3404,0.5289
15.234,-0.8016,0.3534,0.5289
15.235,-0.8016,0.3534,0.5289
15.235,-0.8016,0.3534,0.5289
15.258,-0.8084,0.3524,0.5438
15.259,-0.8084,0.3524,0.5438
15.259,-0.8084,0.3524,0.5438
15.273,-0.8402,0.3514,0.5477
15.274,-0.8402,0.3514,0.5477
15.274,-0.8402,0.3514,0.5477
15.318,-0.8441,0.3541,0.5521
15.318,-0.8441,0.3541,0.5521
15.318,-0.8441,0.3541,0.5521
15.318,-0.8441,0.3541,0.5521
15.318,-0.8441,0.3541,0.5521
15.318,-0.8182,0.3617,0.5484
15.318,-0.8182,0.3617,0.5484
15.319,-0.8182,0.3617,0.5484
15.336,-0.8077,0.3571,0.5276
15.336,-0.8077,0.3571,0.5276
15.336,-0.8077,0.3571,0.5276
15.354,-0.805,0.3468,0.5135
15.355,-0.805,0.3468,0.5135
15.355,-0.805,0.3468,0.5135
15.376,-0.772,0.3426,0.5389
15.376,-0.772,0.3426,0.5389
15.376,-0.772,0.3426,0.5389
15.376,-0.772,0.3426,0.5389
15.377,-0.772,0.3426,0.5389
15.395,-0.8006,0.3575,0.5235
15.396,-0.8006,0.3575,0.5235
15.397,-0.8006,0.3575,0.5235
15.416,-0.8263,0.3681,0.5005
15.416,-0.8263,0.3681,0.5005
15.416,-0.8263,0.3681,0.5005
15.428,-0.8263,0.3681,0.5005
15.436,-0.7842,0.3566,0.5193
15.436,-0.7842,0.3566,0.5193
15.436,-0.7842,0.3566,0.5193
15.454,-0.786,0.3487,0.5333
15.455,-0.786,0.3487,0.5333
15.455,-0.786,0.3487,0.5333
15.456,-0.786,0.3487,0.5333
15.456,-0.786,0.3487,0.5333
15.477,-0.8336,0.3519,0.5357
15.477,-0.8336,0.3519,0.5357
15.477,-0.8336,0.3519,0.5357
15.5,-0.838,0.3666,0.5342
15.502,-0.838,0.3666,0.5342
15.503,-0.838,0.3666,0.5342
15.518,-0.8273,0.3627,0.5487
15.52,-0.8273,0.3627,0.5487
15.521,-0.8273,0.3627,0.5487
15.537,-0.8194,0.349,0.5638
15.538,-0.8194,0.349,0.5638
15.538,-0.8194,0.349,0.5638
15.539,-0.8194,0.349,0.5638
15.539,-0.8194,0.349,0.5638
15.555,-0.7811,0.3522,0.535
15.556,-0.7811,0.3522,0.535
15.556,-0.7811,0.3522,0.535
15.578,-0.7813,0.3529,0.535
15.579,-0.7813,0.3529,0.535
15.579,-0.7813,0.3529,0.535
15.597,-0.8138,0.3421,0.5467
15.598,-0.8138,0.3421,0.5467
15.598,-0.8138,0.3421,0.5467
15.615,-0.7867,0.3397,0.5257
15.616,-0.7867,0.3397,0.5257
15.621,-0.7867,0.3397,0.5257
15.622,-0.7867,0.3397,0.5257
15.623,-0.7867,0.3397,0.5257
15.626,-0.7867,0.3397,0.5257
15.635,-0.7491,0.3421,0.5281
15.635,-0.7491,0.3421,0.5281
15.636,-0.7491,0.3421,0.5281
15.656,-0.7842,0.3363,0.5452
15.656,-0.7842,0.3363,0.5452
15.658,-0.7842,0.3363,0.5452
15.673,-0.8424,0.3436,0.5328
15.674,-0.8424,0.3436,0.5328
15.678,-0.8424,0.3436,0.5328
15.696,-0.8407,0.3304,0.5518
15.697,-0.8407,0.3304,0.5518
15.697,-0.8407,0.3304,0.5518
15.698,-0.8407,0.3304,0.5518
15.699,-0.8407,0.3304,0.5518
15.713,-0.828,0.3221,0.5489
15.714,-0.828,0.3221,0.5489
15.718,-0.828,0.3221,0.5489
15.735,-0.8148,0.3407,0.5447
15.736,-0.8148,0.3407,0.5447
15.737,-0.8148,0.3407,0.5447
15.753,-0.7877,0.3541,0.5572
15.753,-0.7877,0.3541,0.5572
15.754,-0.7877,0.3541,0.5572
15.773,-0.7588,0.3502,0.5518
15.773,-0.7588,0.3502,0.5518
15.776,-0.7588,0.3502,0.5518
15.777,-0.7588,0.3502,0.5518
15.778,-0.7588,0.3502,0.5518
15.794,-0.7662,0.3453,0.545
15.795,-0.7662,0.3453,0.545
15.796,-0.7662,0.3453,0.545
15.815,-0.8014,0.3487,0.5418
15.816,-0.8014,0.3487,0.5418
15.816,-0.8014,0.3487,0.5418
15.824,-0.8014,0.3487,0.5418
15.838,-0.8214,0.3321,0.5374
15.838,-0.8214,0.3321,0.5374
15.879,-0.8214,0.3321,0.5374
15.88,-0.7938,0.3272,0.5311
15.88,-0.7938,0.3272,0.5311
15.88,-0.7938,0.3272,0.5311
15.88,-0.7938,0.3272,0.5311
15.88,-0.7938,0.3272,0.5311
15.881,-0.7918,0.3507,0.5267
15.881,-0.7918,0.3507,0.5267
15.881,-0.7918,0.3507,0.5267
15.89,-0.8048,0.3487,0.5487
15.89,-0.8048,0.3487,0.5487
15.89,-0.8048,0.3487,0.5487
15.91,-0.8094,0.3483,0.5293
15.91,-0.8094,0.3483,0.5293
15.91,-0.8094,0.3483,0.5293
15.93,-0.8102,0.347,0.5179
15.93,-0.8102,0.347,0.5179
15.93,-0.8102,0.347,0.5179
15.932,-0.8102,0.347,0.5179
15.932,-0.8102,0.347,0.5179
15.95,-0.7632,0.3302,0.5306
15.95,-0.7632,0.3302,0.5306
15.95,-0.7632,0.3302,0.5306
15.971,-0.7586,0.3461,0.5364
15.971,-0.7586,0.3461,0.5364
15.971,-0.7586,0.3461,0.5364
15.99,-0.8031,0.3729,0.5447
15.99,-0.8031,0.3729,0.5447
15.99,-0.8031,0.3729,0.5447
16.01,-0.8402,0.3744,0.5579
16.011,-0.8402,0.3744,0.5579
16.011,-0.8402,0.3744,0.5579
16.013,-0.8402,0.3744,0.5579
16.014,-0.8402,0.3744,0.5579
16.024,-0.8402,0.3744,0.5579
16.031,-0.839,0.3536,0.5553
16.032,-0.839,0.3536,0.5553
16.032,-0.839,0.3536,0.5553
16.051,-0.7962,0.3485,0.5306
16.051,-0.7962,0.3485,0.5306
16.052,-0.7962,0.3485,0.5306
16.07,-0.7908,0.3602,0.5254
16.071,-0.7908,0.3602,0.5254
16.071,-0.7908,0.3602,0.5254
16.09,-0.7891,0.361,0.5369
16.094,-0.7891,0.361,0.5369
16.094,-0.7891,0.361,0.5369
16.095,-0.7891,0.361,0.5369
16.095,-0.7891,0.361,0.5369
16.11,-0.785,0.3649,0.5369
16.11,-0.785,0.3649,0.5369
16.111,-0.785,0.3649,0.5369
16.133,-0.7745,0.371,0.5315
16.135,-0.7745,0.371,0.5315
16.136,-0.7745,0.371,0.5315
16.152,-0.7742,0.3793,0.5223
16.152,-0.7742,0.3793,0.5223
16.153,-0.7742,0.3793,0.5223
16.17,-0.8067,0.3685,0.5391
16.171,-0.8067,0.3685,0.5391
16.172,-0.8067,0.3685,0.5391
16.172,-0.8067,0.3685,0.5391
16.173,-0.8067,0.3685,0.5391
16.192,-0.8226,0.3448,0.5423
16.193,-0.8226,0.3448,0.5423
16.193,-0.8226,0.3448,0.5423
16.216,-0.807,0.3392,0.5311
16.217,-0.807,0.3392,0.5311
16.217,-0.807,0.3392,0.5311
16.222,-0.807,0.3392,0.5311
16.233,-0.7667,0.3495,0.5399
16.233,-0.7667,0.3495,0.5399
16.235,-0.7667,0.3495,0.5399
16.251,-0.7676,0.361,0.5487
16.252,-0.7676,0.361,0.5487
16.252,-0.7676,0.361,0.5487
16.253,-0.7676,0.361,0.5487
16.254,-0.7676,0.361,0.5487
16.27,-0.7967,0.372,0.5435
16.271,-0.7967,0.372,0.5435
16.272,-0.7967,0.372,0.5435
16.292,-0.7979,0.3707,0.5506
16.293,-0.7979,0.3707,0.5506
16.294,-0.7979,0.3707,0.5506
16.311,-0.8238,0.3637,0.544
16.311,-0.8238,0.3637,0.544
16.315,-0.8238,0.3637,0.544
16.33,-0.838,0.3546,0.5406
16.331,-0.838,0.3546,0.5406
16.332,-0.838,0.3546,0.5406
16.338,-0.838,0.3546,0.5406
16.338,-0.838,0.3546,0.5406
16.349,-0.8138,0.3507,0.5399
16.349,-0.8138,0.3507,0.5399
16.35,-0.8138,0.3507,0.5399
16.37,-0.7896,0.3485,0.5521
16.372,-0.7896,0.3485,0.5521
16.372,-0.7896,0.3485,0.5521
16.391,-0.7667,0.36,0.5374
16.392,-0.7667,0.36,0.5374
16.47,-0.7667,0.36,0.5374
16.47,-0.7696,0.371,0.5196
16.471,-0.7696,0.371,0.5196
16.471,-0.7696,0.371,0.5196
16.471,-0.7696,0.371,0.5196
16.471,-0.7696,0.371,0.5196
16.472,-0.7696,0.371,0.5196
16.472,-0.7816,0.3544,0.5357
16.472,-0.7816,0.3544,0.5357
16.472,-0.7816,0.3544,0.5357
16.472,-0.7781,0.3578,0.5235
16.473,-0.7781,0.3578,0.5235
16.473,-0.7781,0.3578,0.5235
16.473,-0.7764,0.36,0.5347
16.473,-0.7764,0.36,0.5347
16.473,-0.7764,0.36,0.5347
16.486,-0.7574,0.3578,0.5428
16.486,-0.7574,0.3578,0.5428
16.486,-0.7574,0.3578,0.5428
16.488,-0.7574,0.3578,0.5428
16.488,-0.7574,0.3578,0.5428
16.507,-0.7798,0.3615,0.5575
16.507,-0.7798,0.3615,0.5575
16.507,-0.7798,0.3615,0.5575
16.526,-0.8329,0.3483,0.556
16.527,-0.8329,0.3483,0.556
16.527,-0.8329,0.3483,0.556
16.546,-0.8304,0.3377,0.5401
16.546,-0.8304,0.3377,0.5401
16.546,-0.8304,0.3377,0.5401
16.566,-0.8058,0.337,0.5484
16.567,-0.8058,0.337,0.5484
16.567,-0.8058,0.337,0.5484
16.568,-0.8058,0.337,0.5484
16.568,-0.8058,0.337,0.5484
16.586,-0.806,0.3654,0.5555
16.587,-0.806,0.3654,0.5555
16.587,-0.806,0.3654,0.5555
16.607,-0.8089,0.3827,0.5474
16.607,-0.8089,0.3827,0.5474
16.607,-0.8089,0.3827,0.5474
16.618,-0.8089,0.3827,0.5474
16.63,-0.7935,0.3737,0.5235
16.63,-0.7935,0.3737,0.5235
16.63,-0.7935,0.3737,0.5235
16.647,-0.7613,0.3566,0.512
16.647,-0.7613,0.3566,0.512
16.648,-0.7613,0.3566,0.512
16.65,-0.7613,0.3566,0.512
16.65,-0.7613,0.3566,0.512
16.667,-0.7703,0.3448,0.513
16.668,-0.7703,0.3448,0.513
16.668,-0.7703,0.3448,0.513
16.688,-0.7996,0.35,0.5374
16.688,-0.7996,0.35,0.5374
16.689,-0.7996,0.35,0.5374
16.709,-0.8133,0.3568,0.5528
16.709,-0.8133,0.3568,0.5528
16.712,-0.8133,0.3568,0.5528
16.729,-0.8251,0.3475,0.5575
16.73,-0.8251,0.3475,0.5575
16.73,-0.8251,0.3475,0.5575
16.731,-0.8251,0.3475,0.5575
16.732,-0.8251,0.3475,0.5575
16.75,-0.7962,0.3448,0.565
16.75,-0.7962,0.3448,0.565
16.75,-0.7962,0.3448,0.565
16.766,-0.8067,0.3539,0.5653
16.767,-0.8067,0.3539,0.5653
16.767,-0.8067,0.3539,0.5653
16.788,-0.8018,0.3424,0.5594
16.788,-0.8018,0.3424,0.5594
16.789,-0.8018,0.3424,0.5594
16.807,-0.8214,0.3465,0.5521
16.808,-0.8214,0.3465,0.5521
16.812,-0.8214,0.3465,0.5521
16.812,-0.8214,0.3465,0.5521
16.813,-0.8214,0.3465,0.5521
16.82,-0.8214,0.3465,0.5521
16.826,-0.8126,0.3485,0.5611
16.826,-0.8126,0.3485,0.5611
16.827,-0.8126,0.3485,0.5611
16.847,-0.8571,0.3475,0.5601
16.848,-0.8571,0.3475,0.5601
16.848,-0.8571,0.3475,0.5601
16.867,-0.7818,0.3641,0.5333
16.869,-0.7818,0.3641,0.5333
16.87,-0.7818,0.3641,0.5333
16.885,-0.782,0.361,0.5482
16.886,-0.782,0.361,0.5482
16.886,-0.782,0.361,0.5482
16.887,-0.782,0.361,0.5482
16.887,-0.782,0.361,0.5482
16.907,-0.7554,0.3703,0.5533
16.907,-0.7554,0.3703,0.5533
16.908,-0.7554,0.3703,0.5533
16.927,-0.7349,0.3908,0.544
16.928,-0.7349,0.3908,0.544
16.928,-0.7349,0.3908,0.544
16.946,-0.7539,0.3668,0.5638
17.012,-0.7539,0.3668,0.5638
17.012,-0.7539,0.3668,0.5638
17.013,-0.7845,0.3397,0.5758
17.013,-0.7845,0.3397,0.5758
17.013,-0.7845,0.3397,0.5758
17.013,-0.7845,0.3397,0.5758
17.013,-0.7845,0.3397,0.5758
17.014,-0.795,0.3605,0.5892
17.014,-0.795,0.3605,0.5892
17.014,-0.795,0.3605,0.5892
17.014,-0.7852,0.3825,0.5907
17.014,-0.7852,0.3825,0.5907
17.015,-0.7852,0.3825,0.5907
17.015,-0.7852,0.3825,0.5907
17.024,-0.7618,0.3732,0.5826
17.024,-0.7618,0.3732,0.5826
17.024,-0.7618,0.3732,0.5826
17.043,-0.7439,0.3549,0.5765
17.044,-0.7439,0.3549,0.5765
17.044,-0.7439,0.3549,0.5765
17.045,-0.7439,0.3549,0.5765
17.045,-0.7439,0.3549,0.5765
17.063,-0.7258,0.3517,0.5914
17.063,-0.7258,0.3517,0.5914
17.063,-0.7258,0.3517,0.5914
17.083,-0.6955,0.3566,0.6117
17.083,-0.6955,0.3566,0.6117
17.083,-0.6955,0.3566,0.6117
17.103,-0.7107,0.3617,0.6286
17.103,-0.7107,0.3617,0.6286
17.103,-0.7107,0.3617,0.6286
17.123,-0.7412,0.3549,0.6506
17.124,-0.7412,0.3549,0.6506
17.124,-0.7412,0.3549,0.6506
17.125,-0.7412,0.3549,0.6506
17.126,-0.7412,0.3549,0.6506
17.131,-0.7412,0.3549,0.6506
17.143,-0.7341,0.3514,0.6515
17.143,-0.7341,0.3514,0.6515
17.143,-0.7341,0.3514,0.6515
17.162,-0.7075,0.3436,0.6508
17.163,-0.7075,0.3436,0.6508
17.163,-0.7075,0.3436,0.6508
17.184,-0.695,0.3348,0.685
17.185,-0.695,0.3348,0.685
17.185,-0.695,0.3348,0.685
17.204,-0.6872,0.3517,0.6743
17.204,-0.6872,0.3517,0.6743
17.204,-0.6872,0.3517,0.6743
17.206,-0.6872,0.3517,0.6743
17.206,-0.6872,0.3517,0.6743
17.214,-0.6872,0.3517,0.6743
17.224,-0.653,0.3666,0.6496
17.225,-0.653,0.3666,0.6496
17.225,-0.653,0.3666,0.6496
17.243,-0.5922,0.3431,0.6718
17.244,-0.5922,0.3431,0.6718
17.244,-0.5922,0.3431,0.6718
17.264,-0.631,0.3377,0.7112
17.264,-0.631,0.3377,0.7112
17.265,-0.631,0.3377,0.7112
17.283,-0.7148,0.3502,0.7371
17.283,-0.7148,0.3502,0.7371
17.284,-0.7148,0.3502,0.7371
17.284,-0.7148,0.3502,0.7371
17.284,-0.7148,0.3502,0.7371
17.302,-0.664,0.3365,0.7283
17.303,-0.664,0.3365,0.7283
17.303,-0.664,0.3365,0.7283
17.323,-0.5975,0.3311,0.7058
17.323,-0.5975,0.3311,0.7058
17.324,-0.5975,0.3311,0.7058
17.331,-0.5975,0.3311,0.7058
17.345,-0.5995,0.3424,0.7195
17.345,-0.5995,0.3424,0.7195
17.346,-0.5995,0.3424,0.7195
17.363,-0.587,0.3514,0.7383
17.363,-0.587,0.3514,0.7383
17.364,-0.587,0.3514,0.7383
17.366,-0.587,0.3514,0.7383
17.366,-0.587,0.3514,0.7383
17.382,-0.5907,0.359,0.7381
17.383,-0.5907,0.359,0.7381
17.383,-0.5907,0.359,0.7381
17.402,-0.6171,0.3673,0.7407
17.403,-0.6171,0.3673,0.7407
17.403,-0.6171,0.3673,0.7407
17.415,-0.6171,0.3673,0.7407
17.423,-0.6259,0.3668,0.751
17.425,-0.6259,0.3668,0.751
17.426,-0.6259,0.3668,0.751
17.442,-0.6264,0.3585,0.7603
17.443,-0.6264,0.3585,0.7603
17.443,-0.6264,0.3585,0.7603
17.444,-0.6264,0.3585,0.7603
17.444,-0.6264,0.3585,0.7603
17.462,-0.6337,0.3629,0.7483
17.462,-0.6337,0.3629,0.7483
17.463,-0.6337,0.3629,0.7483
17.483,-0.6303,0.3724,0.7603
17.555,-0.6303,0.3724,0.7603
17.555,-0.6303,0.3724,0.7603
17.555,-0.608,0.3759,0.7598
17.556,-0.608,0.3759,0.7598
17.556,-0.608,0.3759,0.7598
17.556,-0.5846,0.3656,0.7522
17.557,-0.5846,0.3656,0.7522
17.558,-0.5846,0.3656,0.7522
17.558,-0.5846,0.3656,0.7522
17.558,-0.5846,0.3656,0.7522
17.558,-0.5846,0.3656,0.7522
17.559,-0.5831,0.3497,0.7454
17.559,-0.5831,0.3497,0.7454
17.559,-0.5831,0.3497,0.7454
17.561,-0.5619,0.3539,0.7498
17.561,-0.5619,0.3539,0.7498
17.561,-0.5619,0.3539,0.7498
17.58,-0.5619,0.3593,0.7334
17.581,-0.5619,0.3593,0.7334
17.581,-0.5619,0.3593,0.7334
17.6,-0.5628,0.3639,0.7598
17.6,-0.5628,0.3639,0.7598
17.6,-0.5628,0.3639,0.7598
17.602,-0.5628,0.3639,0.7598
17.602,-0.5628,0.3639,0.7598
17.61,-0.5628,0.3639,0.7598
17.62,-0.5445,0.3685,0.7613
17.62,-0.5445,0.3685,0.7613
17.62,-0.5445,0.3685,0.7613
17.639,-0.5271,0.3781,0.7439
17.639,-0.5271,0.3781,0.7439
17.639,-0.5271,0.3781,0.7439
17.66,-0.5606,0.3856,0.7513
17.66,-0.5606,0.3856,0.7513
17.66,-0.5606,0.3856,0.7513
17.679,-0.5562,0.3715,0.7625
17.679,-0.5562,0.3715,0.7625
17.679,-0.5562,0.3715,0.7625
17.681,-0.5562,0.3715,0.7625
17.681,-0.5562,0.3715,0.7625
17.699,-0.5325,0.3624,0.7706
17.699,-0.5325,0.3624,0.7706
17.7,-0.5325,0.3624,0.7706
17.719,-0.5572,0.3656,0.7715
17.719,-0.5572,0.3656,0.7715
17.719,-0.5572,0.3656,0.7715
17.739,-0.5513,0.3656,0.7591
17.74,-0.5513,0.3656,0.7591
17.74,-0.5513,0.3656,0.7591
17.758,-0.5401,0.3573,0.7698
17.758,-0.5401,0.3573,0.7698
17.759,-0.5401,0.3573,0.7698
17.76,-0.5401,0.3573,0.7698
17.76,-0.5401,0.3573,0.7698
17.779,-0.5489,0.3632,0.7869
17.779,-0.5489,0.3632,0.7869
17.779,-0.5489,0.3632,0.7869
17.799,-0.5763,0.3825,0.7967
17.799,-0.5763,0.3825,0.7967
17.799,-0.5763,0.3825,0.7967
17.809,-0.5763,0.3825,0.7967
17.819,-0.5814,0.372,0.7945
17.819,-0.5814,0.372,0.7945
17.819,-0.5814,0.372,0.7945
17.838,-0.5489,0.3421,0.7847
17.839,-0.5489,0.3421,0.7847
17.839,-0.5489,0.3421,0.7847
17.84,-0.5489,0.3421,0.7847
17.84,-0.5489,0.3421,0.7847
17.859,-0.544,0.3434,0.771
17.859,-0.544,0.3434,0.771
17.859,-0.544,0.3434,0.771
17.879,-0.5575,0.3595,0.7632
17.879,-0.5575,0.3595,0.7632
17.88,-0.5575,0.3595,0.7632
17.899,-0.556,0.37,0.7576
17.899,-0.556,0.37,0.7576
17.899,-0.556,0.37,0.7576
17.92,-0.5474,0.3597,0.7539
17.921,-0.5474,0.3597,0.7539
17.922,-0.5474,0.3597,0.7539
17.922,-0.5474,0.3597,0.7539
17.923,-0.5474,0.3597,0.7539
17.94,-0.5389,0.3568,0.7601
17.941,-0.5389,0.3568,0.7601
17.941,-0.5389,0.3568,0.7601
17.959,-0.577,0.3754,0.7698
17.959,-0.577,0.3754,0.7698
17.96,-0.577,0.3754,0.7698
17.982,-0.575,0.3575,0.7684
17.983,-0.575,0.3575,0.7684
17.985,-0.575,0.3575,0.7684
17.999,-0.5623,0.348,0.7561
18,-0.5623,0.348,0.7561
18,-0.5623,0.348,0.7561
18.001,-0.5623,0.348,0.7561
18.002,-0.5623,0.348,0.7561
18.008,-0.5623,0.348,0.7561
18.02,-0.5707,0.3529,0.7686
18.02,-0.5707,0.3529,0.7686
18.077,-0.5707,0.3529,0.7686
18.077,-0.5819,0.3534,0.7798
18.078,-0.5819,0.3534,0.7798
18.078,-0.5819,0.3534,0.7798
18.078,-0.5936,0.3661,0.7808
18.08,-0.5936,0.3661,0.7808
18.081,-0.5936,0.3661,0.7808
18.082,-0.5895,0.3661,0.7769
18.082,-0.5895,0.3661,0.7769
18.082,-0.5895,0.3661,0.7769
18.082,-0.5895,0.3661,0.7769
18.083,-0.5895,0.3661,0.7769
18.097,-0.5799,0.3585,0.7662
18.097,-0.5799,0.3585,0.7662
18.097,-0.5799,0.3585,0.7662
18.117,-0.5633,0.3483,0.7747
18.117,-0.5633,0.3483,0.7747
18.117,-0.5633,0.3483,0.7747
18.137,-0.5567,0.3509,0.761
18.137,-0.5567,0.3509,0.761
18.137,-0.5567,0.3509,0.761
18.157,-0.5623,0.3509,0.7437
18.158,-0.5623,0.3509,0.7437
18.158,-0.5623,0.3509,0.7437
18.159,-0.5623,0.3509,0.7437
18.159,-0.5623,0.3509,0.7437
18.177,-0.5557,0.3654,0.751
18.177,-0.5557,0.3654,0.751
18.177,-0.5557,0.3654,0.751
18.196,-0.5834,0.3783,0.771
18.196,-0.5834,0.3783,0.771
18.197,-0.5834,0.3783,0.771
18.204,-0.5834,0.3783,0.771
18.216,-0.5785,0.3634,0.7686
18.216,-0.5785,0.3634,0.7686
18.217,-0.5785,0.3634,0.7686
18.238,-0.5697,0.3531,0.7647
18.238,-0.5697,0.3531,0.7647
18.238,-0.5697,0.3531,0.7647
18.238,-0.5697,0.3531,0.7647
18.239,-0.5697,0.3531,0.7647
18.255,-0.5785,0.3527,0.7627
18.255,-0.5785,0.3527,0.7627
18.255,-0.5785,0.3527,0.7627
18.276,-0.568,0.3578,0.7598
18.276,-0.568,0.3578,0.7598
18.276,-0.568,0.3578,0.7598
18.297,-0.5843,0.3651,0.7747
18.297,-0.5843,0.3651,0.7747
18.297,-0.5843,0.3651,0.7747
18.317,-0.5802,0.3539,0.7723
18.317,-0.5802,0.3539,0.7723
18.318,-0.5802,0.3539,0.7723
18.318,-0.5802,0.3539,0.7723
18.318,-0.5802,0.3539,0.7723
18.337,-0.5704,0.3512,0.7698
18.337,-0.5704,0.3512,0.7698
18.337,-0.5704,0.3512,0.7698
18.357,-0.5824,0.3666,0.7754
18.357,-0.5824,0.3666,0.7754
18.357,-0.5824,0.3666,0.7754
18.378,-0.5944,0.3568,0.7652
18.378,-0.5944,0.3568,0.7652
18.378,-0.5944,0.3568,0.7652
18.398,-0.5836,0.3463,0.7679
18.398,-0.5836,0.3463,0.7679
18.4,-0.5836,0.3463,0.7679
18.401,-0.5836,0.3463,0.7679
18.404,-0.5836,0.3463,0.7679
18.405,-0.5836,0.3463,0.7679
18.417,-0.5824,0.3639,0.7671
18.418,-0.5824,0.3639,0.7671
18.418,-0.5824,0.3639,0.7671
18.438,-0.5692,0.3583,0.7613
18.438,-0.5692,0.3583,0.7613
18.439,-0.5692,0.3583,0.7613
18.457,-0.5621,0.3434,0.7466
18.457,-0.5621,0.3434,0.7466
18.457,-0.5621,0.3434,0.7466
18.475,-0.5479,0.3487,0.7586
18.476,-0.5479,0.3487,0.7586
18.476,-0.5479,0.3487,0.7586
18.477,-0.5479,0.3487,0.7586
18.478,-0.5479,0.3487,0.7586
18.495,-0.5738,0.3695,0.7657
18.495,-0.5738,0.3695,0.7657
18.496,-0.5738,0.3695,0.7657
18.517,-0.5826,0.3683,0.7598
18.518,-0.5826,0.3683,0.7598
18.519,-0.5826,0.3683,0.7598
18.536,-0.565,0.3536,0.7549
18.537,-0.565,0.3536,0.7549
18.538,-0.565,0.3536,0.7549
18.557,-0.565,0.3551,0.7535
18.557,-0.565,0.3551,0.7535
18.558,-0.565,0.3551,0.7535
18.561,-0.565,0.3551,0.7535
18.562,-0.565,0.3551,0.7535
18.578,-0.5914,0.3666,0.7583
18.578,-0.5914,0.3666,0.7583
18.638,-0.5914,0.3666,0.7583
18.646,-0.5785,0.3597,0.7647
18.646,-0.5785,0.3597,0.7647
18.646,-0.5785,0.3597,0.7647
18.646,-0.5785,0.3597,0.7647
18.647,-0.5601,0.3551,0.7737
18.647,-0.5601,0.3551,0.7737
18.647,-0.5601,0.3551,0.7737
18.647,-0.5843,0.3659,0.7762
18.647,-0.5843,0.3659,0.7762
18.647,-0.5843,0.3659,0.7762
18.648,-0.5843,0.3659,0.7762
18.648,-0.5843,0.3659,0.7762
18.652,-0.5865,0.3541,0.7723
18.652,-0.5865,0.3541,0.7723
18.652,-0.5865,0.3541,0.7723
18.675,-0.5567,0.336,0.7708
18.675,-0.5567,0.336,0.7708
18.675,-0.5567,0.336,0.7708
18.696,-0.5643,0.3514,0.7754
18.697,-0.5643,0.3514,0.7754
18.697,-0.5643,0.3514,0.7754
18.715,-0.5853,0.3593,0.7625
18.716,-0.5853,0.3593,0.7625
18.716,-0.5853,0.3593,0.7625
18.717,-0.5853,0.3593,0.7625
18.717,-0.5853,0.3593,0.7625
18.735,-0.5653,0.3443,0.753
18.736,-0.5653,0.3443,0.753
18.737,-0.5653,0.3443,0.753
18.754,-0.5653,0.3487,0.7659
18.755,-0.5653,0.3487,0.7659
18.755,-0.5653,0.3487,0.7659
18.774,-0.5868,0.3781,0.773
18.774,-0.5868,0.3781,0.773
18.775,-0.5868,0.3781,0.773
18.793,-0.5775,0.3727,0.7745
18.793,-0.5775,0.3727,0.7745
18.794,-0.5775,0.3727,0.7745
18.795,-0.5775,0.3727,0.7745
18.795,-0.5775,0.3727,0.7745
18.801,-0.5775,0.3727,0.7745
18.812,-0.5623,0.3539,0.7662
18.812,-0.5623,0.3539,0.7662
18.812,-0.5623,0.3539,0.7662
18.832,-0.5726,0.3446,0.7681
18.832,-0.5726,0.3446,0.7681
18.833,-0.5726,0.3446,0.7681
18.853,-0.5609,0.3387,0.7708
18.853,-0.5609,0.3387,0.7708
18.853,-0.5609,0.3387,0.7708
18.871,-0.5621,0.3522,0.774
18.872,-0.5621,0.3522,0.774
18.872,-0.5621,0.3522,0.774
18.874,-0.5621,0.3522,0.774
18.875,-0.5621,0.3522,0.774
18.893,-0.5599,0.3473,0.7735
18.893,-0.5599,0.3473,0.7735
18.893,-0.5599,0.3473,0.7735
18.913,-0.5645,0.347,0.7686
18.913,-0.5645,0.347,0.7686
18.914,-0.5645,0.347,0.7686
18.936,-0.5746,0.3707,0.7647
18.936,-0.5746,0.3707,0.7647
18.937,-0.5746,0.3707,0.7647
18.955,-0.5645,0.349,0.784
18.957,-0.5645,0.349,0.784
18.958,-0.5645,0.349,0.784
18.961,-0.5645,0.349,0.784
18.962,-0.5645,0.349,0.784
18.975,-0.5755,0.3451,0.7784
18.976,-0.5755,0.3451,0.7784
18.978,-0.5755,0.3451,0.7784
18.995,-0.5592,0.359,0.7823
18.995,-0.5592,0.359,0.7823
18.996,-0.5592,0.359,0.7823
19,-0.5592,0.359,0.7823
19.017,-0.5765,0.3605,0.7811
19.018,-0.5765,0.3605,0.7811
19.018,-0.5765,0.3605,0.7811
19.033,-0.5716,0.3429,0.783
19.036,-0.5716,0.3429,0.783
19.036,-0.5716,0.3429,0.783
19.037,-0.5716,0.3429,0.783
19.037,-0.5716,0.3429,0.783
19.053,-0.5584,0.359,0.7715
19.053,-0.5584,0.359,0.7715
19.054,-0.5584,0.359,0.7715
19.073,-0.5636,0.3898,0.7803
19.073,-0.5636,0.3898,0.7803
19.074,-0.5636,0.3898,0.7803
19.094,-0.5499,0.3703,0.7813
19.096,-0.5499,0.3703,0.7813
19.096,-0.5499,0.3703,0.7813
19.112,-0.5421,0.3505,0.7759
19.113,-0.5421,0.3505,0.7759
19.113,-0.5421,0.3505,0.7759
19.117,-0.5421,0.3505,0.7759
19.117,-0.5421,0.3505,0.7759
19.133,-0.5298,0.3451,0.7689
19.208,-0.5298,0.3451,0.7689
19.209,-0.5298,0.3451,0.7689
19.209,-0.5223,0.3465,0.7598
19.209,-0.5223,0.3465,0.7598
19.209,-0.5223,0.3465,0.7598
19.21,-0.5301,0.3441,0.7698
19.21,-0.5301,0.3441,0.7698
19.21,-0.5301,0.3441,0.7698
19.21,-0.545,0.3556,0.7774
19.21,-0.545,0.3556,0.7774
19.211,-0.545,0.3556,0.7774
19.211,-0.545,0.3556,0.7774
19.211,-0.545,0.3556,0.7774
19.211,-0.545,0.3556,0.7774
19.211,-0.545,0.3622,0.7838
19.211,-0.545,0.3622,0.7838
19.212,-0.545,0.3622,0.7838
19.231,-0.5614,0.3683,0.7906
19.231,-0.5614,0.3683,0.7906
19.231,-0.5614,0.3683,0.7906
19.25,-0.5621,0.3634,0.7842
19.251,-0.5621,0.3634,0.7842
19.251,-0.5621,0.3634,0.7842
19.271,-0.5391,0.3558,0.7825
19.272,-0.5391,0.3558,0.7825
19.273,-0.5391,0.3558,0.7825
19.278,-0.5391,0.3558,0.7825
19.279,-0.5391,0.3558,0.7825
19.293,-0.5445,0.3578,0.793
19.294,-0.5445,0.3578,0.793
19.296,-0.5445,0.3578,0.793
19.312,-0.5631,0.3722,0.7742
19.312,-0.5631,0.3722,0.7742
19.316,-0.5631,0.3722,0.7742
19.333,-0.5526,0.372,0.7554
19.334,-0.5526,0.372,0.7554
19.336,-0.5526,0.372,0.7554
19.35,-0.5198,0.3685,0.7415
19.351,-0.5198,0.3685,0.7415
19.352,-0.5198,0.3685,0.7415
19.352,-0.5198,0.3685,0.7415
19.353,-0.5198,0.3685,0.7415
19.369,-0.5528,0.3517,0.7637
19.37,-0.5528,0.3517,0.7637
19.37,-0.5528,0.3517,0.7637
19.388,-0.5511,0.3634,0.7764
19.388,-0.5511,0.3634,0.7764
19.389,-0.5511,0.3634,0.7764
19.396,-0.5511,0.3634,0.7764
19.409,-0.5687,0.3712,0.7615
19.409,-0.5687,0.3712,0.7615
19.41,-0.5687,0.3712,0.7615
19.428,-0.5587,0.3764,0.7659
19.428,-0.5587,0.3764,0.7659
19.429,-0.5587,0.3764,0.7659
19.431,-0.5587,0.3764,0.7659
19.431,-0.5587,0.3764,0.7659
19.448,-0.5413,0.3783,0.7662
19.448,-0.5413,0.3783,0.7662
19.448,-0.5413,0.3783,0.7662
19.468,-0.5648,0.3595,0.7635
19.468,-0.5648,0.3595,0.7635
19.468,-0.5648,0.3595,0.7635
19.489,-0.5741,0.3434,0.7786
19.49,-0.5741,0.3434,0.7786
19.49,-0.5741,0.3434,0.7786
19.508,-0.577,0.3573,0.7742
19.508,-0.577,0.3573,0.7742
19.508,-0.577,0.3573,0.7742
19.51,-0.577,0.3573,0.7742
19.51,-0.577,0.3573,0.7742
19.528,-0.5807,0.3607,0.7808
19.529,-0.5807,0.3607,0.7808
19.529,-0.5807,0.3607,0.7808
19.549,-0.5694,0.3615,0.7842
19.549,-0.5694,0.3615,0.7842
19.549,-0.5694,0.3615,0.7842
19.569,-0.5863,0.3546,0.7825
19.57,-0.5863,0.3546,0.7825
19.57,-0.5863,0.3546,0.7825
19.589,-0.5917,0.3424,0.8001
19.589,-0.5917,0.3424,0.8001
19.589,-0.5917,0.3424,0.8001
19.591,-0.5917,0.3424,0.8001
19.591,-0.5917,0.3424,0.8001
19.595,-0.5917,0.3424,0.8001
19.607,-0.6044,0.3465,0.828
19.607,-0.6044,0.3465,0.828
19.608,-0.6044,0.3465,0.828
