
time,AccelerometerX,AccelerometerY,AccelerometerZ
0.0130,-0.5990,-0.7955,0.1134
0.0140,-0.5990,-0.7955,0.1134
0.0140,-0.5990,-0.7955,0.1134
0.0260,-0.6000,-0.7957,-0.0518
0.0260,-0.6000,-0.7957,-0.0518
0.0260,-0.6000,-0.7957,-0.0518
0.0470,-0.5269,-0.8270,-0.1014
0.0480,-0.5269,-0.8270,-0.1014
0.0480,-0.5269,-0.8270,-0.1014
0.0480,-0.5269,-0.8270,-0.1014
0.0480,-0.5269,-0.8270,-0.1014
0.0650,-0.5076,-0.7872,-0.0090
0.0650,-0.5076,-0.7872,-0.0090
0.0650,-0.5076,-0.7872,-0.0090
0.0780,-0.5076,-0.7872,-0.0090
0.0840,-0.5543,-0.7425,0.0560
0.0850,-0.5543,-0.7425,0.0560
0.0900,-0.5543,-0.7425,0.0560
0.0900,-0.5543,-0.7425,0.0560
0.1030,-0.6032,-0.7403,0.0924
0.1040,-0.6032,-0.7403,0.0924
0.1040,-0.6032,-0.7403,0.0924
0.1240,-0.6144,-0.7571,0.1132
0.1240,-0.6144,-0.7571,0.1132
0.1240,-0.6144,-0.7571,0.1132
0.1260,-0.6144,-0.7571,0.1132
0.1260,-0.6144,-0.7571,0.1132
0.1450,-0.5907,-0.7794,0.1085
0.1450,-0.5907,-0.7794,0.1085
0.1450,-0.5907,-0.7794,0.1085
0.1630,-0.5675,-0.7921,0.0943
0.1630,-0.5675,-0.7921,0.0943
0.1630,-0.5675,-0.7921,0.0943
0.1840,-0.5311,-0.7879,0.0787
0.1840,-0.5311,-0.7879,0.0787
0.1840,-0.5311,-0.7879,0.0787
0.2040,-0.5230,-0.7798,0.0633
0.2040,-0.5230,-0.7798,0.0633
0.2040,-0.5230,-0.7798,0.0633
0.2050,-0.5230,-0.7798,0.0633
0.2050,-0.5230,-0.7798,0.0633
0.2240,-0.5560,-0.7640,0.0359
0.2240,-0.5560,-0.7640,0.0359
0.2250,-0.5560,-0.7640,0.0359
0.2430,-0.5904,-0.7676,0.0149
0.2440,-0.5904,-0.7676,0.0149
0.2440,-0.5904,-0.7676,0.0149
0.2630,-0.5785,-0.7872,0.0408
0.2640,-0.5785,-0.7872,0.0408
0.2640,-0.5785,-0.7872,0.0408
0.2760,-0.5785,-0.7872,0.0408
0.2830,-0.5956,-0.7908,0.0640
0.2850,-0.5956,-0.7908,0.0640
0.2850,-0.5956,-0.7908,0.0640
0.2850,-0.5956,-0.7908,0.0640
0.2860,-0.5956,-0.7908,0.0640
0.2880,-0.5956,-0.7908,0.0640
0.3030,-0.6239,-0.7794,0.0667
0.3040,-0.6239,-0.7794,0.0667
0.3040,-0.6239,-0.7794,0.0667
0.3230,-0.6533,-0.7957,0.0858
0.3230,-0.6533,-0.7957,0.0858
0.3230,-0.6533,-0.7957,0.0858
0.3430,-0.6137,-0.8106,0.1119
0.3430,-0.6137,-0.8106,0.1119
0.3430,-0.6137,-0.8106,0.1119
0.3630,-0.5665,-0.7940,0.1070
0.3630,-0.5665,-0.7940,0.1070
0.3630,-0.5665,-0.7940,0.1070
0.3650,-0.5665,-0.7940,0.1070
0.3650,-0.5665,-0.7940,0.1070
0.3840,-0.5724,-0.7891,0.0863
0.3840,-0.5724,-0.7891,0.0863
0.3840,-0.5724,-0.7891,0.0863
0.4020,-0.5724,-0.7845,0.0743
0.4020,-0.5724,-0.7845,0.0743
0.4020,-0.5724,-0.7845,0.0743
0.4220,-0.5523,-0.7904,0.0655
0.4220,-0.5523,-0.7904,0.0655
0.4220,-0.5523,-0.7904,0.0655
0.4420,-0.5535,-0.8009,0.0709
0.4420,-0.5535,-0.8009,0.0709
0.4420,-0.5535,-0.8009,0.0709
0.4440,-0.5535,-0.8009,0.0709
0.4440,-0.5535,-0.8009,0.0709
0.4640,-0.5685,-0.7933,0.0736
0.4640,-0.5685,-0.7933,0.0736
0.4640,-0.5685,-0.7933,0.0736
0.4820,-0.5687,-0.7926,0.0670
0.4820,-0.5687,-0.7926,0.0670
0.4820,-0.5687,-0.7926,0.0670
0.4870,-0.5687,-0.7926,0.0670
0.5020,-0.5619,-0.7965,0.0726
0.5020,-0.5619,-0.7965,0.0726
0.5020,-0.5619,-0.7965,0.0726
0.5210,-0.5748,-0.7930,0.0750
0.5220,-0.5748,-0.7930,0.0750
0.5220,-0.5748,-0.7930,0.0750
0.5230,-0.5748,-0.7930,0.0750
0.5230,-0.5748,-0.7930,0.0750
0.5410,-0.5917,-0.7862,0.0767
0.5410,-0.5917,-0.7862,0.0767
0.5410,-0.5917,-0.7862,0.0767
0.5620,-0.5807,-0.7877,0.0762
0.5620,-0.5807,-0.7877,0.0762
0.5620,-0.5807,-0.7877,0.0762
0.5810,-0.5768,-0.7857,0.0633
0.5810,-0.5768,-0.7857,0.0633
0.5820,-0.5768,-0.7857,0.0633
0.6020,-0.5719,-0.7825,0.0523
0.6020,-0.5719,-0.7825,0.0523
0.6030,-0.5719,-0.7825,0.0523
0.6030,-0.5719,-0.7825,0.0523
0.6030,-0.5719,-0.7825,0.0523
0.6210,-0.5592,-0.7918,0.0486
0.6210,-0.5592,-0.7918,0.0486
0.6210,-0.5592,-0.7918,0.0486
0.6600,-0.5609,-0.7938,0.0697
0.6600,-0.5609,-0.7938,0.0697
0.6600,-0.5609,-0.7938,0.0697
0.6600,-0.5721,-0.7813,0.0853
0.6600,-0.5721,-0.7813,0.0853
0.6610,-0.5721,-0.7813,0.0853
0.6810,-0.5738,-0.7891,0.0804
0.6810,-0.5738,-0.7891,0.0804
0.6810,-0.5738,-0.7891,0.0804
0.6840,-0.5738,-0.7891,0.0804
0.6840,-0.5738,-0.7891,0.0804
0.6860,-0.5738,-0.7891,0.0804
0.7000,-0.5750,-0.8094,0.0687
0.7000,-0.5750,-0.8094,0.0687
0.7000,-0.5750,-0.8094,0.0687
0.7210,-0.5860,-0.7984,0.0709
0.7210,-0.5860,-0.7984,0.0709
0.7210,-0.5860,-0.7984,0.0709
0.7400,-0.5775,-0.7877,0.0816
0.7400,-0.5775,-0.7877,0.0816
0.7400,-0.5775,-0.7877,0.0816
0.7600,-0.5582,-0.7860,0.0909
0.7610,-0.5582,-0.7860,0.0909
0.7610,-0.5582,-0.7860,0.0909
0.7620,-0.5582,-0.7860,0.0909
0.7620,-0.5582,-0.7860,0.0909
0.7800,-0.5540,-0.7906,0.0758
0.7810,-0.5540,-0.7906,0.0758
0.7810,-0.5540,-0.7906,0.0758
0.8000,-0.5616,-0.7992,0.0601
0.8010,-0.5616,-0.7992,0.0601
0.8010,-0.5616,-0.7992,0.0601
0.8200,-0.5687,-0.7987,0.0745
0.8200,-0.5687,-0.7987,0.0745
0.8200,-0.5687,-0.7987,0.0745
0.8400,-0.5677,-0.7999,0.0589
0.8400,-0.5677,-0.7999,0.0589
0.8400,-0.5677,-0.7999,0.0589
0.8420,-0.5677,-0.7999,0.0589
0.8420,-0.5677,-0.7999,0.0589
0.8600,-0.5680,-0.7999,0.0665
0.8600,-0.5680,-0.7999,0.0665
0.8600,-0.5680,-0.7999,0.0665
0.8720,-0.5680,-0.7999,0.0665
0.8810,-0.5709,-0.7894,0.0799
0.8810,-0.5709,-0.7894,0.0799
0.8810,-0.5709,-0.7894,0.0799
0.8830,-0.5709,-0.7894,0.0799
0.8990,-0.5680,-0.7872,0.0789
0.9000,-0.5680,-0.7872,0.0789
0.9000,-0.5680,-0.7872,0.0789
0.9200,-0.5670,-0.7972,0.0660
0.9200,-0.5670,-0.7972,0.0660
0.9200,-0.5670,-0.7972,0.0660
0.9220,-0.5670,-0.7972,0.0660
0.9220,-0.5670,-0.7972,0.0660
0.9400,-0.5645,-0.8011,0.0762
0.9400,-0.5645,-0.8011,0.0762
0.9400,-0.5645,-0.8011,0.0762
0.9610,-0.5692,-0.7901,0.0838
0.9610,-0.5692,-0.7901,0.0838
0.9610,-0.5692,-0.7901,0.0838
0.9790,-0.5687,-0.7860,0.0819
0.9790,-0.5687,-0.7860,0.0819
0.9790,-0.5687,-0.7860,0.0819
0.9990,-0.5601,-0.7979,0.0665
0.9990,-0.5601,-0.7979,0.0665
0.9990,-0.5601,-0.7979,0.0665
1.0010,-0.5601,-0.7979,0.0665
1.0010,-0.5601,-0.7979,0.0665
1.0190,-0.5587,-0.8055,0.0706
1.0190,-0.5587,-0.8055,0.0706
1.0190,-0.5587,-0.8055,0.0706
1.0400,-0.5658,-0.7977,0.0689
1.0410,-0.5658,-0.7977,0.0689
1.0410,-0.5658,-0.7977,0.0689
1.0580,-0.5714,-0.7913,0.0728
1.0590,-0.5714,-0.7913,0.0728
1.0590,-0.5714,-0.7913,0.0728
1.0790,-0.5667,-0.7869,0.0728
1.0790,-0.5667,-0.7869,0.0728
1.0790,-0.5667,-0.7869,0.0728
1.0820,-0.5667,-0.7869,0.0728
1.0820,-0.5667,-0.7869,0.0728
1.0820,-0.5667,-0.7869,0.0728
1.0980,-0.5626,-0.7928,0.0687
1.0980,-0.5626,-0.7928,0.0687
1.0990,-0.5626,-0.7928,0.0687
1.1200,-0.5628,-0.8014,0.0582
1.1200,-0.5628,-0.8014,0.0582
1.1200,-0.5628,-0.8014,0.0582
1.1380,-0.5711,-0.7974,0.0613
1.1380,-0.5711,-0.7974,0.0613
1.1380,-0.5711,-0.7974,0.0613
1.1580,-0.5728,-0.7908,0.0762
1.1580,-0.5728,-0.7908,0.0762
1.1580,-0.5728,-0.7908,0.0762
1.1590,-0.5728,-0.7908,0.0762
1.1590,-0.5728,-0.7908,0.0762
1.1770,-0.5707,-0.7869,0.0660
1.2160,-0.5707,-0.7869,0.0660
1.2170,-0.5707,-0.7869,0.0660
1.2170,-0.5601,-0.7896,0.0626
1.2170,-0.5601,-0.7896,0.0626
1.2170,-0.5601,-0.7896,0.0626
1.2170,-0.5665,-0.7955,0.0569
1.2170,-0.5665,-0.7955,0.0569
1.2170,-0.5665,-0.7955,0.0569
1.2370,-0.5731,-0.7962,0.0738
1.2370,-0.5731,-0.7962,0.0738
1.2380,-0.5731,-0.7962,0.0738
1.2400,-0.5731,-0.7962,0.0738
1.2400,-0.5731,-0.7962,0.0738
1.2570,-0.5755,-0.7901,0.0758
1.2570,-0.5755,-0.7901,0.0758
1.2570,-0.5755,-0.7901,0.0758
1.2680,-0.5755,-0.7901,0.0758
1.2780,-0.5851,-0.7938,0.0587
1.2780,-0.5851,-0.7938,0.0587
1.2780,-0.5851,-0.7938,0.0587
1.2800,-0.5851,-0.7938,0.0587
1.2970,-0.5956,-0.7987,0.0633
1.2980,-0.5956,-0.7987,0.0633
1.2980,-0.5956,-0.7987,0.0633
1.3170,-0.5816,-0.7962,0.0858
1.3170,-0.5816,-0.7962,0.0858
1.3170,-0.5816,-0.7962,0.0858
1.3190,-0.5816,-0.7962,0.0858
1.3190,-0.5816,-0.7962,0.0858
1.3370,-0.5743,-0.7938,0.0826
1.3370,-0.5743,-0.7938,0.0826
1.3380,-0.5743,-0.7938,0.0826
1.3570,-0.5699,-0.7943,0.0750
1.3570,-0.5699,-0.7943,0.0750
1.3570,-0.5699,-0.7943,0.0750
1.3760,-0.5809,-0.7957,0.0640
1.3760,-0.5809,-0.7957,0.0640
1.3760,-0.5809,-0.7957,0.0640
1.3960,-0.5966,-0.8038,0.0809
1.3960,-0.5966,-0.8038,0.0809
1.3970,-0.5966,-0.8038,0.0809
1.3980,-0.5966,-0.8038,0.0809
1.3980,-0.5966,-0.8038,0.0809
1.4160,-0.5863,-0.7977,0.0794
1.4160,-0.5863,-0.7977,0.0794
1.4170,-0.5863,-0.7977,0.0794
1.4360,-0.5562,-0.7894,0.0723
1.4370,-0.5562,-0.7894,0.0723
1.4370,-0.5562,-0.7894,0.0723
1.4550,-0.5589,-0.7882,0.0806
1.4560,-0.5589,-0.7882,0.0806
1.4560,-0.5589,-0.7882,0.0806
1.4750,-0.5650,-0.7798,0.0591
1.4760,-0.5650,-0.7798,0.0591
1.4760,-0.5650,-0.7798,0.0591
1.4770,-0.5650,-0.7798,0.0591
1.4770,-0.5650,-0.7798,0.0591
1.4790,-0.5650,-0.7798,0.0591
1.5000,-0.5765,-0.7857,0.0501
1.5000,-0.5765,-0.7857,0.0501
1.5000,-0.5765,-0.7857,0.0501
1.5160,-0.5831,-0.7857,0.0535
1.5160,-0.5831,-0.7857,0.0535
1.5160,-0.5831,-0.7857,0.0535
1.5350,-0.5746,-0.7786,0.0689
1.5350,-0.5746,-0.7786,0.0689
1.5350,-0.5746,-0.7786,0.0689
1.5550,-0.5816,-0.7820,0.0733
1.5560,-0.5816,-0.7820,0.0733
1.5560,-0.5816,-0.7820,0.0733
1.5570,-0.5816,-0.7820,0.0733
1.5570,-0.5816,-0.7820,0.0733
1.5750,-0.5843,-0.7840,0.0782
1.5750,-0.5843,-0.7840,0.0782
1.5750,-0.5843,-0.7840,0.0782
1.5950,-0.5807,-0.7816,0.0601
1.5960,-0.5807,-0.7816,0.0601
1.5960,-0.5807,-0.7816,0.0601
1.6150,-0.5623,-0.7877,0.0577
1.6150,-0.5623,-0.7877,0.0577
1.6150,-0.5623,-0.7877,0.0577
1.6350,-0.5748,-0.7884,0.0709
1.6360,-0.5748,-0.7884,0.0709
1.6360,-0.5748,-0.7884,0.0709
1.6360,-0.5748,-0.7884,0.0709
1.6360,-0.5748,-0.7884,0.0709
1.6540,-0.5863,-0.7813,0.0714
1.6550,-0.5863,-0.7813,0.0714
1.6550,-0.5863,-0.7813,0.0714
1.6660,-0.5863,-0.7813,0.0714
1.6770,-0.5821,-0.7879,0.0760
1.6780,-0.5821,-0.7879,0.0760
1.6780,-0.5821,-0.7879,0.0760
1.6800,-0.5821,-0.7879,0.0760
1.6970,-0.5736,-0.7926,0.0850
1.6970,-0.5736,-0.7926,0.0850
1.6980,-0.5736,-0.7926,0.0850
1.7170,-0.5753,-0.7911,0.0799
1.7200,-0.5753,-0.7911,0.0799
1.7210,-0.5753,-0.7911,0.0799
1.7790,-0.5753,-0.7911,0.0799
1.7790,-0.5753,-0.7911,0.0799
1.7790,-0.5697,-0.7896,0.0748
1.7800,-0.5697,-0.7896,0.0748
1.7800,-0.5697,-0.7896,0.0748
1.7800,-0.5711,-0.7945,0.0694
1.7800,-0.5711,-0.7945,0.0694
1.7800,-0.5711,-0.7945,0.0694
1.7810,-0.5733,-0.7921,0.0758
1.7810,-0.5733,-0.7921,0.0758
1.7810,-0.5733,-0.7921,0.0758
1.7940,-0.5772,-0.7930,0.0753
1.7940,-0.5772,-0.7930,0.0753
1.7940,-0.5772,-0.7930,0.0753
1.7960,-0.5772,-0.7930,0.0753
1.7960,-0.5772,-0.7930,0.0753
1.8140,-0.5812,-0.7979,0.0609
1.8150,-0.5812,-0.7979,0.0609
1.8150,-0.5812,-0.7979,0.0609
1.8350,-0.5750,-0.8060,0.0584
1.8350,-0.5750,-0.8060,0.0584
1.8350,-0.5750,-0.8060,0.0584
1.8550,-0.5648,-0.7989,0.0792
1.8550,-0.5648,-0.7989,0.0792
1.8560,-0.5648,-0.7989,0.0792
1.8730,-0.5675,-0.7862,0.0806
1.8730,-0.5675,-0.7862,0.0806
1.8730,-0.5675,-0.7862,0.0806
1.8750,-0.5675,-0.7862,0.0806
1.8760,-0.5675,-0.7862,0.0806
1.8780,-0.5675,-0.7862,0.0806
1.8940,-0.5790,-0.7820,0.0824
1.8940,-0.5790,-0.7820,0.0824
1.8940,-0.5790,-0.7820,0.0824
1.9160,-0.5765,-0.7886,0.0831
1.9160,-0.5765,-0.7886,0.0831
1.9160,-0.5765,-0.7886,0.0831
1.9350,-0.5785,-0.7938,0.0640
1.9350,-0.5785,-0.7938,0.0640
1.9350,-0.5785,-0.7938,0.0640
1.9540,-0.5763,-0.7867,0.0784
1.9540,-0.5763,-0.7867,0.0784
1.9540,-0.5763,-0.7867,0.0784
1.9560,-0.5763,-0.7867,0.0784
1.9560,-0.5763,-0.7867,0.0784
1.9730,-0.5780,-0.7825,0.0755
1.9740,-0.5780,-0.7825,0.0755
1.9740,-0.5780,-0.7825,0.0755
1.9950,-0.5792,-0.7886,0.0753
1.9950,-0.5792,-0.7886,0.0753
1.9950,-0.5792,-0.7886,0.0753
2.0140,-0.5685,-0.7940,0.0850
2.0140,-0.5685,-0.7940,0.0850
2.0150,-0.5685,-0.7940,0.0850
2.0350,-0.5682,-0.7908,0.0833
2.0360,-0.5682,-0.7908,0.0833
2.0400,-0.5682,-0.7908,0.0833
2.0420,-0.5682,-0.7908,0.0833
2.0420,-0.5682,-0.7908,0.0833
2.0550,-0.5848,-0.7911,0.0780
2.0550,-0.5848,-0.7911,0.0780
2.0560,-0.5848,-0.7911,0.0780
2.0760,-0.5785,-0.7916,0.0804
2.0770,-0.5785,-0.7916,0.0804
2.0780,-0.5785,-0.7916,0.0804
2.0790,-0.5785,-0.7916,0.0804
2.0940,-0.5743,-0.7955,0.0738
2.0940,-0.5743,-0.7955,0.0738
2.0960,-0.5743,-0.7955,0.0738
2.1150,-0.5755,-0.7891,0.0784
2.1160,-0.5755,-0.7891,0.0784
2.1160,-0.5755,-0.7891,0.0784
2.1170,-0.5755,-0.7891,0.0784
2.1180,-0.5755,-0.7891,0.0784
2.1340,-0.5711,-0.7825,0.0762
2.1340,-0.5711,-0.7825,0.0762
2.1350,-0.5711,-0.7825,0.0762
2.1560,-0.5660,-0.7813,0.0762
2.1570,-0.5660,-0.7813,0.0762
2.1570,-0.5660,-0.7813,0.0762
2.1760,-0.5750,-0.7830,0.0753
2.1770,-0.5750,-0.7830,0.0753
2.1770,-0.5750,-0.7830,0.0753
2.1950,-0.5816,-0.7872,0.0772
2.1960,-0.5816,-0.7872,0.0772
2.1970,-0.5816,-0.7872,0.0772
2.1970,-0.5816,-0.7872,0.0772
2.1990,-0.5816,-0.7872,0.0772
2.2140,-0.5770,-0.7879,0.0846
2.2150,-0.5770,-0.7879,0.0846
2.2150,-0.5770,-0.7879,0.0846
2.2350,-0.5660,-0.7825,0.0789
2.2360,-0.5660,-0.7825,0.0789
2.2370,-0.5660,-0.7825,0.0789
2.2550,-0.5628,-0.7820,0.0650
2.2560,-0.5628,-0.7820,0.0650
2.2560,-0.5628,-0.7820,0.0650
2.2740,-0.5491,-0.7950,0.0721
2.2740,-0.5491,-0.7950,0.0721
2.2750,-0.5491,-0.7950,0.0721
2.3530,-0.5491,-0.7950,0.0721
2.3540,-0.5491,-0.7950,0.0721
2.3540,-0.5491,-0.7950,0.0721
2.3540,-0.5628,-0.7979,0.0675
2.3540,-0.5628,-0.7979,0.0675
2.3550,-0.5628,-0.7979,0.0675
2.3550,-0.5777,-0.7972,0.0777
2.3550,-0.5777,-0.7972,0.0777
2.3560,-0.5777,-0.7972,0.0777
2.3560,-0.5755,-0.7987,0.0931
2.3570,-0.5755,-0.7987,0.0931
2.3570,-0.5755,-0.7987,0.0931
2.3570,-0.5716,-0.7916,0.0897
2.3580,-0.5716,-0.7916,0.0897
2.3580,-0.5716,-0.7916,0.0897
2.3590,-0.5716,-0.7916,0.0897
2.3590,-0.5716,-0.7916,0.0897
2.3710,-0.5663,-0.7928,0.0831
2.3720,-0.5663,-0.7928,0.0831
2.3720,-0.5663,-0.7928,0.0831
2.3910,-0.5665,-0.8036,0.0848
2.3920,-0.5665,-0.8036,0.0848
2.3920,-0.5665,-0.8036,0.0848
2.4100,-0.5604,-0.8062,0.0780
2.4110,-0.5604,-0.8062,0.0780
2.4110,-0.5604,-0.8062,0.0780
2.4300,-0.5663,-0.7970,0.0836
2.4300,-0.5663,-0.7970,0.0836
2.4300,-0.5663,-0.7970,0.0836
2.4320,-0.5663,-0.7970,0.0836
2.4330,-0.5663,-0.7970,0.0836
2.4500,-0.5724,-0.7987,0.0838
2.4500,-0.5724,-0.7987,0.0838
2.4500,-0.5724,-0.7987,0.0838
2.4590,-0.5724,-0.7987,0.0838
2.4710,-0.5604,-0.8038,0.0797
2.4710,-0.5604,-0.8038,0.0797
2.4720,-0.5604,-0.8038,0.0797
2.4720,-0.5604,-0.8038,0.0797
2.4940,-0.5560,-0.7955,0.0797
2.4940,-0.5560,-0.7955,0.0797
2.4940,-0.5560,-0.7955,0.0797
2.5110,-0.5626,-0.7901,0.0758
2.5110,-0.5626,-0.7901,0.0758
2.5120,-0.5626,-0.7901,0.0758
2.5120,-0.5626,-0.7901,0.0758
2.5120,-0.5626,-0.7901,0.0758
2.5330,-0.5814,-0.7921,0.0682
2.5330,-0.5814,-0.7921,0.0682
2.5330,-0.5814,-0.7921,0.0682
2.5520,-0.5970,-0.7908,0.0853
2.5520,-0.5970,-0.7908,0.0853
2.5520,-0.5970,-0.7908,0.0853
2.5720,-0.5782,-0.7884,0.0833
2.5730,-0.5782,-0.7884,0.0833
2.5730,-0.5782,-0.7884,0.0833
2.5920,-0.5643,-0.7940,0.0706
2.5920,-0.5643,-0.7940,0.0706
2.5920,-0.5643,-0.7940,0.0706
2.5930,-0.5643,-0.7940,0.0706
2.5930,-0.5643,-0.7940,0.0706
2.6110,-0.5736,-0.7979,0.0689
2.6110,-0.5736,-0.7979,0.0689
2.6110,-0.5736,-0.7979,0.0689
2.6340,-0.5636,-0.7952,0.0858
2.6350,-0.5636,-0.7952,0.0858
2.6360,-0.5636,-0.7952,0.0858
2.6520,-0.5511,-0.7948,0.0804
2.6520,-0.5511,-0.7948,0.0804
2.6530,-0.5511,-0.7948,0.0804
2.6600,-0.5511,-0.7948,0.0804
2.6720,-0.5572,-0.7948,0.0765
2.6730,-0.5572,-0.7948,0.0765
2.6740,-0.5572,-0.7948,0.0765
2.6740,-0.5572,-0.7948,0.0765
2.6750,-0.5572,-0.7948,0.0765
2.6760,-0.5572,-0.7948,0.0765
2.6920,-0.5584,-0.7911,0.0738
2.6920,-0.5584,-0.7911,0.0738
2.6950,-0.5584,-0.7911,0.0738
2.7110,-0.5540,-0.7921,0.0750
2.7110,-0.5540,-0.7921,0.0750
2.7120,-0.5540,-0.7921,0.0750
2.7310,-0.5611,-0.7886,0.0819
2.7310,-0.5611,-0.7886,0.0819
2.7320,-0.5611,-0.7886,0.0819
2.7500,-0.5592,-0.7852,0.0809
2.7510,-0.5592,-0.7852,0.0809
2.7510,-0.5592,-0.7852,0.0809
2.7520,-0.5592,-0.7852,0.0809
2.7570,-0.5592,-0.7852,0.0809
2.7720,-0.5680,-0.7957,0.0784
2.7720,-0.5680,-0.7957,0.0784
2.7730,-0.5680,-0.7957,0.0784
2.7910,-0.5878,-0.8023,0.0877
2.7920,-0.5878,-0.8023,0.0877
2.7920,-0.5878,-0.8023,0.0877
2.8090,-0.5931,-0.8014,0.1117
2.8090,-0.5931,-0.8014,0.1117
2.8100,-0.5931,-0.8014,0.1117
2.8750,-0.5912,-0.8055,0.1024
2.8750,-0.5912,-0.8055,0.1024
2.8750,-0.5912,-0.8055,0.1024
2.8750,-0.5912,-0.8055,0.1024
2.8760,-0.5912,-0.8055,0.1024
2.8760,-0.5804,-0.8038,0.0670
2.8760,-0.5804,-0.8038,0.0670
2.8760,-0.5804,-0.8038,0.0670
2.8770,-0.5501,-0.7962,0.0599
2.8770,-0.5501,-0.7962,0.0599
2.8770,-0.5501,-0.7962,0.0599
2.8770,-0.5501,-0.7962,0.0599
2.8880,-0.5528,-0.7820,0.0533
2.8880,-0.5528,-0.7820,0.0533
2.8880,-0.5528,-0.7820,0.0533
2.9090,-0.5579,-0.7779,0.0589
2.9090,-0.5579,-0.7779,0.0589
2.9090,-0.5579,-0.7779,0.0589
2.9110,-0.5579,-0.7779,0.0589
2.9110,-0.5579,-0.7779,0.0589
2.9290,-0.5494,-0.7828,0.0831
2.9290,-0.5494,-0.7828,0.0831
2.9290,-0.5494,-0.7828,0.0831
2.9500,-0.5469,-0.7911,0.0826
2.9500,-0.5469,-0.7911,0.0826
2.9510,-0.5469,-0.7911,0.0826
2.9670,-0.5452,-0.7960,0.0819
2.9670,-0.5452,-0.7960,0.0819
2.9670,-0.5452,-0.7960,0.0819
2.9870,-0.5604,-0.7916,0.0868
2.9880,-0.5604,-0.7916,0.0868
2.9880,-0.5604,-0.7916,0.0868
2.9900,-0.5604,-0.7916,0.0868
2.9900,-0.5604,-0.7916,0.0868
3.0070,-0.5741,-0.7970,0.0753
3.0070,-0.5741,-0.7970,0.0753
3.0070,-0.5741,-0.7970,0.0753
3.0270,-0.5821,-0.8021,0.0684
3.0270,-0.5821,-0.8021,0.0684
3.0280,-0.5821,-0.8021,0.0684
3.0480,-0.5912,-0.8177,0.0765
3.0480,-0.5912,-0.8177,0.0765
3.0480,-0.5912,-0.8177,0.0765
3.0550,-0.5912,-0.8177,0.0765
3.0670,-0.5653,-0.8307,0.0875
3.0670,-0.5653,-0.8307,0.0875
3.0670,-0.5653,-0.8307,0.0875
3.0680,-0.5653,-0.8307,0.0875
3.0680,-0.5653,-0.8307,0.0875
3.0680,-0.5653,-0.8307,0.0875
3.0870,-0.5584,-0.7926,0.1017
3.0870,-0.5584,-0.7926,0.1017
3.0870,-0.5584,-0.7926,0.1017
3.1080,-0.5692,-0.7940,0.0902
3.1080,-0.5692,-0.7940,0.0902
3.1080,-0.5692,-0.7940,0.0902
3.1280,-0.5565,-0.8028,0.0694
3.1280,-0.5565,-0.8028,0.0694
3.1310,-0.5565,-0.8028,0.0694
3.1510,-0.5577,-0.7921,0.0738
3.1520,-0.5577,-0.7921,0.0738
3.1520,-0.5577,-0.7921,0.0738
3.1520,-0.5577,-0.7921,0.0738
3.1520,-0.5577,-0.7921,0.0738
3.1670,-0.5758,-0.7803,0.0611
3.1680,-0.5758,-0.7803,0.0611
3.1680,-0.5758,-0.7803,0.0611
3.1890,-0.5856,-0.7642,0.0904
3.1890,-0.5856,-0.7642,0.0904
3.1900,-0.5856,-0.7642,0.0904
3.2060,-0.5641,-0.7928,0.0814
3.2070,-0.5641,-0.7928,0.0814
3.2070,-0.5641,-0.7928,0.0814
3.2290,-0.5367,-0.8219,0.0538
3.2290,-0.5367,-0.8219,0.0538
3.2290,-0.5367,-0.8219,0.0538
3.2300,-0.5367,-0.8219,0.0538
3.2300,-0.5367,-0.8219,0.0538
3.2470,-0.5499,-0.8182,0.0709
3.2480,-0.5499,-0.8182,0.0709
3.2480,-0.5499,-0.8182,0.0709
3.2570,-0.5499,-0.8182,0.0709
3.2700,-0.5677,-0.8028,0.0880
3.2710,-0.5677,-0.8028,0.0880
3.2710,-0.5677,-0.8028,0.0880
3.2710,-0.5677,-0.8028,0.0880
3.2880,-0.5711,-0.7967,0.0882
3.2880,-0.5711,-0.7967,0.0882
3.2890,-0.5711,-0.7967,0.0882
3.3070,-0.5719,-0.7965,0.0794
3.3090,-0.5719,-0.7965,0.0794
3.3090,-0.5719,-0.7965,0.0794
3.3100,-0.5719,-0.7965,0.0794
3.3100,-0.5719,-0.7965,0.0794
3.3270,-0.5663,-0.7996,0.0860
3.3270,-0.5663,-0.7996,0.0860
3.3280,-0.5663,-0.7996,0.0860
3.3480,-0.5567,-0.7928,0.0762
3.3480,-0.5567,-0.7928,0.0762
3.3490,-0.5567,-0.7928,0.0762
3.4180,-0.5601,-0.7918,0.0706
3.4180,-0.5601,-0.7918,0.0706
3.4180,-0.5601,-0.7918,0.0706
3.4180,-0.5682,-0.8036,0.0960
3.4190,-0.5682,-0.8036,0.0960
3.4190,-0.5682,-0.8036,0.0960
3.4190,-0.5682,-0.8036,0.0960
3.4190,-0.5682,-0.8036,0.0960
3.4190,-0.5545,-0.8106,0.1200
3.4190,-0.5545,-0.8106,0.1200
3.4200,-0.5545,-0.8106,0.1200
3.4350,-0.5526,-0.8087,0.0990
3.4350,-0.5526,-0.8087,0.0990
3.4360,-0.5526,-0.8087,0.0990
3.4440,-0.5582,-0.8067,0.0662
3.4440,-0.5582,-0.8067,0.0662
3.4440,-0.5582,-0.8067,0.0662
3.4640,-0.5521,-0.8045,0.0697
3.4640,-0.5521,-0.8045,0.0697
3.4650,-0.5521,-0.8045,0.0697
3.4660,-0.5521,-0.8045,0.0697
3.4670,-0.5521,-0.8045,0.0697
3.4670,-0.5521,-0.8045,0.0697
3.4840,-0.5658,-0.7830,0.0638
3.4850,-0.5658,-0.7830,0.0638
3.4850,-0.5658,-0.7830,0.0638
3.5060,-0.5716,-0.7698,0.0506
3.5060,-0.5716,-0.7698,0.0506
3.5070,-0.5716,-0.7698,0.0506
3.5250,-0.5543,-0.7818,0.0594
3.5260,-0.5543,-0.7818,0.0594
3.5260,-0.5543,-0.7818,0.0594
3.5450,-0.5501,-0.7908,0.0748
3.5450,-0.5501,-0.7908,0.0748
3.5460,-0.5501,-0.7908,0.0748
3.5470,-0.5501,-0.7908,0.0748
3.5470,-0.5501,-0.7908,0.0748
3.5630,-0.5513,-0.7948,0.0865
3.5630,-0.5513,-0.7948,0.0865
3.5640,-0.5513,-0.7948,0.0865
3.5840,-0.5743,-0.8033,0.0907
3.5840,-0.5743,-0.8033,0.0907
3.5840,-0.5743,-0.8033,0.0907
3.6030,-0.5846,-0.8080,0.0987
3.6030,-0.5846,-0.8080,0.0987
3.6040,-0.5846,-0.8080,0.0987
3.6230,-0.5760,-0.8094,0.0899
3.6230,-0.5760,-0.8094,0.0899
3.6230,-0.5760,-0.8094,0.0899
3.6280,-0.5760,-0.8094,0.0899
3.6280,-0.5760,-0.8094,0.0899
3.6420,-0.5733,-0.7989,0.0836
3.6430,-0.5733,-0.7989,0.0836
3.6430,-0.5733,-0.7989,0.0836
3.6630,-0.5533,-0.7979,0.0682
3.6640,-0.5533,-0.7979,0.0682
3.6640,-0.5533,-0.7979,0.0682
3.6640,-0.5533,-0.7979,0.0682
3.6820,-0.5516,-0.7916,0.0675
3.6820,-0.5516,-0.7916,0.0675
3.6820,-0.5516,-0.7916,0.0675
3.7030,-0.5540,-0.7904,0.0882
3.7030,-0.5540,-0.7904,0.0882
3.7040,-0.5540,-0.7904,0.0882
3.7050,-0.5540,-0.7904,0.0882
3.7060,-0.5540,-0.7904,0.0882
3.7230,-0.5621,-0.8016,0.0921
3.7230,-0.5621,-0.8016,0.0921
3.7230,-0.5621,-0.8016,0.0921
3.7440,-0.5601,-0.7904,0.1017
3.7440,-0.5601,-0.7904,0.1017
3.7440,-0.5601,-0.7904,0.1017
3.7640,-0.5785,-0.7943,0.0960
3.7640,-0.5785,-0.7943,0.0960
3.7650,-0.5785,-0.7943,0.0960
3.7850,-0.6022,-0.8040,0.0914
3.7850,-0.6022,-0.8040,0.0914
3.7860,-0.6022,-0.8040,0.0914
3.7860,-0.6022,-0.8040,0.0914
3.7860,-0.6022,-0.8040,0.0914
3.8040,-0.5904,-0.8104,0.0904
3.8040,-0.5904,-0.8104,0.0904
3.8040,-0.5904,-0.8104,0.0904
3.8240,-0.5816,-0.7948,0.0697
3.8250,-0.5816,-0.7948,0.0697
3.8250,-0.5816,-0.7948,0.0697
3.8420,-0.5829,-0.7781,0.0310
3.8430,-0.5829,-0.7781,0.0310
3.8440,-0.5829,-0.7781,0.0310
3.8640,-0.5829,-0.7781,0.0310
3.8650,-0.5650,-0.7923,0.0445
3.8660,-0.5650,-0.7923,0.0445
3.8660,-0.5650,-0.7923,0.0445
3.8670,-0.5650,-0.7923,0.0445
3.8670,-0.5650,-0.7923,0.0445
3.8820,-0.5443,-0.7957,0.0657
3.8830,-0.5443,-0.7957,0.0657
3.8840,-0.5443,-0.7957,0.0657
3.9020,-0.5386,-0.7757,0.0594
3.9030,-0.5386,-0.7757,0.0594
3.9620,-0.5386,-0.7757,0.0594
3.9620,-0.5599,-0.7706,0.0621
3.9620,-0.5599,-0.7706,0.0621
3.9620,-0.5599,-0.7706,0.0621
3.9620,-0.5667,-0.7911,0.0748
3.9620,-0.5667,-0.7911,0.0748
3.9630,-0.5667,-0.7911,0.0748
3.9630,-0.5667,-0.7911,0.0748
3.9630,-0.5667,-0.7911,0.0748
3.9630,-0.5650,-0.7999,0.0870
3.9640,-0.5650,-0.7999,0.0870
3.9640,-0.5650,-0.7999,0.0870
3.9810,-0.5741,-0.7877,0.1061
3.9810,-0.5741,-0.7877,0.1061
3.9810,-0.5741,-0.7877,0.1061
4.0020,-0.6063,-0.7938,0.1158
4.0020,-0.6063,-0.7938,0.1158
4.0020,-0.6063,-0.7938,0.1158
4.0210,-0.5728,-0.8168,0.0934
4.0210,-0.5728,-0.8168,0.0934
4.0210,-0.5728,-0.8168,0.0934
4.0220,-0.5728,-0.8168,0.0934
4.0230,-0.5728,-0.8168,0.0934
4.0420,-0.5841,-0.8177,0.0833
4.0420,-0.5841,-0.8177,0.0833
4.0420,-0.5841,-0.8177,0.0833
4.0610,-0.5841,-0.8177,0.0833
4.0610,-0.5890,-0.8033,0.1017
4.0610,-0.5890,-0.8033,0.1017
4.0610,-0.5890,-0.8033,0.1017
4.0820,-0.5555,-0.7906,0.0929
4.0820,-0.5555,-0.7906,0.0929
4.0830,-0.5555,-0.7906,0.0929
4.1010,-0.5633,-0.7816,0.0758
4.1010,-0.5633,-0.7816,0.0758
4.1020,-0.5633,-0.7816,0.0758
4.1020,-0.5633,-0.7816,0.0758
4.1210,-0.5755,-0.7823,0.0863
4.1210,-0.5755,-0.7823,0.0863
4.1210,-0.5755,-0.7823,0.0863
4.1410,-0.5557,-0.7923,0.0762
4.1410,-0.5557,-0.7923,0.0762
4.1410,-0.5557,-0.7923,0.0762
4.1600,-0.5465,-0.7950,0.0831
4.1610,-0.5465,-0.7950,0.0831
4.1610,-0.5465,-0.7950,0.0831
4.1840,-0.5755,-0.7989,0.0992
4.1840,-0.5755,-0.7989,0.0992
4.1850,-0.5755,-0.7989,0.0992
4.1850,-0.5755,-0.7989,0.0992
4.1850,-0.5755,-0.7989,0.0992
4.2000,-0.5799,-0.7943,0.0943
4.2000,-0.5799,-0.7943,0.0943
4.2000,-0.5799,-0.7943,0.0943
4.2190,-0.5628,-0.7840,0.0794
4.2190,-0.5628,-0.7840,0.0794
4.2200,-0.5628,-0.7840,0.0794
4.2390,-0.5670,-0.7916,0.0508
4.2390,-0.5670,-0.7916,0.0508
4.2390,-0.5670,-0.7916,0.0508
4.2580,-0.5670,-0.7916,0.0508
4.2590,-0.5834,-0.7845,0.0550
4.2600,-0.5834,-0.7845,0.0550
4.2600,-0.5834,-0.7845,0.0550
4.2620,-0.5834,-0.7845,0.0550
4.2620,-0.5834,-0.7845,0.0550
4.2790,-0.5750,-0.7667,0.0797
4.2790,-0.5750,-0.7667,0.0797
4.2790,-0.5750,-0.7667,0.0797
4.3000,-0.5582,-0.7667,0.0736
4.3000,-0.5582,-0.7667,0.0736
4.3000,-0.5582,-0.7667,0.0736
4.3200,-0.5584,-0.7840,0.0626
4.3200,-0.5584,-0.7840,0.0626
4.3200,-0.5584,-0.7840,0.0626
4.3390,-0.5641,-0.7916,0.0699
4.3390,-0.5641,-0.7916,0.0699
4.3400,-0.5641,-0.7916,0.0699
4.3420,-0.5641,-0.7916,0.0699
4.3420,-0.5641,-0.7916,0.0699
4.3600,-0.5777,-0.7757,0.0709
4.3600,-0.5777,-0.7757,0.0709
4.3600,-0.5777,-0.7757,0.0709
4.3790,-0.5851,-0.7818,0.0711
4.3790,-0.5851,-0.7818,0.0711
4.3790,-0.5851,-0.7818,0.0711
4.3990,-0.6132,-0.7982,0.0814
4.3990,-0.6132,-0.7982,0.0814
4.3990,-0.6132,-0.7982,0.0814
4.4190,-0.5887,-0.7882,0.1019
4.4190,-0.5887,-0.7882,0.1019
4.4190,-0.5887,-0.7882,0.1019
4.4220,-0.5887,-0.7882,0.1019
4.4220,-0.5887,-0.7882,0.1019
4.4390,-0.5714,-0.7774,0.0943
4.4390,-0.5714,-0.7774,0.0943
4.4390,-0.5714,-0.7774,0.0943
4.4570,-0.5714,-0.7774,0.0943
4.4590,-0.5758,-0.8109,0.0782
4.4590,-0.5758,-0.8109,0.0782
4.4850,-0.5758,-0.8109,0.0782
4.4850,-0.5526,-0.8419,0.0846
4.4860,-0.5526,-0.8419,0.0846
4.4860,-0.5526,-0.8419,0.0846
4.4980,-0.5560,-0.8050,0.1044
4.4990,-0.5560,-0.8050,0.1044
4.4990,-0.5560,-0.8050,0.1044
4.5010,-0.5560,-0.8050,0.1044
4.5010,-0.5560,-0.8050,0.1044
4.5180,-0.5787,-0.7779,0.1263
4.5180,-0.5787,-0.7779,0.1263
4.5180,-0.5787,-0.7779,0.1263
4.5380,-0.5655,-0.7869,0.1329
4.5380,-0.5655,-0.7869,0.1329
4.5380,-0.5655,-0.7869,0.1329
4.5570,-0.5755,-0.7992,0.0914
4.5570,-0.5755,-0.7992,0.0914
4.5570,-0.5755,-0.7992,0.0914
4.5770,-0.5790,-0.8009,0.0802
4.5770,-0.5790,-0.8009,0.0802
4.5770,-0.5790,-0.8009,0.0802
4.5800,-0.5790,-0.8009,0.0802
4.5800,-0.5790,-0.8009,0.0802
4.5980,-0.5858,-0.7916,0.0675
4.5980,-0.5858,-0.7916,0.0675
4.5980,-0.5858,-0.7916,0.0675
4.6180,-0.5474,-0.7740,0.0457
4.6180,-0.5474,-0.7740,0.0457
4.6180,-0.5474,-0.7740,0.0457
4.6370,-0.5509,-0.7774,0.0418
4.6370,-0.5509,-0.7774,0.0418
4.6380,-0.5509,-0.7774,0.0418
4.6560,-0.5509,-0.7774,0.0418
4.6570,-0.5672,-0.7838,0.0569
4.6570,-0.5672,-0.7838,0.0569
4.6570,-0.5672,-0.7838,0.0569
4.6600,-0.5672,-0.7838,0.0569
4.6610,-0.5672,-0.7838,0.0569
4.6770,-0.5582,-0.7855,0.0719
4.6780,-0.5582,-0.7855,0.0719
4.6780,-0.5582,-0.7855,0.0719
4.6970,-0.5733,-0.7955,0.0687
4.6970,-0.5733,-0.7955,0.0687
4.6970,-0.5733,-0.7955,0.0687
4.7170,-0.5858,-0.7982,0.0833
4.7170,-0.5858,-0.7982,0.0833
4.7170,-0.5858,-0.7982,0.0833
4.7360,-0.5699,-0.7950,0.0858
4.7370,-0.5699,-0.7950,0.0858
4.7370,-0.5699,-0.7950,0.0858
4.7390,-0.5699,-0.7950,0.0858
4.7390,-0.5699,-0.7950,0.0858
4.7560,-0.5868,-0.7877,0.0965
4.7560,-0.5868,-0.7877,0.0965
4.7570,-0.5868,-0.7877,0.0965
4.7760,-0.6063,-0.7945,0.1036
4.7760,-0.6063,-0.7945,0.1036
4.7760,-0.6063,-0.7945,0.1036
4.7970,-0.5878,-0.8121,0.0914
4.7970,-0.5878,-0.8121,0.0914
4.7970,-0.5878,-0.8121,0.0914
4.8160,-0.5733,-0.8106,0.0687
4.8160,-0.5733,-0.8106,0.0687
4.8160,-0.5733,-0.8106,0.0687
4.8200,-0.5733,-0.8106,0.0687
4.8200,-0.5733,-0.8106,0.0687
4.8360,-0.5694,-0.7970,0.0899
4.8360,-0.5694,-0.7970,0.0899
4.8370,-0.5694,-0.7970,0.0899
4.8540,-0.5694,-0.7970,0.0899
4.8570,-0.5545,-0.7745,0.0897
4.8570,-0.5545,-0.7745,0.0897
4.8570,-0.5545,-0.7745,0.0897
4.8760,-0.5455,-0.7791,0.0797
4.8770,-0.5455,-0.7791,0.0797
4.8770,-0.5455,-0.7791,0.0797
4.8960,-0.5597,-0.8082,0.0826
4.8960,-0.5597,-0.8082,0.0826
4.8970,-0.5597,-0.8082,0.0826
4.8990,-0.5597,-0.8082,0.0826
4.8990,-0.5597,-0.8082,0.0826
4.9150,-0.5775,-0.8246,0.1227
4.9160,-0.5775,-0.8246,0.1227
4.9160,-0.5775,-0.8246,0.1227
4.9360,-0.5611,-0.8148,0.1017
4.9360,-0.5611,-0.8148,0.1017
4.9360,-0.5611,-0.8148,0.1017
4.9550,-0.5533,-0.7928,0.0550
4.9560,-0.5533,-0.7928,0.0550
4.9560,-0.5533,-0.7928,0.0550
4.9760,-0.5870,-0.7720,0.0606
4.9770,-0.5870,-0.7720,0.0606
4.9770,-0.5870,-0.7720,0.0606
4.9790,-0.5870,-0.7720,0.0606
4.9790,-0.5870,-0.7720,0.0606
4.9950,-0.5875,-0.7757,0.0682
4.9960,-0.5875,-0.7757,0.0682
4.9960,-0.5875,-0.7757,0.0682
5.0160,-0.5609,-0.7884,0.0665
5.0160,-0.5609,-0.7884,0.0665
5.0540,-0.5609,-0.7884,0.0665
5.0540,-0.5301,-0.7835,0.0704
5.0540,-0.5301,-0.7835,0.0704
5.0540,-0.5301,-0.7835,0.0704
5.0540,-0.5301,-0.7835,0.0704
5.0540,-0.5301,-0.7835,0.0704
5.0550,-0.5367,-0.7972,0.0782
5.0550,-0.5367,-0.7972,0.0782
5.0550,-0.5367,-0.7972,0.0782
5.0580,-0.5367,-0.7972,0.0782
5.0580,-0.5367,-0.7972,0.0782
5.0760,-0.5511,-0.8031,0.0909
5.0760,-0.5511,-0.8031,0.0909
5.0760,-0.5511,-0.8031,0.0909
5.0950,-0.5724,-0.7972,0.0875
5.0950,-0.5724,-0.7972,0.0875
5.0950,-0.5724,-0.7972,0.0875
5.1140,-0.5973,-0.7979,0.1044
5.1150,-0.5973,-0.7979,0.1044
5.1150,-0.5973,-0.7979,0.1044
5.1340,-0.5980,-0.7977,0.1132
5.1340,-0.5980,-0.7977,0.1132
5.1340,-0.5980,-0.7977,0.1132
5.1370,-0.5980,-0.7977,0.1132
5.1370,-0.5980,-0.7977,0.1132
5.1550,-0.5787,-0.8011,0.0987
5.1550,-0.5787,-0.8011,0.0987
5.1560,-0.5787,-0.8011,0.0987
5.1750,-0.5719,-0.7945,0.0926
5.1750,-0.5719,-0.7945,0.0926
5.1750,-0.5719,-0.7945,0.0926
5.1930,-0.5562,-0.7857,0.0914
5.1940,-0.5562,-0.7857,0.0914
5.1940,-0.5562,-0.7857,0.0914
5.2140,-0.5523,-0.7950,0.0726
5.2140,-0.5523,-0.7950,0.0726
5.2140,-0.5523,-0.7950,0.0726
5.2160,-0.5523,-0.7950,0.0726
5.2160,-0.5523,-0.7950,0.0726
5.2340,-0.5809,-0.7955,0.0591
5.2340,-0.5809,-0.7955,0.0591
5.2340,-0.5809,-0.7955,0.0591
5.2380,-0.5809,-0.7955,0.0591
5.2500,-0.5809,-0.7955,0.0591
5.2530,-0.5848,-0.7803,0.0606
5.2530,-0.5848,-0.7803,0.0606
5.2530,-0.5848,-0.7803,0.0606
5.2730,-0.5768,-0.7745,0.0501
5.2730,-0.5768,-0.7745,0.0501
5.2750,-0.5768,-0.7745,0.0501
5.2940,-0.5763,-0.7718,0.0631
5.2940,-0.5763,-0.7718,0.0631
5.2940,-0.5763,-0.7718,0.0631
5.2960,-0.5763,-0.7718,0.0631
5.2960,-0.5763,-0.7718,0.0631
5.3140,-0.5565,-0.7730,0.0828
5.3140,-0.5565,-0.7730,0.0828
5.3140,-0.5565,-0.7730,0.0828
5.3320,-0.5455,-0.7901,0.0919
5.3320,-0.5455,-0.7901,0.0919
5.3330,-0.5455,-0.7901,0.0919
5.3520,-0.5594,-0.7962,0.1154
5.3520,-0.5594,-0.7962,0.1154
5.3530,-0.5594,-0.7962,0.1154
5.3720,-0.5846,-0.7933,0.1178
5.3730,-0.5846,-0.7933,0.1178
5.3730,-0.5846,-0.7933,0.1178
5.3750,-0.5846,-0.7933,0.1178
5.3750,-0.5846,-0.7933,0.1178
5.3920,-0.6122,-0.8001,0.0929
5.3920,-0.6122,-0.8001,0.0929
5.3930,-0.6122,-0.8001,0.0929
5.4120,-0.5768,-0.7979,0.0765
5.4120,-0.5768,-0.7979,0.0765
5.4130,-0.5768,-0.7979,0.0765
5.4320,-0.5836,-0.7940,0.0855
5.4330,-0.5836,-0.7940,0.0855
5.4330,-0.5836,-0.7940,0.0855
5.4360,-0.5836,-0.7940,0.0855
5.4490,-0.5836,-0.7940,0.0855
5.4520,-0.5753,-0.7808,0.0701
5.4520,-0.5753,-0.7808,0.0701
5.4530,-0.5753,-0.7808,0.0701
5.4550,-0.5753,-0.7808,0.0701
5.4550,-0.5753,-0.7808,0.0701
5.4720,-0.5601,-0.7784,0.0770
5.4720,-0.5601,-0.7784,0.0770
5.4720,-0.5601,-0.7784,0.0770
5.4920,-0.5797,-0.7904,0.1024
5.4920,-0.5797,-0.7904,0.1024
5.4920,-0.5797,-0.7904,0.1024
5.5120,-0.5565,-0.8021,0.1063
5.5120,-0.5565,-0.8021,0.1063
5.5120,-0.5565,-0.8021,0.1063
5.5340,-0.5606,-0.8143,0.0843
5.5350,-0.5606,-0.8143,0.0843
5.5350,-0.5606,-0.8143,0.0843
5.5350,-0.5606,-0.8143,0.0843
5.5350,-0.5606,-0.8143,0.0843
5.5530,-0.5413,-0.8136,0.0731
5.5990,-0.5413,-0.8136,0.0731
5.5990,-0.5413,-0.8136,0.0731
5.6000,-0.5841,-0.7955,0.0853
5.6000,-0.5841,-0.7955,0.0853
5.6000,-0.5841,-0.7955,0.0853
5.6000,-0.5956,-0.7791,0.0758
5.6000,-0.5956,-0.7791,0.0758
5.6000,-0.5956,-0.7791,0.0758
5.6120,-0.5714,-0.7860,0.0486
5.6130,-0.5714,-0.7860,0.0486
5.6130,-0.5714,-0.7860,0.0486
5.6170,-0.5714,-0.7860,0.0486
5.6170,-0.5714,-0.7860,0.0486
5.6330,-0.5714,-0.7906,0.0508
5.6330,-0.5714,-0.7906,0.0508
5.6330,-0.5714,-0.7906,0.0508
5.6360,-0.5714,-0.7906,0.0508
5.6480,-0.5714,-0.7906,0.0508
5.6510,-0.5699,-0.7723,0.0892
5.6510,-0.5699,-0.7723,0.0892
5.6510,-0.5699,-0.7723,0.0892
5.6720,-0.5775,-0.7926,0.1063
5.6720,-0.5775,-0.7926,0.1063
5.6720,-0.5775,-0.7926,0.1063
5.6950,-0.5286,-0.8011,0.0973
5.6950,-0.5286,-0.8011,0.0973
5.6960,-0.5286,-0.8011,0.0973
5.6980,-0.5286,-0.8011,0.0973
5.6980,-0.5286,-0.8011,0.0973
5.7120,-0.5589,-0.8053,0.1058
5.7140,-0.5589,-0.8053,0.1058
5.7150,-0.5589,-0.8053,0.1058
5.7320,-0.5963,-0.8075,0.1063
5.7320,-0.5963,-0.8075,0.1063
5.7320,-0.5963,-0.8075,0.1063
5.7520,-0.5672,-0.8021,0.0811
5.7520,-0.5672,-0.8021,0.0811
5.7530,-0.5672,-0.8021,0.0811
5.7720,-0.5433,-0.7891,0.0609
5.7730,-0.5433,-0.7891,0.0609
5.7730,-0.5433,-0.7891,0.0609
5.7740,-0.5433,-0.7891,0.0609
5.7750,-0.5433,-0.7891,0.0609
5.7910,-0.5582,-0.7789,0.0472
5.7920,-0.5582,-0.7789,0.0472
5.7920,-0.5582,-0.7789,0.0472
5.8110,-0.5699,-0.7835,0.0506
5.8120,-0.5699,-0.7835,0.0506
5.8120,-0.5699,-0.7835,0.0506
5.8350,-0.5748,-0.7899,0.0653
5.8360,-0.5748,-0.7899,0.0653
5.8370,-0.5748,-0.7899,0.0653
5.8470,-0.5748,-0.7899,0.0653
5.8510,-0.5931,-0.7798,0.0899
5.8550,-0.5931,-0.7798,0.0899
5.8570,-0.5931,-0.7798,0.0899
5.8580,-0.5931,-0.7798,0.0899
5.8580,-0.5931,-0.7798,0.0899
5.8720,-0.5753,-0.7835,0.0921
5.8770,-0.5753,-0.7835,0.0921
5.8780,-0.5753,-0.7835,0.0921
5.8900,-0.5567,-0.8094,0.0963
5.8900,-0.5567,-0.8094,0.0963
5.8900,-0.5567,-0.8094,0.0963
5.9100,-0.5887,-0.8106,0.1227
5.9100,-0.5887,-0.8106,0.1227
5.9100,-0.5887,-0.8106,0.1227
5.9290,-0.5961,-0.7948,0.1141
5.9290,-0.5961,-0.7948,0.1141
5.9300,-0.5961,-0.7948,0.1141
5.9320,-0.5961,-0.7948,0.1141
5.9320,-0.5961,-0.7948,0.1141
5.9490,-0.5660,-0.7979,0.0919
5.9490,-0.5660,-0.7979,0.0919
5.9500,-0.5660,-0.7979,0.0919
5.9690,-0.5682,-0.7989,0.0863
5.9700,-0.5682,-0.7989,0.0863
5.9700,-0.5682,-0.7989,0.0863
5.9890,-0.5841,-0.7916,0.0841
5.9900,-0.5841,-0.7916,0.0841
5.9900,-0.5841,-0.7916,0.0841
6.0100,-0.5794,-0.7943,0.0824
6.0110,-0.5794,-0.7943,0.0824
6.0110,-0.5794,-0.7943,0.0824
6.0110,-0.5794,-0.7943,0.0824
6.0110,-0.5794,-0.7943,0.0824
6.0290,-0.5567,-0.7977,0.0755
6.0290,-0.5567,-0.7977,0.0755
6.0300,-0.5567,-0.7977,0.0755
6.0460,-0.5567,-0.7977,0.0755
6.0500,-0.5599,-0.8011,0.0831
6.0500,-0.5599,-0.8011,0.0831
6.0510,-0.5599,-0.8011,0.0831
6.0700,-0.5726,-0.7996,0.1080
6.0710,-0.5726,-0.7996,0.1080
6.0710,-0.5726,-0.7996,0.1080
6.0890,-0.5763,-0.8011,0.1061
6.0900,-0.5763,-0.8011,0.1061
6.0910,-0.5763,-0.8011,0.1061
6.0920,-0.5763,-0.8011,0.1061
6.1650,-0.5763,-0.8011,0.1061
6.1650,-0.5616,-0.8031,0.0909
6.1660,-0.5616,-0.8031,0.0909
6.1660,-0.5616,-0.8031,0.0909
6.1660,-0.5653,-0.7879,0.0797
6.1660,-0.5653,-0.7879,0.0797
6.1660,-0.5653,-0.7879,0.0797
6.1670,-0.5565,-0.7835,0.0662
6.1670,-0.5565,-0.7835,0.0662
6.1670,-0.5565,-0.7835,0.0662
6.1690,-0.5538,-0.7918,0.0616
6.1690,-0.5538,-0.7918,0.0616
6.1690,-0.5538,-0.7918,0.0616
6.1710,-0.5538,-0.7918,0.0616
6.1710,-0.5538,-0.7918,0.0616
6.1880,-0.5550,-0.7882,0.0714
6.1880,-0.5550,-0.7882,0.0714
6.1880,-0.5550,-0.7882,0.0714
6.2080,-0.5565,-0.7732,0.0484
6.2080,-0.5565,-0.7732,0.0484
6.2080,-0.5565,-0.7732,0.0484
6.2280,-0.5743,-0.7698,0.0657
6.2280,-0.5743,-0.7698,0.0657
6.2280,-0.5743,-0.7698,0.0657
6.2300,-0.5743,-0.7698,0.0657
6.2440,-0.5743,-0.7698,0.0657
6.2490,-0.6227,-0.7943,0.1031
6.2500,-0.6227,-0.7943,0.1031
6.2500,-0.6227,-0.7943,0.1031
6.2510,-0.6227,-0.7943,0.1031
6.2510,-0.6227,-0.7943,0.1031
6.2680,-0.5902,-0.8089,0.0938
6.2680,-0.5902,-0.8089,0.0938
6.2690,-0.5902,-0.8089,0.0938
6.2880,-0.5399,-0.7962,0.1002
6.2880,-0.5399,-0.7962,0.1002
6.2880,-0.5399,-0.7962,0.1002
6.3080,-0.5966,-0.7796,0.1085
6.3090,-0.5966,-0.7796,0.1085
6.3100,-0.5966,-0.7796,0.1085
6.3310,-0.5914,-0.7886,0.1220
6.3310,-0.5914,-0.7886,0.1220
6.3320,-0.5914,-0.7886,0.1220
6.3350,-0.5914,-0.7886,0.1220
6.3360,-0.5914,-0.7886,0.1220
6.3490,-0.5516,-0.8168,0.1061
6.3490,-0.5516,-0.8168,0.1061
6.3540,-0.5516,-0.8168,0.1061
6.3680,-0.5372,-0.8048,0.0765
6.3690,-0.5372,-0.8048,0.0765
6.3690,-0.5372,-0.8048,0.0765
6.3880,-0.5411,-0.7811,0.0689
6.3880,-0.5411,-0.7811,0.0689
6.3890,-0.5411,-0.7811,0.0689
6.4090,-0.5611,-0.7842,0.0574
6.4100,-0.5611,-0.7842,0.0574
6.4100,-0.5611,-0.7842,0.0574
6.4120,-0.5611,-0.7842,0.0574
6.4150,-0.5611,-0.7842,0.0574
6.4320,-0.5523,-0.7933,0.0704
6.4330,-0.5523,-0.7933,0.0704
6.4340,-0.5523,-0.7933,0.0704
6.4410,-0.5523,-0.7933,0.0704
6.4470,-0.5755,-0.7816,0.0887
6.4470,-0.5755,-0.7816,0.0887
6.4470,-0.5755,-0.7816,0.0887
6.4710,-0.6002,-0.7703,0.1102
6.4720,-0.6002,-0.7703,0.1102
6.4720,-0.6002,-0.7703,0.1102
6.4870,-0.5914,-0.7884,0.1117
6.4870,-0.5914,-0.7884,0.1117
6.4870,-0.5914,-0.7884,0.1117
6.4890,-0.5914,-0.7884,0.1117
6.4950,-0.5914,-0.7884,0.1117
6.5050,-0.5787,-0.8040,0.1009
6.5060,-0.5787,-0.8040,0.1009
6.5060,-0.5787,-0.8040,0.1009
6.5250,-0.5687,-0.8018,0.0968
6.5250,-0.5687,-0.8018,0.0968
6.5250,-0.5687,-0.8018,0.0968
6.5450,-0.5777,-0.7855,0.0894
6.5450,-0.5777,-0.7855,0.0894
6.5450,-0.5777,-0.7855,0.0894
6.5650,-0.5709,-0.7855,0.0828
6.5650,-0.5709,-0.7855,0.0828
6.5650,-0.5709,-0.7855,0.0828
6.5680,-0.5709,-0.7855,0.0828
6.5680,-0.5709,-0.7855,0.0828
6.5850,-0.5582,-0.7945,0.0738
6.5850,-0.5582,-0.7945,0.0738
6.5850,-0.5582,-0.7945,0.0738
6.6060,-0.5648,-0.7943,0.0753
6.6060,-0.5648,-0.7943,0.0753
6.6060,-0.5648,-0.7943,0.0753
6.6270,-0.5875,-0.7798,0.1026
6.6270,-0.5875,-0.7798,0.1026
6.6270,-0.5875,-0.7798,0.1026
6.6400,-0.5875,-0.7798,0.1026
6.6470,-0.5904,-0.7796,0.1154
6.6470,-0.5904,-0.7796,0.1154
6.6960,-0.5904,-0.7796,0.1154
6.6960,-0.5904,-0.7796,0.1154
6.6980,-0.5904,-0.7796,0.1154
6.6980,-0.5851,-0.7811,0.0943
6.7000,-0.5851,-0.7811,0.0943
6.7000,-0.5851,-0.7811,0.0943
6.7000,-0.5985,-0.7930,0.0914
6.7010,-0.5985,-0.7930,0.0914
6.7010,-0.5985,-0.7930,0.0914
6.7060,-0.5934,-0.7982,0.0743
6.7060,-0.5934,-0.7982,0.0743
6.7060,-0.5934,-0.7982,0.0743
6.7260,-0.5699,-0.7801,0.0765
6.7260,-0.5699,-0.7801,0.0765
6.7260,-0.5699,-0.7801,0.0765
6.7280,-0.5699,-0.7801,0.0765
6.7290,-0.5699,-0.7801,0.0765
6.7460,-0.5719,-0.7693,0.0958
6.7460,-0.5719,-0.7693,0.0958
6.7460,-0.5719,-0.7693,0.0958
6.7670,-0.5516,-0.7825,0.1117
6.7680,-0.5516,-0.7825,0.1117
6.7680,-0.5516,-0.7825,0.1117
6.7840,-0.5643,-0.8016,0.1007
6.7850,-0.5643,-0.8016,0.1007
6.7850,-0.5643,-0.8016,0.1007
6.8050,-0.6085,-0.8077,0.1041
6.8050,-0.6085,-0.8077,0.1041
6.8050,-0.6085,-0.8077,0.1041
6.8060,-0.6085,-0.8077,0.1041
6.8070,-0.6085,-0.8077,0.1041
6.8230,-0.5929,-0.7838,0.0936
6.8240,-0.5929,-0.7838,0.0936
6.8240,-0.5929,-0.7838,0.0936
6.8370,-0.5929,-0.7838,0.0936
6.8450,-0.5689,-0.7679,0.0660
6.8450,-0.5689,-0.7679,0.0660
6.8450,-0.5689,-0.7679,0.0660
6.8640,-0.5711,-0.7681,0.0606
6.8640,-0.5711,-0.7681,0.0606
6.8640,-0.5711,-0.7681,0.0606
6.8850,-0.5565,-0.7730,0.0677
6.8850,-0.5565,-0.7730,0.0677
6.8860,-0.5565,-0.7730,0.0677
6.8870,-0.5565,-0.7730,0.0677
6.8870,-0.5565,-0.7730,0.0677
6.9050,-0.5621,-0.7776,0.0591
6.9060,-0.5621,-0.7776,0.0591
6.9080,-0.5621,-0.7776,0.0591
6.9240,-0.5582,-0.7869,0.1012
6.9240,-0.5582,-0.7869,0.1012
6.9250,-0.5582,-0.7869,0.1012
6.9440,-0.5699,-0.7972,0.1303
6.9440,-0.5699,-0.7972,0.1303
6.9450,-0.5699,-0.7972,0.1303
6.9650,-0.5665,-0.7872,0.1317
6.9670,-0.5665,-0.7872,0.1317
6.9670,-0.5665,-0.7872,0.1317
6.9670,-0.5665,-0.7872,0.1317
6.9680,-0.5665,-0.7872,0.1317
6.9830,-0.6161,-0.7877,0.1136
6.9840,-0.6161,-0.7877,0.1136
6.9840,-0.6161,-0.7877,0.1136
7.0040,-0.6266,-0.7904,0.1102
7.0040,-0.6266,-0.7904,0.1102
7.0040,-0.6266,-0.7904,0.1102
7.0310,-0.6161,-0.7935,0.1070
7.0310,-0.6161,-0.7935,0.1070
7.0320,-0.6161,-0.7935,0.1070
7.0380,-0.6161,-0.7935,0.1070
7.0440,-0.6061,-0.7867,0.0919
7.0450,-0.6061,-0.7867,0.0919
7.0450,-0.6061,-0.7867,0.0919
7.0480,-0.6061,-0.7867,0.0919
7.0480,-0.6061,-0.7867,0.0919
7.0640,-0.5868,-0.7745,0.0789
7.0640,-0.5868,-0.7745,0.0789
7.0650,-0.5868,-0.7745,0.0789
7.0820,-0.5543,-0.7664,0.0775
7.0820,-0.5543,-0.7664,0.0775
7.0830,-0.5543,-0.7664,0.0775
7.1020,-0.5408,-0.7754,0.0716
7.1020,-0.5408,-0.7754,0.0716
7.1020,-0.5408,-0.7754,0.0716
7.1220,-0.5597,-0.7874,0.0855
7.1220,-0.5597,-0.7874,0.0855
7.1220,-0.5597,-0.7874,0.0855
7.1240,-0.5597,-0.7874,0.0855
7.1250,-0.5597,-0.7874,0.0855
7.1410,-0.5951,-0.7818,0.0958
7.1410,-0.5951,-0.7818,0.0958
7.1420,-0.5951,-0.7818,0.0958
7.1610,-0.5787,-0.7816,0.0995
7.1610,-0.5787,-0.7816,0.0995
7.1620,-0.5787,-0.7816,0.0995
7.1820,-0.5650,-0.7847,0.0902
7.1820,-0.5650,-0.7847,0.0902
7.1820,-0.5650,-0.7847,0.0902
7.2020,-0.5621,-0.7786,0.0912
7.2030,-0.5621,-0.7786,0.0912
7.2410,-0.5621,-0.7786,0.0912
7.2410,-0.5621,-0.7786,0.0912
7.2410,-0.5621,-0.7786,0.0912
7.2420,-0.5682,-0.7828,0.0782
7.2420,-0.5682,-0.7828,0.0782
7.2430,-0.5682,-0.7828,0.0782
7.2430,-0.5682,-0.7828,0.0782
7.2430,-0.5821,-0.7904,0.0804
7.2430,-0.5821,-0.7904,0.0804
7.2430,-0.5821,-0.7904,0.0804
7.2620,-0.5914,-0.7891,0.0985
7.2620,-0.5914,-0.7891,0.0985
7.2620,-0.5914,-0.7891,0.0985
7.2810,-0.5804,-0.7872,0.1007
7.2810,-0.5804,-0.7872,0.1007
7.2810,-0.5804,-0.7872,0.1007
7.2840,-0.5804,-0.7872,0.1007
7.2850,-0.5804,-0.7872,0.1007
7.3020,-0.5746,-0.7813,0.0919
7.3030,-0.5746,-0.7813,0.0919
7.3030,-0.5746,-0.7813,0.0919
7.3210,-0.5824,-0.7776,0.0980
7.3220,-0.5824,-0.7776,0.0980
7.3220,-0.5824,-0.7776,0.0980
7.3420,-0.5892,-0.7869,0.0899
7.3420,-0.5892,-0.7869,0.0899
7.3430,-0.5892,-0.7869,0.0899
7.3620,-0.6014,-0.7791,0.0995
7.3620,-0.6014,-0.7791,0.0995
7.3630,-0.6014,-0.7791,0.0995
7.3670,-0.6014,-0.7791,0.0995
7.3670,-0.6014,-0.7791,0.0995
7.3810,-0.6049,-0.7732,0.1044
7.3820,-0.6049,-0.7732,0.1044
7.3820,-0.6049,-0.7732,0.1044
7.4010,-0.5843,-0.7872,0.0863
7.4020,-0.5843,-0.7872,0.0863
7.4030,-0.5843,-0.7872,0.0863
7.4220,-0.5543,-0.8043,0.0924
7.4220,-0.5543,-0.8043,0.0924
7.4230,-0.5543,-0.8043,0.0924
7.4370,-0.5543,-0.8043,0.0924
7.4430,-0.5760,-0.7967,0.0931
7.4440,-0.5760,-0.7967,0.0931
7.4450,-0.5760,-0.7967,0.0931
7.4460,-0.5760,-0.7967,0.0931
7.4470,-0.5760,-0.7967,0.0931
7.4620,-0.5929,-0.7896,0.0921
7.4630,-0.5929,-0.7896,0.0921
7.4640,-0.5929,-0.7896,0.0921
7.4810,-0.5726,-0.7940,0.0921
7.4820,-0.5726,-0.7940,0.0921
7.4820,-0.5726,-0.7940,0.0921
7.5020,-0.5667,-0.7857,0.0887
7.5020,-0.5667,-0.7857,0.0887
7.5030,-0.5667,-0.7857,0.0887
7.5210,-0.5687,-0.7886,0.0929
7.5220,-0.5687,-0.7886,0.0929
7.5230,-0.5687,-0.7886,0.0929
7.5240,-0.5687,-0.7886,0.0929
7.5250,-0.5687,-0.7886,0.0929
7.5420,-0.5653,-0.7911,0.0809
7.5430,-0.5653,-0.7911,0.0809
7.5460,-0.5653,-0.7911,0.0809
7.5610,-0.5746,-0.7879,0.0836
7.5610,-0.5746,-0.7879,0.0836
7.5610,-0.5746,-0.7879,0.0836
7.5800,-0.5785,-0.7845,0.1070
7.5810,-0.5785,-0.7845,0.1070
7.5810,-0.5785,-0.7845,0.1070
7.6000,-0.5672,-0.7835,0.1293
7.6010,-0.5672,-0.7835,0.1293
7.6010,-0.5672,-0.7835,0.1293
7.6030,-0.5672,-0.7835,0.1293
7.6030,-0.5672,-0.7835,0.1293
7.6200,-0.5653,-0.7820,0.1007
7.6210,-0.5653,-0.7820,0.1007
7.6210,-0.5653,-0.7820,0.1007
7.6320,-0.5653,-0.7820,0.1007
7.6390,-0.5491,-0.7820,0.0494
7.6410,-0.5491,-0.7820,0.0494
7.6410,-0.5491,-0.7820,0.0494
7.6590,-0.6027,-0.7820,0.0635
7.6600,-0.6027,-0.7820,0.0635
7.6600,-0.6027,-0.7820,0.0635
7.6800,-0.6691,-0.7798,0.0819
7.6800,-0.6691,-0.7798,0.0819
7.6800,-0.6691,-0.7798,0.0819
7.6820,-0.6691,-0.7798,0.0819
7.6820,-0.6691,-0.7798,0.0819
7.6990,-0.5890,-0.7752,0.0848
7.6990,-0.5890,-0.7752,0.0848
7.6990,-0.5890,-0.7752,0.0848
7.7190,-0.5445,-0.7728,0.0855
7.7190,-0.5445,-0.7728,0.0855
7.7190,-0.5445,-0.7728,0.0855
7.7380,-0.5540,-0.7747,0.1014
7.7380,-0.5540,-0.7747,0.1014
7.7380,-0.5540,-0.7747,0.1014
7.7570,-0.5650,-0.7935,0.1053
7.8000,-0.5650,-0.7935,0.1053
7.8000,-0.5650,-0.7935,0.1053
7.8000,-0.5650,-0.7935,0.1053
7.8000,-0.5650,-0.7935,0.1053
7.8000,-0.5799,-0.8084,0.1000
7.8000,-0.5799,-0.8084,0.1000
7.8010,-0.5799,-0.8084,0.1000
7.8010,-0.5946,-0.8043,0.0958
7.8010,-0.5946,-0.8043,0.0958
7.8010,-0.5946,-0.8043,0.0958
7.8190,-0.6100,-0.7862,0.0980
7.8190,-0.6100,-0.7862,0.0980
7.8190,-0.6100,-0.7862,0.0980
7.8310,-0.6100,-0.7862,0.0980
7.8390,-0.5851,-0.7701,0.1088
7.8390,-0.5851,-0.7701,0.1088
7.8390,-0.5851,-0.7701,0.1088
7.8420,-0.5851,-0.7701,0.1088
7.8420,-0.5851,-0.7701,0.1088
7.8590,-0.5777,-0.7828,0.0951
7.8590,-0.5777,-0.7828,0.0951
7.8590,-0.5777,-0.7828,0.0951
7.8770,-0.5462,-0.7972,0.0833
7.8780,-0.5462,-0.7972,0.0833
7.8780,-0.5462,-0.7972,0.0833
7.8960,-0.5582,-0.7882,0.0853
7.8970,-0.5582,-0.7882,0.0853
7.8970,-0.5582,-0.7882,0.0853
7.9180,-0.5909,-0.7759,0.0926
7.9180,-0.5909,-0.7759,0.0926
7.9180,-0.5909,-0.7759,0.0926
7.9200,-0.5909,-0.7759,0.0926
7.9200,-0.5909,-0.7759,0.0926
7.9370,-0.5858,-0.7808,0.0887
7.9380,-0.5858,-0.7808,0.0887
7.9380,-0.5858,-0.7808,0.0887
7.9570,-0.5875,-0.7921,0.0904
7.9570,-0.5875,-0.7921,0.0904
7.9570,-0.5875,-0.7921,0.0904
7.9780,-0.5966,-0.7862,0.1004
7.9790,-0.5966,-0.7862,0.1004
7.9790,-0.5966,-0.7862,0.1004
7.9970,-0.5733,-0.7776,0.0745
7.9980,-0.5733,-0.7776,0.0745
7.9980,-0.5733,-0.7776,0.0745
8.0010,-0.5733,-0.7776,0.0745
8.0010,-0.5733,-0.7776,0.0745
8.0190,-0.5477,-0.7857,0.0775
8.0200,-0.5477,-0.7857,0.0775
8.0210,-0.5477,-0.7857,0.0775
8.0300,-0.5477,-0.7857,0.0775
8.0380,-0.5689,-0.7908,0.0907
8.0390,-0.5689,-0.7908,0.0907
8.0390,-0.5689,-0.7908,0.0907
8.0580,-0.5792,-0.7850,0.0978
8.0580,-0.5792,-0.7850,0.0978
8.0590,-0.5792,-0.7850,0.0978
8.0780,-0.5880,-0.7974,0.1034
8.0790,-0.5880,-0.7974,0.1034
8.0800,-0.5880,-0.7974,0.1034
8.0810,-0.5880,-0.7974,0.1034
8.0820,-0.5880,-0.7974,0.1034
8.0970,-0.6139,-0.8028,0.1154
8.0980,-0.6139,-0.8028,0.1154
8.0990,-0.6139,-0.8028,0.1154
8.1210,-0.5777,-0.7960,0.1102
8.1210,-0.5777,-0.7960,0.1102
8.1220,-0.5777,-0.7960,0.1102
8.1380,-0.5438,-0.7899,0.0960
8.1380,-0.5438,-0.7899,0.0960
8.1390,-0.5438,-0.7899,0.0960
8.1580,-0.5645,-0.7879,0.0782
8.1590,-0.5645,-0.7879,0.0782
8.1590,-0.5645,-0.7879,0.0782
8.1620,-0.5645,-0.7879,0.0782
8.1630,-0.5645,-0.7879,0.0782
8.1790,-0.5750,-0.7862,0.0787
8.1800,-0.5750,-0.7862,0.0787
8.1810,-0.5750,-0.7862,0.0787
8.1980,-0.5621,-0.7835,0.0860
8.1990,-0.5621,-0.7835,0.0860
8.2000,-0.5621,-0.7835,0.0860
8.2180,-0.5406,-0.7852,0.0916
8.2190,-0.5406,-0.7852,0.0916
8.2190,-0.5406,-0.7852,0.0916
8.2290,-0.5406,-0.7852,0.0916
8.2380,-0.5364,-0.7842,0.0824
8.2390,-0.5364,-0.7842,0.0824
8.2400,-0.5364,-0.7842,0.0824
8.2400,-0.5364,-0.7842,0.0824
8.2410,-0.5364,-0.7842,0.0824
8.2610,-0.5584,-0.7835,0.0677
8.2620,-0.5584,-0.7835,0.0677
8.2630,-0.5584,-0.7835,0.0677
8.2790,-0.5846,-0.7950,0.1090
8.2800,-0.5846,-0.7950,0.1090
8.2810,-0.5846,-0.7950,0.1090
8.2960,-0.5799,-0.7987,0.1263
8.2970,-0.5799,-0.7987,0.1263
8.2970,-0.5799,-0.7987,0.1263
8.3520,-0.6056,-0.7977,0.1134
8.3520,-0.6056,-0.7977,0.1134
8.3540,-0.6056,-0.7977,0.1134
8.3540,-0.6056,-0.7977,0.1134
8.3540,-0.6056,-0.7977,0.1134
8.3540,-0.6442,-0.7989,0.1149
8.3540,-0.6442,-0.7989,0.1149
8.3550,-0.6442,-0.7989,0.1149
8.3550,-0.6137,-0.7794,0.0951
8.3560,-0.6137,-0.7794,0.0951
8.3560,-0.6137,-0.7794,0.0951
8.3740,-0.5633,-0.7752,0.0523
8.3740,-0.5633,-0.7752,0.0523
8.3740,-0.5633,-0.7752,0.0523
8.3940,-0.5667,-0.7735,0.0635
8.3950,-0.5667,-0.7735,0.0635
8.3950,-0.5667,-0.7735,0.0635
8.3990,-0.5667,-0.7735,0.0635
8.3990,-0.5667,-0.7735,0.0635
8.4140,-0.5611,-0.7745,0.0875
8.4140,-0.5611,-0.7745,0.0875
8.4140,-0.5611,-0.7745,0.0875
8.4250,-0.5611,-0.7745,0.0875
8.4340,-0.5533,-0.7884,0.0890
8.4340,-0.5533,-0.7884,0.0890
8.4350,-0.5533,-0.7884,0.0890
8.4550,-0.5641,-0.7899,0.0904
8.4560,-0.5641,-0.7899,0.0904
8.4570,-0.5641,-0.7899,0.0904
8.4750,-0.5665,-0.7972,0.0987
8.4760,-0.5665,-0.7972,0.0987
8.4760,-0.5665,-0.7972,0.0987
8.4770,-0.5665,-0.7972,0.0987
8.4770,-0.5665,-0.7972,0.0987
8.4950,-0.5733,-0.8075,0.0916
8.4950,-0.5733,-0.8075,0.0916
8.4960,-0.5733,-0.8075,0.0916
8.5170,-0.5902,-0.7982,0.1178
8.5170,-0.5902,-0.7982,0.1178
8.5180,-0.5902,-0.7982,0.1178
8.5380,-0.5970,-0.7860,0.1210
8.5400,-0.5970,-0.7860,0.1210
8.5410,-0.5970,-0.7860,0.1210
8.5570,-0.5865,-0.7918,0.0865
8.5580,-0.5865,-0.7918,0.0865
8.5590,-0.5865,-0.7918,0.0865
8.5600,-0.5865,-0.7918,0.0865
8.5610,-0.5865,-0.7918,0.0865
8.5770,-0.5614,-0.7996,0.0958
8.5770,-0.5614,-0.7996,0.0958
8.5780,-0.5614,-0.7996,0.0958
8.5950,-0.5269,-0.7884,0.0919
8.5950,-0.5269,-0.7884,0.0919
8.5960,-0.5269,-0.7884,0.0919
8.6180,-0.5645,-0.7825,0.0963
8.6180,-0.5645,-0.7825,0.0963
8.6190,-0.5645,-0.7825,0.0963
8.6250,-0.5645,-0.7825,0.0963
8.6360,-0.6281,-0.7818,0.0806
8.6370,-0.6281,-0.7818,0.0806
8.6370,-0.6281,-0.7818,0.0806
8.6380,-0.6281,-0.7818,0.0806
8.6380,-0.6281,-0.7818,0.0806
8.6580,-0.6303,-0.7747,0.0855
8.6580,-0.6303,-0.7747,0.0855
8.6590,-0.6303,-0.7747,0.0855
8.6760,-0.5924,-0.7818,0.0877
8.6770,-0.5924,-0.7818,0.0877
8.6770,-0.5924,-0.7818,0.0877
8.6960,-0.5484,-0.7864,0.0738
8.6970,-0.5484,-0.7864,0.0738
8.6980,-0.5484,-0.7864,0.0738
8.7160,-0.5650,-0.7820,0.0909
8.7170,-0.5650,-0.7820,0.0909
8.7170,-0.5650,-0.7820,0.0909
8.7230,-0.5650,-0.7820,0.0909
8.7240,-0.5650,-0.7820,0.0909
8.7370,-0.5980,-0.7813,0.1048
8.7370,-0.5980,-0.7813,0.1048
8.7380,-0.5980,-0.7813,0.1048
8.7550,-0.5687,-0.7908,0.1029
8.7550,-0.5687,-0.7908,0.1029
8.7560,-0.5687,-0.7908,0.1029
8.7760,-0.5633,-0.8016,0.0975
8.7770,-0.5633,-0.8016,0.0975
8.7780,-0.5633,-0.8016,0.0975
8.7950,-0.5736,-0.7926,0.0804
8.7950,-0.5736,-0.7926,0.0804
8.7960,-0.5736,-0.7926,0.0804
8.7970,-0.5736,-0.7926,0.0804
8.7980,-0.5736,-0.7926,0.0804
8.8150,-0.5733,-0.7850,0.0714
8.8150,-0.5733,-0.7850,0.0714
8.8160,-0.5733,-0.7850,0.0714
8.8220,-0.5733,-0.7850,0.0714
8.8350,-0.5777,-0.7774,0.0755
8.8370,-0.5777,-0.7774,0.0755
8.8370,-0.5777,-0.7774,0.0755
8.8580,-0.5667,-0.7681,0.0941
8.8580,-0.5667,-0.7681,0.0941
8.9240,-0.5667,-0.7681,0.0941
8.9250,-0.5560,-0.7791,0.1053
8.9250,-0.5560,-0.7791,0.1053
8.9250,-0.5560,-0.7791,0.1053
8.9250,-0.5560,-0.7791,0.1053
8.9250,-0.5560,-0.7791,0.1053
8.9260,-0.5523,-0.7842,0.1151
8.9260,-0.5523,-0.7842,0.1151
8.9270,-0.5523,-0.7842,0.1151
8.9270,-0.5753,-0.7869,0.1066
8.9280,-0.5753,-0.7869,0.1066
8.9280,-0.5753,-0.7869,0.1066
8.9300,-0.6063,-0.7813,0.1117
8.9310,-0.6063,-0.7813,0.1117
8.9310,-0.6063,-0.7813,0.1117
8.9500,-0.5934,-0.7781,0.1117
8.9500,-0.5934,-0.7781,0.1117
8.9500,-0.5934,-0.7781,0.1117
8.9530,-0.5934,-0.7781,0.1117
8.9530,-0.5934,-0.7781,0.1117
8.9700,-0.5878,-0.7864,0.1024
8.9700,-0.5878,-0.7864,0.1024
8.9700,-0.5878,-0.7864,0.1024
8.9900,-0.6256,-0.7747,0.0926
8.9900,-0.6256,-0.7747,0.0926
8.9910,-0.6256,-0.7747,0.0926
9.0110,-0.6286,-0.7750,0.0970
9.0110,-0.6286,-0.7750,0.0970
9.0120,-0.6286,-0.7750,0.0970
9.0200,-0.6286,-0.7750,0.0970
9.0320,-0.5973,-0.7806,0.0907
9.0320,-0.5973,-0.7806,0.0907
9.0320,-0.5973,-0.7806,0.0907
9.0340,-0.5973,-0.7806,0.0907
9.0340,-0.5973,-0.7806,0.0907
9.0510,-0.5494,-0.7517,0.0894
9.0510,-0.5494,-0.7517,0.0894
9.0520,-0.5494,-0.7517,0.0894
9.0730,-0.5790,-0.7618,0.1004
9.0740,-0.5790,-0.7618,0.1004
9.0740,-0.5790,-0.7618,0.1004
9.0930,-0.6027,-0.7754,0.0958
9.0930,-0.6027,-0.7754,0.0958
9.0930,-0.6027,-0.7754,0.0958
9.1130,-0.5790,-0.7816,0.1012
9.1140,-0.5790,-0.7816,0.1012
9.1140,-0.5790,-0.7816,0.1012
9.1150,-0.5790,-0.7816,0.1012
9.1150,-0.5790,-0.7816,0.1012
9.1320,-0.5931,-0.7806,0.1075
9.1320,-0.5931,-0.7806,0.1075
9.1320,-0.5931,-0.7806,0.1075
9.1530,-0.5826,-0.7781,0.0997
9.1540,-0.5826,-0.7781,0.0997
9.1550,-0.5826,-0.7781,0.0997
9.1740,-0.5824,-0.7794,0.0963
9.1770,-0.5824,-0.7794,0.0963
9.1770,-0.5824,-0.7794,0.0963
9.1910,-0.5980,-0.7747,0.1095
9.1920,-0.5980,-0.7747,0.1095
9.1920,-0.5980,-0.7747,0.1095
9.1940,-0.5980,-0.7747,0.1095
9.1970,-0.5980,-0.7747,0.1095
9.2120,-0.6005,-0.7811,0.0897
9.2130,-0.6005,-0.7811,0.0897
9.2130,-0.6005,-0.7811,0.0897
9.2220,-0.6005,-0.7811,0.0897
9.2320,-0.5924,-0.7935,0.0794
9.2320,-0.5924,-0.7935,0.0794
9.2330,-0.5924,-0.7935,0.0794
9.2530,-0.5794,-0.7896,0.1009
9.2540,-0.5794,-0.7896,0.1009
9.2540,-0.5794,-0.7896,0.1009
9.2740,-0.5816,-0.7779,0.0887
9.2750,-0.5816,-0.7779,0.0887
9.2750,-0.5816,-0.7779,0.0887
9.2760,-0.5816,-0.7779,0.0887
9.2760,-0.5816,-0.7779,0.0887
9.2920,-0.6093,-0.7894,0.0853
9.2920,-0.6093,-0.7894,0.0853
9.2930,-0.6093,-0.7894,0.0853
9.3110,-0.6161,-0.8099,0.0997
9.3120,-0.6161,-0.8099,0.0997
9.3120,-0.6161,-0.8099,0.0997
9.3310,-0.5687,-0.7943,0.0926
9.3320,-0.5687,-0.7943,0.0926
9.3320,-0.5687,-0.7943,0.0926
9.3510,-0.5562,-0.7693,0.0782
9.3510,-0.5562,-0.7693,0.0782
9.3540,-0.5562,-0.7693,0.0782
9.3550,-0.5562,-0.7693,0.0782
9.3560,-0.5562,-0.7693,0.0782
9.3720,-0.5973,-0.7674,0.1183
9.3720,-0.5973,-0.7674,0.1183
9.3750,-0.5973,-0.7674,0.1183
9.3910,-0.5892,-0.7781,0.1425
9.3910,-0.5892,-0.7781,0.1425
9.3920,-0.5892,-0.7781,0.1425
9.4090,-0.5626,-0.7889,0.1276
9.4100,-0.5626,-0.7889,0.1276
9.4690,-0.5626,-0.7889,0.1276
9.4710,-0.5626,-0.7889,0.1276
9.4710,-0.5293,-0.7857,0.0902
9.4710,-0.5293,-0.7857,0.0902
9.4720,-0.5293,-0.7857,0.0902
9.4720,-0.5293,-0.7857,0.0902
9.4720,-0.5293,-0.7857,0.0902
9.4720,-0.5291,-0.7718,0.0667
9.4730,-0.5291,-0.7718,0.0667
9.4740,-0.5291,-0.7718,0.0667
9.4740,-0.5716,-0.7613,0.0894
9.4750,-0.5716,-0.7613,0.0894
9.4750,-0.5716,-0.7613,0.0894
9.4880,-0.5821,-0.7816,0.0694
9.4880,-0.5821,-0.7816,0.0694
9.4880,-0.5821,-0.7816,0.0694
9.5090,-0.5687,-0.7989,0.0828
9.5090,-0.5687,-0.7989,0.0828
9.5100,-0.5687,-0.7989,0.0828
9.5120,-0.5687,-0.7989,0.0828
9.5120,-0.5687,-0.7989,0.0828
9.5270,-0.5863,-0.7889,0.1051
9.5270,-0.5863,-0.7889,0.1051
9.5270,-0.5863,-0.7889,0.1051
9.5470,-0.5995,-0.7747,0.1036
9.5470,-0.5995,-0.7747,0.1036
9.5470,-0.5995,-0.7747,0.1036
9.5670,-0.5824,-0.7869,0.1044
9.5670,-0.5824,-0.7869,0.1044
9.5670,-0.5824,-0.7869,0.1044
9.5860,-0.5836,-0.7867,0.1122
9.5870,-0.5836,-0.7867,0.1122
9.5870,-0.5836,-0.7867,0.1122
9.5900,-0.5836,-0.7867,0.1122
9.5900,-0.5836,-0.7867,0.1122
9.6070,-0.6063,-0.7652,0.1149
9.6080,-0.6063,-0.7652,0.1149
9.6080,-0.6063,-0.7652,0.1149
9.6150,-0.6063,-0.7652,0.1149
9.6260,-0.6085,-0.7781,0.1056
9.6260,-0.6085,-0.7781,0.1056
9.6260,-0.6085,-0.7781,0.1056
9.6460,-0.5628,-0.7894,0.0826
9.6460,-0.5628,-0.7894,0.0826
9.6470,-0.5628,-0.7894,0.0826
9.6670,-0.5831,-0.7818,0.0824
9.6670,-0.5831,-0.7818,0.0824
9.6680,-0.5831,-0.7818,0.0824
9.6700,-0.5831,-0.7818,0.0824
9.6700,-0.5831,-0.7818,0.0824
9.6860,-0.6098,-0.7742,0.0973
9.6870,-0.6098,-0.7742,0.0973
9.6870,-0.6098,-0.7742,0.0973
9.7070,-0.5733,-0.7877,0.0797
9.7080,-0.5733,-0.7877,0.0797
9.7080,-0.5733,-0.7877,0.0797
9.7270,-0.5526,-0.7857,0.0679
9.7280,-0.5526,-0.7857,0.0679
9.7280,-0.5526,-0.7857,0.0679
9.7490,-0.5897,-0.7774,0.0865
9.7490,-0.5897,-0.7774,0.0865
9.7500,-0.5897,-0.7774,0.0865
9.7500,-0.5897,-0.7774,0.0865
9.7510,-0.5897,-0.7774,0.0865
9.7670,-0.5978,-0.7789,0.1141
9.7670,-0.5978,-0.7789,0.1141
9.7680,-0.5978,-0.7789,0.1141
9.7880,-0.5611,-0.7943,0.1212
9.7880,-0.5611,-0.7943,0.1212
9.7890,-0.5611,-0.7943,0.1212
9.8070,-0.5682,-0.7994,0.1012
9.8070,-0.5682,-0.7994,0.1012
9.8080,-0.5682,-0.7994,0.1012
9.8170,-0.5682,-0.7994,0.1012
9.8270,-0.6100,-0.7884,0.1046
9.8280,-0.6100,-0.7884,0.1046
9.8280,-0.6100,-0.7884,0.1046
9.8290,-0.6100,-0.7884,0.1046
9.8290,-0.6100,-0.7884,0.1046
9.8470,-0.6022,-0.7791,0.1066
9.8490,-0.6022,-0.7791,0.1066
9.8500,-0.6022,-0.7791,0.1066
9.8700,-0.5692,-0.7921,0.0743
9.8700,-0.5692,-0.7921,0.0743
9.8710,-0.5692,-0.7921,0.0743
9.8870,-0.5785,-0.7916,0.0640
9.8880,-0.5785,-0.7916,0.0640
9.8880,-0.5785,-0.7916,0.0640
9.9070,-0.5885,-0.7698,0.1083
9.9080,-0.5885,-0.7698,0.1083
9.9090,-0.5885,-0.7698,0.1083
9.9090,-0.5885,-0.7698,0.1083
9.9100,-0.5885,-0.7698,0.1083
9.9270,-0.5606,-0.7710,0.1234
9.9270,-0.5606,-0.7710,0.1234
9.9280,-0.5606,-0.7710,0.1234
9.9460,-0.5641,-0.7904,0.0912
9.9480,-0.5641,-0.7904,0.0912
9.9480,-0.5641,-0.7904,0.0912
9.9660,-0.5863,-0.7904,0.0731
10.0220,-0.5863,-0.7904,0.0731
10.0220,-0.5863,-0.7904,0.0731
10.0240,-0.5926,-0.7781,0.0956
10.0240,-0.5926,-0.7781,0.0956
10.0240,-0.5926,-0.7781,0.0956
10.0240,-0.5926,-0.7781,0.0956
10.0250,-0.5926,-0.7781,0.0956
10.0250,-0.6044,-0.7811,0.1156
10.0250,-0.6044,-0.7811,0.1156
10.0260,-0.6044,-0.7811,0.1156
10.0260,-0.6044,-0.7811,0.1156
10.0260,-0.5785,-0.7901,0.1100
10.0270,-0.5785,-0.7901,0.1100
10.0270,-0.5785,-0.7901,0.1100
10.0450,-0.5760,-0.7992,0.1207
10.0450,-0.5760,-0.7992,0.1207
10.0450,-0.5760,-0.7992,0.1207
10.0650,-0.5702,-0.7994,0.1168
10.0660,-0.5702,-0.7994,0.1168
10.0660,-0.5702,-0.7994,0.1168
10.0670,-0.5702,-0.7994,0.1168
10.0670,-0.5702,-0.7994,0.1168
10.0850,-0.5489,-0.7916,0.0816
10.0850,-0.5489,-0.7916,0.0816
10.0850,-0.5489,-0.7916,0.0816
10.1040,-0.5804,-0.7801,0.0767
10.1040,-0.5804,-0.7801,0.0767
10.1040,-0.5804,-0.7801,0.0767
10.1230,-0.5860,-0.7732,0.0841
10.1230,-0.5860,-0.7732,0.0841
10.1240,-0.5860,-0.7732,0.0841
10.1440,-0.5699,-0.7818,0.0909
10.1440,-0.5699,-0.7818,0.0909
10.1440,-0.5699,-0.7818,0.0909
10.1520,-0.5699,-0.7818,0.0909
10.1520,-0.5699,-0.7818,0.0909
10.1630,-0.5582,-0.7781,0.0958
10.1630,-0.5582,-0.7781,0.0958
10.1630,-0.5582,-0.7781,0.0958
10.1820,-0.5496,-0.7816,0.1024
10.1830,-0.5496,-0.7816,0.1024
10.1830,-0.5496,-0.7816,0.1024
10.1970,-0.5496,-0.7816,0.1024
10.2020,-0.5619,-0.7879,0.1246
10.2030,-0.5619,-0.7879,0.1246
10.2030,-0.5619,-0.7879,0.1246
10.2110,-0.5619,-0.7879,0.1246
10.2250,-0.5966,-0.7955,0.1278
10.2250,-0.5966,-0.7955,0.1278
10.2250,-0.5966,-0.7955,0.1278
10.2260,-0.5966,-0.7955,0.1278
10.2260,-0.5966,-0.7955,0.1278
10.2440,-0.6063,-0.7911,0.1053
10.2440,-0.6063,-0.7911,0.1053
10.2440,-0.6063,-0.7911,0.1053
10.2640,-0.5948,-0.7869,0.1044
10.2650,-0.5948,-0.7869,0.1044
10.2650,-0.5948,-0.7869,0.1044
10.2840,-0.5831,-0.7779,0.0882
10.2840,-0.5831,-0.7779,0.0882
10.2840,-0.5831,-0.7779,0.0882
10.3040,-0.5772,-0.7725,0.0753
10.3040,-0.5772,-0.7725,0.0753
10.3050,-0.5772,-0.7725,0.0753
10.3050,-0.5772,-0.7725,0.0753
10.3050,-0.5772,-0.7725,0.0753
10.3250,-0.5870,-0.7791,0.0797
10.3250,-0.5870,-0.7791,0.0797
10.3250,-0.5870,-0.7791,0.0797
10.3460,-0.5728,-0.7776,0.0880
10.3470,-0.5728,-0.7776,0.0880
10.3470,-0.5728,-0.7776,0.0880
10.3660,-0.5584,-0.7759,0.0733
10.3670,-0.5584,-0.7759,0.0733
10.3680,-0.5584,-0.7759,0.0733
10.3840,-0.5860,-0.7732,0.0709
10.3840,-0.5860,-0.7732,0.0709
10.3850,-0.5860,-0.7732,0.0709
10.3860,-0.5860,-0.7732,0.0709
10.3860,-0.5860,-0.7732,0.0709
10.4000,-0.5860,-0.7732,0.0709
10.4040,-0.5922,-0.7772,0.1100
10.4050,-0.5922,-0.7772,0.1100
10.4050,-0.5922,-0.7772,0.1100
10.4110,-0.5922,-0.7772,0.1100
10.4250,-0.5719,-0.7874,0.1119
10.4250,-0.5719,-0.7874,0.1119
10.4260,-0.5719,-0.7874,0.1119
10.4460,-0.5807,-0.7923,0.0946
10.4460,-0.5807,-0.7923,0.0946
10.4470,-0.5807,-0.7923,0.0946
10.4660,-0.5856,-0.7825,0.1078
10.4660,-0.5856,-0.7825,0.1078
10.4670,-0.5856,-0.7825,0.1078
10.4670,-0.5856,-0.7825,0.1078
10.4670,-0.5856,-0.7825,0.1078
10.4830,-0.5741,-0.7813,0.1110
10.4840,-0.5741,-0.7813,0.1110
10.4840,-0.5741,-0.7813,0.1110
10.5030,-0.5814,-0.7840,0.0987
10.5730,-0.5814,-0.7840,0.0987
10.5730,-0.5814,-0.7840,0.0987
10.5740,-0.5914,-0.7772,0.1100
10.5740,-0.5914,-0.7772,0.1100
10.5740,-0.5914,-0.7772,0.1100
10.5740,-0.5926,-0.7740,0.1122
10.5750,-0.5926,-0.7740,0.1122
10.5750,-0.5926,-0.7740,0.1122
10.5760,-0.5926,-0.7740,0.1122
10.5760,-0.5926,-0.7740,0.1122
10.5760,-0.5787,-0.7855,0.0995
10.5770,-0.5787,-0.7855,0.0995
10.5770,-0.5787,-0.7855,0.0995
10.5820,-0.5902,-0.7974,0.0914
10.5820,-0.5902,-0.7974,0.0914
10.5820,-0.5902,-0.7974,0.0914
10.6040,-0.6034,-0.7962,0.1000
10.6050,-0.6034,-0.7962,0.1000
10.6050,-0.6034,-0.7962,0.1000
10.6080,-0.6034,-0.7962,0.1000
10.6230,-0.5785,-0.7850,0.1056
10.6230,-0.5785,-0.7850,0.1056
10.6230,-0.5785,-0.7850,0.1056
10.6250,-0.5785,-0.7850,0.1056
10.6250,-0.5785,-0.7850,0.1056
10.6450,-0.5670,-0.7767,0.0965
10.6450,-0.5670,-0.7767,0.0965
10.6450,-0.5670,-0.7767,0.0965
10.6620,-0.5445,-0.7842,0.0899
10.6630,-0.5445,-0.7842,0.0899
10.6630,-0.5445,-0.7842,0.0899
10.6810,-0.5487,-0.7916,0.0963
10.6810,-0.5487,-0.7916,0.0963
10.6810,-0.5487,-0.7916,0.0963
10.7010,-0.6068,-0.7908,0.1290
10.7010,-0.6068,-0.7908,0.1290
10.7020,-0.6068,-0.7908,0.1290
10.7020,-0.6068,-0.7908,0.1290
10.7020,-0.6068,-0.7908,0.1290
10.7210,-0.5997,-0.8053,0.0936
10.7210,-0.5997,-0.8053,0.0936
10.7210,-0.5997,-0.8053,0.0936
10.7470,-0.5364,-0.8109,0.0760
10.7470,-0.5364,-0.8109,0.0760
10.7470,-0.5364,-0.8109,0.0760
10.7600,-0.5653,-0.7781,0.0912
10.7600,-0.5653,-0.7781,0.0912
10.7600,-0.5653,-0.7781,0.0912
10.7800,-0.5582,-0.7596,0.0821
10.7810,-0.5582,-0.7596,0.0821
10.7810,-0.5582,-0.7596,0.0821
10.7830,-0.5582,-0.7596,0.0821
10.7830,-0.5582,-0.7596,0.0821
10.7940,-0.5582,-0.7596,0.0821
10.8010,-0.5506,-0.7725,0.0836
10.8010,-0.5506,-0.7725,0.0836
10.8010,-0.5506,-0.7725,0.0836
10.8070,-0.5506,-0.7725,0.0836
10.8210,-0.5772,-0.7774,0.1053
10.8210,-0.5772,-0.7774,0.1053
10.8210,-0.5772,-0.7774,0.1053
10.8400,-0.5794,-0.7850,0.1134
10.8400,-0.5794,-0.7850,0.1134
10.8410,-0.5794,-0.7850,0.1134
10.8610,-0.5641,-0.8040,0.0934
10.8610,-0.5641,-0.8040,0.0934
10.8620,-0.5641,-0.8040,0.0934
10.8620,-0.5641,-0.8040,0.0934
10.8630,-0.5641,-0.8040,0.0934
10.8820,-0.6027,-0.8011,0.1193
10.8830,-0.6027,-0.8011,0.1193
10.8840,-0.6027,-0.8011,0.1193
10.9060,-0.6205,-0.7781,0.1185
10.9060,-0.6205,-0.7781,0.1185
10.9070,-0.6205,-0.7781,0.1185
10.9200,-0.6014,-0.7796,0.0931
10.9210,-0.6014,-0.7796,0.0931
10.9210,-0.6014,-0.7796,0.0931
10.9400,-0.5768,-0.7972,0.0907
10.9410,-0.5768,-0.7972,0.0907
10.9410,-0.5768,-0.7972,0.0907
10.9430,-0.5768,-0.7972,0.0907
10.9440,-0.5768,-0.7972,0.0907
10.9630,-0.5733,-0.7935,0.1022
10.9640,-0.5733,-0.7935,0.1022
10.9650,-0.5733,-0.7935,0.1022
10.9830,-0.5685,-0.7828,0.0885
10.9840,-0.5685,-0.7828,0.0885
10.9840,-0.5685,-0.7828,0.0885
10.9980,-0.5685,-0.7828,0.0885
11.0010,-0.5763,-0.7852,0.0872
11.0020,-0.5763,-0.7852,0.0872
11.0020,-0.5763,-0.7852,0.0872
11.0060,-0.5763,-0.7852,0.0872
11.0210,-0.5870,-0.7882,0.1100
11.0210,-0.5870,-0.7882,0.1100
11.0220,-0.5870,-0.7882,0.1100
11.0230,-0.5870,-0.7882,0.1100
11.0230,-0.5870,-0.7882,0.1100
11.0450,-0.5716,-0.7808,0.1088
11.1110,-0.5716,-0.7808,0.1088
11.1120,-0.5716,-0.7808,0.1088
11.1120,-0.5760,-0.7779,0.0975
11.1120,-0.5760,-0.7779,0.0975
11.1120,-0.5760,-0.7779,0.0975
11.1130,-0.6007,-0.7791,0.0726
11.1130,-0.6007,-0.7791,0.0726
11.1130,-0.6007,-0.7791,0.0726
11.1130,-0.5990,-0.7718,0.0824
11.1130,-0.5990,-0.7718,0.0824
11.1140,-0.5990,-0.7718,0.0824
11.1140,-0.5990,-0.7718,0.0824
11.1140,-0.5990,-0.7718,0.0824
11.1190,-0.6146,-0.7732,0.1026
11.1190,-0.6146,-0.7732,0.1026
11.1200,-0.6146,-0.7732,0.1026
11.1380,-0.5636,-0.7757,0.0677
11.1390,-0.5636,-0.7757,0.0677
11.1390,-0.5636,-0.7757,0.0677
11.1580,-0.5597,-0.7813,0.0843
11.1590,-0.5597,-0.7813,0.0843
11.1590,-0.5597,-0.7813,0.0843
11.1780,-0.6095,-0.7796,0.1107
11.1790,-0.6095,-0.7796,0.1107
11.1800,-0.6095,-0.7796,0.1107
11.1810,-0.6095,-0.7796,0.1107
11.1820,-0.6095,-0.7796,0.1107
11.2000,-0.5763,-0.7776,0.1012
11.2000,-0.5763,-0.7776,0.1012
11.2020,-0.5763,-0.7776,0.1012
11.2030,-0.5763,-0.7776,0.1012
11.2180,-0.5755,-0.8116,0.1149
11.2180,-0.5755,-0.8116,0.1149
11.2190,-0.5755,-0.8116,0.1149
11.2380,-0.5707,-0.8204,0.1342
11.2380,-0.5707,-0.8204,0.1342
11.2390,-0.5707,-0.8204,0.1342
11.2590,-0.5159,-0.7940,0.1232
11.2600,-0.5159,-0.7940,0.1232
11.2600,-0.5159,-0.7940,0.1232
11.2610,-0.5159,-0.7940,0.1232
11.2610,-0.5159,-0.7940,0.1232
11.2790,-0.5939,-0.7794,0.0963
11.2800,-0.5939,-0.7794,0.0963
11.2800,-0.5939,-0.7794,0.0963
11.2970,-0.6210,-0.7728,0.0956
11.2980,-0.6210,-0.7728,0.0956
11.2980,-0.6210,-0.7728,0.0956
11.3170,-0.5731,-0.7830,0.0924
11.3170,-0.5731,-0.7830,0.0924
11.3170,-0.5731,-0.7830,0.0924
11.3370,-0.5623,-0.7872,0.1051
11.3370,-0.5623,-0.7872,0.1051
11.3380,-0.5623,-0.7872,0.1051
11.3390,-0.5623,-0.7872,0.1051
11.3390,-0.5623,-0.7872,0.1051
11.3570,-0.5572,-0.7830,0.1073
11.3570,-0.5572,-0.7830,0.1073
11.3570,-0.5572,-0.7830,0.1073
11.3760,-0.5787,-0.7786,0.0987
11.3770,-0.5787,-0.7786,0.0987
11.3770,-0.5787,-0.7786,0.0987
11.3960,-0.5856,-0.7820,0.1095
11.3960,-0.5856,-0.7820,0.1095
11.3960,-0.5856,-0.7820,0.1095
11.4010,-0.5856,-0.7820,0.1095
11.4160,-0.5772,-0.7833,0.0982
11.4160,-0.5772,-0.7833,0.0982
11.4160,-0.5772,-0.7833,0.0982
11.4180,-0.5772,-0.7833,0.0982
11.4180,-0.5772,-0.7833,0.0982
11.4370,-0.5746,-0.7852,0.0904
11.4370,-0.5746,-0.7852,0.0904
11.4380,-0.5746,-0.7852,0.0904
11.4600,-0.5931,-0.7904,0.1002
11.4600,-0.5931,-0.7904,0.1002
11.4610,-0.5931,-0.7904,0.1002
11.4770,-0.5853,-0.7806,0.1078
11.4780,-0.5853,-0.7806,0.1078
11.4780,-0.5853,-0.7806,0.1078
11.5000,-0.5628,-0.7684,0.0938
11.5010,-0.5628,-0.7684,0.0938
11.5020,-0.5628,-0.7684,0.0938
11.5020,-0.5628,-0.7684,0.0938
11.5020,-0.5628,-0.7684,0.0938
11.5230,-0.5716,-0.7588,0.0892
11.5240,-0.5716,-0.7588,0.0892
11.5240,-0.5716,-0.7588,0.0892
11.5370,-0.5841,-0.7913,0.0809
11.5380,-0.5841,-0.7913,0.0809
11.5410,-0.5841,-0.7913,0.0809
11.5580,-0.5692,-0.8077,0.0990
11.5580,-0.5692,-0.8077,0.0990
11.5590,-0.5692,-0.8077,0.0990
11.5780,-0.5985,-0.7662,0.1232
11.5800,-0.5985,-0.7662,0.1232
11.5810,-0.5985,-0.7662,0.1232
11.5820,-0.5985,-0.7662,0.1232
11.5830,-0.5985,-0.7662,0.1232
11.5910,-0.5985,-0.7662,0.1232
11.6720,-0.5777,-0.7517,0.0902
11.6730,-0.5777,-0.7517,0.0902
11.6730,-0.5777,-0.7517,0.0902
11.6740,-0.5777,-0.7517,0.0902
11.6740,-0.5399,-0.7767,0.0626
11.6740,-0.5399,-0.7767,0.0626
11.6750,-0.5399,-0.7767,0.0626
11.6750,-0.5975,-0.7801,0.1100
11.6750,-0.5975,-0.7801,0.1100
11.6750,-0.5975,-0.7801,0.1100
11.6750,-0.6127,-0.7669,0.1122
11.6760,-0.6127,-0.7669,0.1122
11.6760,-0.6127,-0.7669,0.1122
11.6760,-0.6127,-0.7669,0.1122
11.6770,-0.6127,-0.7669,0.1122
11.6770,-0.5990,-0.7794,0.0909
11.6770,-0.5990,-0.7794,0.0909
11.6770,-0.5990,-0.7794,0.0909
11.6950,-0.5765,-0.7984,0.1066
11.6950,-0.5765,-0.7984,0.1066
11.6960,-0.5765,-0.7984,0.1066
11.7150,-0.5548,-0.7794,0.1102
11.7150,-0.5548,-0.7794,0.1102
11.7160,-0.5548,-0.7794,0.1102
11.7360,-0.5675,-0.7845,0.1039
11.7380,-0.5675,-0.7845,0.1039
11.7380,-0.5675,-0.7845,0.1039
11.7380,-0.5675,-0.7845,0.1039
11.7380,-0.5675,-0.7845,0.1039
11.7570,-0.6315,-0.8116,0.1012
11.7570,-0.6315,-0.8116,0.1012
11.7570,-0.6315,-0.8116,0.1012
11.7750,-0.6369,-0.7989,0.0973
11.7760,-0.6369,-0.7989,0.0973
11.7800,-0.6369,-0.7989,0.0973
11.7880,-0.6369,-0.7989,0.0973
11.7970,-0.5760,-0.7732,0.0995
11.7970,-0.5760,-0.7732,0.0995
11.7980,-0.5760,-0.7732,0.0995
11.8000,-0.5760,-0.7732,0.0995
11.8180,-0.5592,-0.7637,0.0958
11.8180,-0.5592,-0.7637,0.0958
11.8190,-0.5592,-0.7637,0.0958
11.8190,-0.5592,-0.7637,0.0958
11.8200,-0.5592,-0.7637,0.0958
11.8380,-0.5342,-0.7662,0.0902
11.8380,-0.5342,-0.7662,0.0902
11.8390,-0.5342,-0.7662,0.0902
11.8590,-0.5626,-0.7767,0.0897
11.8600,-0.5626,-0.7767,0.0897
11.8600,-0.5626,-0.7767,0.0897
11.8760,-0.6325,-0.7896,0.1278
11.8770,-0.6325,-0.7896,0.1278
11.8770,-0.6325,-0.7896,0.1278
11.8940,-0.5997,-0.7987,0.1178
11.8940,-0.5997,-0.7987,0.1178
11.8950,-0.5997,-0.7987,0.1178
11.8970,-0.5997,-0.7987,0.1178
11.8970,-0.5997,-0.7987,0.1178
11.9160,-0.5440,-0.7872,0.1090
11.9160,-0.5440,-0.7872,0.1090
11.9170,-0.5440,-0.7872,0.1090
11.9330,-0.5562,-0.7869,0.1212
11.9340,-0.5562,-0.7869,0.1212
11.9340,-0.5562,-0.7869,0.1212
11.9520,-0.6112,-0.7948,0.1139
11.9530,-0.6112,-0.7948,0.1139
11.9540,-0.6112,-0.7948,0.1139
11.9740,-0.6273,-0.7916,0.1029
11.9740,-0.6273,-0.7916,0.1029
11.9740,-0.6273,-0.7916,0.1029
11.9750,-0.6273,-0.7916,0.1029
11.9760,-0.6273,-0.7916,0.1029
11.9940,-0.5621,-0.7674,0.0931
11.9940,-0.5621,-0.7674,0.0931
11.9950,-0.5621,-0.7674,0.0931
11.9960,-0.5621,-0.7674,0.0931
12.0130,-0.5394,-0.7667,0.0916
12.0130,-0.5394,-0.7667,0.0916
12.0130,-0.5394,-0.7667,0.0916
12.0330,-0.5562,-0.7754,0.0826
12.0330,-0.5562,-0.7754,0.0826
12.0330,-0.5562,-0.7754,0.0826
12.0570,-0.5838,-0.7769,0.0780
12.0570,-0.5838,-0.7769,0.0780
12.0570,-0.5838,-0.7769,0.0780
12.0580,-0.5838,-0.7769,0.0780
12.0580,-0.5838,-0.7769,0.0780
12.0760,-0.5975,-0.7720,0.0902
12.0760,-0.5975,-0.7720,0.0902
12.0760,-0.5975,-0.7720,0.0902
12.0940,-0.5865,-0.7833,0.0909
12.0940,-0.5865,-0.7833,0.0909
12.0950,-0.5865,-0.7833,0.0909
12.1160,-0.6149,-0.7855,0.1026
12.1160,-0.6149,-0.7855,0.1026
12.1170,-0.6149,-0.7855,0.1026
12.1370,-0.6127,-0.7728,0.1154
12.1380,-0.6127,-0.7728,0.1154
12.1390,-0.6127,-0.7728,0.1154
12.2100,-0.6127,-0.7728,0.1154
12.2100,-0.6127,-0.7728,0.1154
12.2110,-0.6012,-0.7772,0.1114
12.2110,-0.6012,-0.7772,0.1114
12.2110,-0.6012,-0.7772,0.1114
12.2110,-0.5885,-0.7742,0.1039
12.2110,-0.5885,-0.7742,0.1039
12.2120,-0.5885,-0.7742,0.1039
12.2120,-0.5914,-0.7845,0.0748
12.2120,-0.5914,-0.7845,0.0748
12.2120,-0.5914,-0.7845,0.0748
12.2120,-0.5914,-0.7845,0.0748
12.2130,-0.5880,-0.8084,0.0912
12.2130,-0.5880,-0.8084,0.0912
12.2130,-0.5880,-0.8084,0.0912
12.2130,-0.5880,-0.8084,0.0912
12.2130,-0.5880,-0.8084,0.0912
12.2340,-0.5799,-0.7923,0.1173
12.2340,-0.5799,-0.7923,0.1173
12.2340,-0.5799,-0.7923,0.1173
12.2510,-0.5672,-0.7754,0.1176
12.2520,-0.5672,-0.7754,0.1176
12.2560,-0.5672,-0.7754,0.1176
12.2720,-0.5748,-0.7855,0.1261
12.2720,-0.5748,-0.7855,0.1261
12.2730,-0.5748,-0.7855,0.1261
12.2920,-0.5643,-0.7962,0.1114
12.2920,-0.5643,-0.7962,0.1114
12.2920,-0.5643,-0.7962,0.1114
12.2930,-0.5643,-0.7962,0.1114
12.2940,-0.5643,-0.7962,0.1114
12.3110,-0.5604,-0.7864,0.0714
12.3110,-0.5604,-0.7864,0.0714
12.3110,-0.5604,-0.7864,0.0714
12.3310,-0.5807,-0.7735,0.0733
12.3310,-0.5807,-0.7735,0.0733
12.3310,-0.5807,-0.7735,0.0733
12.3510,-0.5929,-0.7725,0.0750
12.3520,-0.5929,-0.7725,0.0750
12.3520,-0.5929,-0.7725,0.0750
12.3720,-0.5721,-0.7723,0.0621
12.3720,-0.5721,-0.7723,0.0621
12.3720,-0.5721,-0.7723,0.0621
12.3740,-0.5721,-0.7723,0.0621
12.3750,-0.5721,-0.7723,0.0621
12.3920,-0.5738,-0.7857,0.0821
12.3950,-0.5738,-0.7857,0.0821
12.3960,-0.5738,-0.7857,0.0821
12.3960,-0.5738,-0.7857,0.0821
12.4130,-0.5667,-0.7950,0.1078
12.4130,-0.5667,-0.7950,0.1078
12.4140,-0.5667,-0.7950,0.1078
12.4320,-0.5513,-0.7845,0.1376
12.4320,-0.5513,-0.7845,0.1376
12.4350,-0.5513,-0.7845,0.1376
12.4520,-0.5814,-0.7623,0.1510
12.4530,-0.5814,-0.7623,0.1510
12.4540,-0.5814,-0.7623,0.1510
12.4540,-0.5814,-0.7623,0.1510
12.4540,-0.5814,-0.7623,0.1510
12.4720,-0.6471,-0.7698,0.1312
12.4740,-0.6471,-0.7698,0.1312
12.4740,-0.6471,-0.7698,0.1312
12.4910,-0.6679,-0.7891,0.1127
12.4920,-0.6679,-0.7891,0.1127
12.4920,-0.6679,-0.7891,0.1127
12.5090,-0.6369,-0.7957,0.0914
12.5100,-0.6369,-0.7957,0.0914
12.5100,-0.6369,-0.7957,0.0914
12.5290,-0.6159,-0.7691,0.0692
12.5290,-0.6159,-0.7691,0.0692
12.5300,-0.6159,-0.7691,0.0692
12.5310,-0.6159,-0.7691,0.0692
12.5310,-0.6159,-0.7691,0.0692
12.5500,-0.5838,-0.7491,0.0604
12.5510,-0.5838,-0.7491,0.0604
12.5510,-0.5838,-0.7491,0.0604
12.5690,-0.5584,-0.7488,0.0679
12.5690,-0.5584,-0.7488,0.0679
12.5700,-0.5584,-0.7488,0.0679
12.5890,-0.5648,-0.7630,0.0821
12.5890,-0.5648,-0.7630,0.0821
12.5890,-0.5648,-0.7630,0.0821
12.5910,-0.5648,-0.7630,0.0821
12.6120,-0.5848,-0.7740,0.0714
12.6130,-0.5848,-0.7740,0.0714
12.6130,-0.5848,-0.7740,0.0714
12.6130,-0.5848,-0.7740,0.0714
12.6140,-0.5848,-0.7740,0.0714
12.6310,-0.5897,-0.7781,0.0635
12.6320,-0.5897,-0.7781,0.0635
12.6320,-0.5897,-0.7781,0.0635
12.6510,-0.5885,-0.7735,0.1024
12.6510,-0.5885,-0.7735,0.1024
12.6510,-0.5885,-0.7735,0.1024
12.6700,-0.6286,-0.7601,0.1449
12.6700,-0.6286,-0.7601,0.1449
12.6710,-0.6286,-0.7601,0.1449
12.6930,-0.5900,-0.7544,0.0985
12.6930,-0.5900,-0.7544,0.0985
12.7530,-0.5900,-0.7544,0.0985
12.7540,-0.5900,-0.7544,0.0985
12.7550,-0.5900,-0.7544,0.0985
12.7550,-0.5692,-0.7642,0.0848
12.7550,-0.5692,-0.7642,0.0848
12.7550,-0.5692,-0.7642,0.0848
12.7560,-0.6278,-0.7659,0.1134
12.7560,-0.6278,-0.7659,0.1134
12.7560,-0.6278,-0.7659,0.1134
12.7570,-0.6349,-0.7774,0.1044
12.7570,-0.6349,-0.7774,0.1044
12.7570,-0.6349,-0.7774,0.1044
12.7680,-0.6149,-0.7904,0.0780
12.7680,-0.6149,-0.7904,0.0780
12.7680,-0.6149,-0.7904,0.0780
12.7700,-0.6149,-0.7904,0.0780
12.7710,-0.6149,-0.7904,0.0780
12.7780,-0.6149,-0.7904,0.0780
12.7900,-0.5904,-0.7732,0.0836
12.7900,-0.5904,-0.7732,0.0836
12.7900,-0.5904,-0.7732,0.0836
12.7920,-0.5904,-0.7732,0.0836
12.8090,-0.5819,-0.7720,0.0892
12.8090,-0.5819,-0.7720,0.0892
12.8090,-0.5819,-0.7720,0.0892
12.8290,-0.5863,-0.7867,0.0846
12.8290,-0.5863,-0.7867,0.0846
12.8290,-0.5863,-0.7867,0.0846
12.8480,-0.5919,-0.7845,0.1188
12.8490,-0.5919,-0.7845,0.1188
12.8490,-0.5919,-0.7845,0.1188
12.8500,-0.5919,-0.7845,0.1188
12.8500,-0.5919,-0.7845,0.1188
12.8700,-0.5870,-0.7730,0.1332
12.8700,-0.5870,-0.7730,0.1332
12.8700,-0.5870,-0.7730,0.1332
12.8890,-0.5597,-0.7654,0.1034
12.8890,-0.5597,-0.7654,0.1034
12.8890,-0.5597,-0.7654,0.1034
12.9100,-0.5887,-0.7718,0.1002
12.9100,-0.5887,-0.7718,0.1002
12.9110,-0.5887,-0.7718,0.1002
12.9270,-0.6000,-0.7752,0.1019
12.9280,-0.6000,-0.7752,0.1019
12.9280,-0.6000,-0.7752,0.1019
12.9290,-0.6000,-0.7752,0.1019
12.9290,-0.6000,-0.7752,0.1019
12.9490,-0.5799,-0.7798,0.0863
12.9490,-0.5799,-0.7798,0.0863
12.9490,-0.5799,-0.7798,0.0863
12.9680,-0.5790,-0.7835,0.0916
12.9680,-0.5790,-0.7835,0.0916
12.9680,-0.5790,-0.7835,0.0916
12.9890,-0.6132,-0.7879,0.1188
12.9890,-0.6132,-0.7879,0.1188
12.9900,-0.6132,-0.7879,0.1188
12.9910,-0.6132,-0.7879,0.1188
13.0090,-0.6210,-0.7813,0.1320
13.0100,-0.6210,-0.7813,0.1320
13.0100,-0.6210,-0.7813,0.1320
13.0110,-0.6210,-0.7813,0.1320
13.0110,-0.6210,-0.7813,0.1320
13.0300,-0.5985,-0.7593,0.0899
13.0300,-0.5985,-0.7593,0.0899
13.0310,-0.5985,-0.7593,0.0899
13.0490,-0.6066,-0.7554,0.0904
13.0490,-0.6066,-0.7554,0.0904
13.0500,-0.6066,-0.7554,0.0904
13.0720,-0.6310,-0.7579,0.0958
13.0730,-0.6310,-0.7579,0.0958
13.0730,-0.6310,-0.7579,0.0958
13.0860,-0.6254,-0.7637,0.1041
13.0870,-0.6254,-0.7637,0.1041
13.0870,-0.6254,-0.7637,0.1041
13.0880,-0.6254,-0.7637,0.1041
13.0880,-0.6254,-0.7637,0.1041
13.1070,-0.6259,-0.7579,0.0814
13.1070,-0.6259,-0.7579,0.0814
13.1070,-0.6259,-0.7579,0.0814
13.1250,-0.5902,-0.7601,0.0882
13.1260,-0.5902,-0.7601,0.0882
13.1260,-0.5902,-0.7601,0.0882
13.1460,-0.5995,-0.7715,0.0931
13.1470,-0.5995,-0.7715,0.0931
13.1470,-0.5995,-0.7715,0.0931
13.1650,-0.6120,-0.7583,0.0816
13.1660,-0.6120,-0.7583,0.0816
13.1660,-0.6120,-0.7583,0.0816
13.1670,-0.6120,-0.7583,0.0816
13.1680,-0.6120,-0.7583,0.0816
13.1860,-0.6156,-0.7574,0.0938
13.1860,-0.6156,-0.7574,0.0938
13.1870,-0.6156,-0.7574,0.0938
13.1880,-0.6156,-0.7574,0.0938
13.2060,-0.5953,-0.7740,0.1058
13.2060,-0.5953,-0.7740,0.1058
13.2060,-0.5953,-0.7740,0.1058
13.2260,-0.5743,-0.7667,0.0943
13.2260,-0.5743,-0.7667,0.0943
13.2260,-0.5743,-0.7667,0.0943
13.2640,-0.5885,-0.7491,0.0916
13.2650,-0.5885,-0.7491,0.0916
13.2650,-0.5885,-0.7491,0.0916
13.2650,-0.5885,-0.7491,0.0916
13.2650,-0.5885,-0.7491,0.0916
13.2660,-0.6222,-0.7615,0.1119
13.2660,-0.6222,-0.7615,0.1119
13.2660,-0.6222,-0.7615,0.1119
13.2880,-0.5736,-0.7774,0.0738
13.2880,-0.5736,-0.7774,0.0738
13.2880,-0.5736,-0.7774,0.0738
13.3070,-0.5658,-0.7867,0.0931
13.3070,-0.5658,-0.7867,0.0931
13.3070,-0.5658,-0.7867,0.0931
13.3330,-0.6281,-0.7808,0.1073
13.3330,-0.6281,-0.7808,0.1073
13.3330,-0.6281,-0.7808,0.1073
13.3330,-0.6281,-0.7808,0.1073
13.3340,-0.6281,-0.7808,0.1073
13.3470,-0.6542,-0.7640,0.1041
13.3480,-0.6542,-0.7640,0.1041
13.3480,-0.6542,-0.7640,0.1041
13.3660,-0.6357,-0.7574,0.0951
13.3670,-0.6357,-0.7574,0.0951
13.3670,-0.6357,-0.7574,0.0951
13.3760,-0.6357,-0.7574,0.0951
13.3850,-0.6161,-0.7669,0.0890
13.3860,-0.6161,-0.7669,0.0890
13.3870,-0.6161,-0.7669,0.0890
13.3880,-0.6161,-0.7669,0.0890
13.4050,-0.5992,-0.7671,0.1051
13.4060,-0.5992,-0.7671,0.1051
13.4060,-0.5992,-0.7671,0.1051
13.4080,-0.5992,-0.7671,0.1051
13.4090,-0.5992,-0.7671,0.1051
13.4280,-0.5892,-0.7669,0.0941
13.4300,-0.5892,-0.7669,0.0941
13.4300,-0.5892,-0.7669,0.0941
13.4450,-0.5645,-0.7855,0.0968
13.4450,-0.5645,-0.7855,0.0968
13.4460,-0.5645,-0.7855,0.0968
13.4650,-0.5743,-0.7855,0.0936
13.4650,-0.5743,-0.7855,0.0936
13.4660,-0.5743,-0.7855,0.0936
13.4880,-0.5951,-0.7740,0.0638
13.4880,-0.5951,-0.7740,0.0638
13.4890,-0.5951,-0.7740,0.0638
13.4890,-0.5951,-0.7740,0.0638
13.4900,-0.5951,-0.7740,0.0638
13.5080,-0.5887,-0.7742,0.0728
13.5090,-0.5887,-0.7742,0.0728
13.5090,-0.5887,-0.7742,0.0728
13.5280,-0.5838,-0.7669,0.0968
13.5290,-0.5838,-0.7669,0.0968
13.5310,-0.5838,-0.7669,0.0968
13.5460,-0.5900,-0.7689,0.1195
13.5460,-0.5900,-0.7689,0.1195
13.5470,-0.5900,-0.7689,0.1195
13.5650,-0.6156,-0.7791,0.1088
13.5660,-0.6156,-0.7791,0.1088
13.5670,-0.6156,-0.7791,0.1088
13.5670,-0.6156,-0.7791,0.1088
13.5670,-0.6156,-0.7791,0.1088
13.5850,-0.5907,-0.7759,0.1070
13.5860,-0.5907,-0.7759,0.1070
13.5870,-0.5907,-0.7759,0.1070
13.5870,-0.5907,-0.7759,0.1070
13.6040,-0.5604,-0.7710,0.1036
13.6050,-0.5604,-0.7710,0.1036
13.6050,-0.5604,-0.7710,0.1036
13.6250,-0.6215,-0.7583,0.0907
13.6280,-0.6215,-0.7583,0.0907
13.6290,-0.6215,-0.7583,0.0907
13.6450,-0.6129,-0.7561,0.0780
13.6460,-0.6129,-0.7561,0.0780
13.6460,-0.6129,-0.7561,0.0780
13.6470,-0.6129,-0.7561,0.0780
13.6470,-0.6129,-0.7561,0.0780
13.6650,-0.6002,-0.7754,0.0880
13.6660,-0.6002,-0.7754,0.0880
13.6660,-0.6002,-0.7754,0.0880
13.6840,-0.6190,-0.7759,0.0892
13.6850,-0.6190,-0.7759,0.0892
13.6850,-0.6190,-0.7759,0.0892
13.7030,-0.6166,-0.7664,0.0806
13.7030,-0.6166,-0.7664,0.0806
13.7040,-0.6166,-0.7664,0.0806
13.7220,-0.5970,-0.7659,0.0723
13.7230,-0.5970,-0.7659,0.0723
13.7230,-0.5970,-0.7659,0.0723
13.7240,-0.5970,-0.7659,0.0723
13.7250,-0.5970,-0.7659,0.0723
13.7430,-0.6063,-0.7689,0.0743
13.7430,-0.6063,-0.7689,0.0743
13.7430,-0.6063,-0.7689,0.0743
13.7610,-0.5944,-0.7654,0.0831
13.7610,-0.5944,-0.7654,0.0831
13.7610,-0.5944,-0.7654,0.0831
13.7820,-0.5650,-0.7620,0.0914
13.7820,-0.5650,-0.7620,0.0914
13.8250,-0.5650,-0.7620,0.0914
13.8250,-0.5650,-0.7620,0.0914
13.8250,-0.5948,-0.7635,0.0924
13.8260,-0.5948,-0.7635,0.0924
13.8260,-0.5948,-0.7635,0.0924
13.8260,-0.5948,-0.7635,0.0924
13.8260,-0.5948,-0.7635,0.0924
13.8260,-0.6232,-0.7630,0.0978
13.8260,-0.6232,-0.7630,0.0978
13.8260,-0.6232,-0.7630,0.0978
13.8440,-0.6212,-0.7693,0.0787
13.8440,-0.6212,-0.7693,0.0787
13.8440,-0.6212,-0.7693,0.0787
13.8620,-0.6083,-0.7759,0.0792
13.8620,-0.6083,-0.7759,0.0792
13.8620,-0.6083,-0.7759,0.0792
13.8830,-0.6151,-0.7625,0.0926
13.8840,-0.6151,-0.7625,0.0926
13.8840,-0.6151,-0.7625,0.0926
13.8840,-0.6151,-0.7625,0.0926
13.8840,-0.6151,-0.7625,0.0926
13.9040,-0.6105,-0.7561,0.0868
13.9040,-0.6105,-0.7561,0.0868
13.9040,-0.6105,-0.7561,0.0868
13.9240,-0.6164,-0.7657,0.0841
13.9240,-0.6164,-0.7657,0.0841
13.9240,-0.6164,-0.7657,0.0841
13.9420,-0.6181,-0.7750,0.0958
13.9420,-0.6181,-0.7750,0.0958
13.9430,-0.6181,-0.7750,0.0958
13.9620,-0.6000,-0.7877,0.0956
13.9620,-0.6000,-0.7877,0.0956
13.9620,-0.6000,-0.7877,0.0956
13.9680,-0.6000,-0.7877,0.0956
13.9680,-0.6000,-0.7877,0.0956
13.9820,-0.5531,-0.7820,0.0916
13.9830,-0.5531,-0.7820,0.0916
13.9830,-0.5531,-0.7820,0.0916
13.9830,-0.5531,-0.7820,0.0916
14.0040,-0.5728,-0.7794,0.1190
14.0040,-0.5728,-0.7794,0.1190
14.0040,-0.5728,-0.7794,0.1190
14.0220,-0.5978,-0.7745,0.1024
14.0220,-0.5978,-0.7745,0.1024
14.0230,-0.5978,-0.7745,0.1024
14.0420,-0.5882,-0.7539,0.0701
14.0430,-0.5882,-0.7539,0.0701
14.0430,-0.5882,-0.7539,0.0701
14.0440,-0.5882,-0.7539,0.0701
14.0450,-0.5882,-0.7539,0.0701
14.0620,-0.6022,-0.7625,0.0469
14.0630,-0.6022,-0.7625,0.0469
14.0640,-0.6022,-0.7625,0.0469
14.0820,-0.6034,-0.7725,0.0648
14.0830,-0.6034,-0.7725,0.0648
14.0860,-0.6034,-0.7725,0.0648
14.1010,-0.5926,-0.7781,0.0973
14.1010,-0.5926,-0.7781,0.0973
14.1020,-0.5926,-0.7781,0.0973
14.1210,-0.5809,-0.7820,0.1202
14.1220,-0.5809,-0.7820,0.1202
14.1250,-0.5809,-0.7820,0.1202
14.1250,-0.5809,-0.7820,0.1202
14.1260,-0.5809,-0.7820,0.1202
14.1420,-0.6019,-0.7740,0.1366
14.1430,-0.6019,-0.7740,0.1366
14.1430,-0.6019,-0.7740,0.1366
14.1630,-0.6369,-0.7571,0.1464
14.1640,-0.6369,-0.7571,0.1464
14.1640,-0.6369,-0.7571,0.1464
14.1800,-0.6330,-0.7879,0.1256
14.1810,-0.6330,-0.7879,0.1256
14.1810,-0.6330,-0.7879,0.1256
14.1820,-0.6330,-0.7879,0.1256
14.2010,-0.5714,-0.7723,0.0675
14.2010,-0.5714,-0.7723,0.0675
14.2020,-0.5714,-0.7723,0.0675
14.2020,-0.5714,-0.7723,0.0675
14.2030,-0.5714,-0.7723,0.0675
14.2210,-0.6379,-0.7679,0.0741
14.2210,-0.6379,-0.7679,0.0741
14.2220,-0.6379,-0.7679,0.0741
14.2420,-0.6750,-0.7710,0.0860
14.2420,-0.6750,-0.7710,0.0860
14.2430,-0.6750,-0.7710,0.0860
14.2630,-0.5704,-0.7508,0.0506
14.2640,-0.5704,-0.7508,0.0506
14.2640,-0.5704,-0.7508,0.0506
14.2820,-0.5614,-0.7505,0.0401
14.2830,-0.5614,-0.7505,0.0401
14.2830,-0.5614,-0.7505,0.0401
14.2860,-0.5614,-0.7505,0.0401
14.2870,-0.5614,-0.7505,0.0401
14.3010,-0.5733,-0.7574,0.0591
14.3010,-0.5733,-0.7574,0.0591
14.3020,-0.5733,-0.7574,0.0591
14.3190,-0.5601,-0.7610,0.0709
14.3200,-0.5601,-0.7610,0.0709
14.3200,-0.5601,-0.7610,0.0709
14.3380,-0.5469,-0.7637,0.0850
14.3850,-0.5469,-0.7637,0.0850
14.3850,-0.5469,-0.7637,0.0850
14.3850,-0.6046,-0.7728,0.1012
14.3860,-0.6046,-0.7728,0.1012
14.3860,-0.6046,-0.7728,0.1012
14.3860,-0.6046,-0.7728,0.1012
14.3860,-0.6046,-0.7728,0.1012
14.3870,-0.6401,-0.7757,0.1134
14.3870,-0.6401,-0.7757,0.1134
14.3870,-0.6401,-0.7757,0.1134
14.3870,-0.6401,-0.7757,0.1134
14.4000,-0.6506,-0.7869,0.1180
14.4000,-0.6506,-0.7869,0.1180
14.4000,-0.6506,-0.7869,0.1180
14.4190,-0.6755,-0.7813,0.1092
14.4190,-0.6755,-0.7813,0.1092
14.4190,-0.6755,-0.7813,0.1092
14.4400,-0.6415,-0.7608,0.0824
14.4400,-0.6415,-0.7608,0.0824
14.4400,-0.6415,-0.7608,0.0824
14.4400,-0.6415,-0.7608,0.0824
14.4410,-0.6415,-0.7608,0.0824
14.4590,-0.6046,-0.7579,0.0640
14.4590,-0.6046,-0.7579,0.0640
14.4590,-0.6046,-0.7579,0.0640
14.4790,-0.5936,-0.7525,0.0745
14.4800,-0.5936,-0.7525,0.0745
14.4800,-0.5936,-0.7525,0.0745
14.4980,-0.5890,-0.7525,0.0750
14.4980,-0.5890,-0.7525,0.0750
14.4980,-0.5890,-0.7525,0.0750
14.5180,-0.5975,-0.7708,0.0824
14.5180,-0.5975,-0.7708,0.0824
14.5190,-0.5975,-0.7708,0.0824
14.5200,-0.5975,-0.7708,0.0824
14.5210,-0.5975,-0.7708,0.0824
14.5380,-0.6339,-0.7816,0.0953
14.5380,-0.6339,-0.7816,0.0953
14.5380,-0.6339,-0.7816,0.0953
14.5590,-0.5956,-0.7750,0.0865
14.5590,-0.5956,-0.7750,0.0865
14.5590,-0.5956,-0.7750,0.0865
14.5790,-0.5956,-0.7750,0.0865
14.5800,-0.5689,-0.7674,0.0894
14.5800,-0.5689,-0.7674,0.0894
14.5810,-0.5689,-0.7674,0.0894
14.5990,-0.6012,-0.7671,0.0772
14.6000,-0.6012,-0.7671,0.0772
14.6010,-0.6012,-0.7671,0.0772
14.6010,-0.6012,-0.7671,0.0772
14.6020,-0.6012,-0.7671,0.0772
14.6190,-0.6337,-0.7696,0.0943
14.6200,-0.6337,-0.7696,0.0943
14.6200,-0.6337,-0.7696,0.0943
14.6400,-0.6149,-0.7735,0.1234
14.6410,-0.6149,-0.7735,0.1234
14.6420,-0.6149,-0.7735,0.1234
14.6590,-0.5660,-0.7725,0.1132
14.6600,-0.5660,-0.7725,0.1132
14.6600,-0.5660,-0.7725,0.1132
14.6790,-0.5421,-0.7708,0.1036
14.6800,-0.5421,-0.7708,0.1036
14.6810,-0.5421,-0.7708,0.1036
14.6810,-0.5421,-0.7708,0.1036
14.6820,-0.5421,-0.7708,0.1036
14.6990,-0.5425,-0.7681,0.0877
14.7000,-0.5425,-0.7681,0.0877
14.7000,-0.5425,-0.7681,0.0877
14.7200,-0.6178,-0.7693,0.0982
14.7210,-0.6178,-0.7693,0.0982
14.7210,-0.6178,-0.7693,0.0982
14.7370,-0.6667,-0.7732,0.0946
14.7390,-0.6667,-0.7732,0.0946
14.7390,-0.6667,-0.7732,0.0946
14.7580,-0.6623,-0.7701,0.0846
14.7580,-0.6623,-0.7701,0.0846
14.7590,-0.6623,-0.7701,0.0846
14.7600,-0.6623,-0.7701,0.0846
14.7600,-0.6623,-0.7701,0.0846
14.7650,-0.6623,-0.7701,0.0846
14.7790,-0.6623,-0.7701,0.0846
14.7800,-0.6391,-0.7530,0.0762
14.7810,-0.6391,-0.7530,0.0762
14.7820,-0.6391,-0.7530,0.0762
14.7980,-0.6310,-0.7488,0.0777
14.7980,-0.6310,-0.7488,0.0777
14.7990,-0.6310,-0.7488,0.0777
14.8190,-0.6232,-0.7586,0.0743
14.8190,-0.6232,-0.7586,0.0743
14.8200,-0.6232,-0.7586,0.0743
14.8380,-0.5829,-0.7571,0.0459
14.8380,-0.5829,-0.7571,0.0459
14.8390,-0.5829,-0.7571,0.0459
14.8410,-0.5829,-0.7571,0.0459
14.8420,-0.5829,-0.7571,0.0459
14.8570,-0.6007,-0.7557,0.0547
14.8580,-0.6007,-0.7557,0.0547
14.8580,-0.6007,-0.7557,0.0547
14.8790,-0.6129,-0.7586,0.0758
14.8800,-0.6129,-0.7586,0.0758
14.9360,-0.6129,-0.7586,0.0758
14.9360,-0.5843,-0.7657,0.0921
14.9360,-0.5843,-0.7657,0.0921
14.9370,-0.5843,-0.7657,0.0921
14.9370,-0.5821,-0.7684,0.1078
14.9370,-0.5821,-0.7684,0.1078
14.9370,-0.5821,-0.7684,0.1078
14.9370,-0.5821,-0.7684,0.1078
14.9370,-0.5821,-0.7684,0.1078
14.9380,-0.5968,-0.7654,0.1024
14.9380,-0.5968,-0.7654,0.1024
14.9380,-0.5968,-0.7654,0.1024
14.9550,-0.5944,-0.7576,0.0770
14.9550,-0.5944,-0.7576,0.0770
14.9550,-0.5944,-0.7576,0.0770
14.9730,-0.5944,-0.7576,0.0770
14.9750,-0.5826,-0.7713,0.0868
14.9760,-0.5826,-0.7713,0.0868
14.9760,-0.5826,-0.7713,0.0868
14.9940,-0.6584,-0.7745,0.1036
14.9940,-0.6584,-0.7745,0.1036
14.9940,-0.6584,-0.7745,0.1036
14.9960,-0.6584,-0.7745,0.1036
14.9960,-0.6584,-0.7745,0.1036
15.0140,-0.6801,-0.7564,0.1139
15.0150,-0.6801,-0.7564,0.1139
15.0150,-0.6801,-0.7564,0.1139
15.0350,-0.6344,-0.7564,0.0929
15.0350,-0.6344,-0.7564,0.0929
15.0360,-0.6344,-0.7564,0.0929
15.0540,-0.5929,-0.7637,0.0667
15.0550,-0.5929,-0.7637,0.0667
15.0550,-0.5929,-0.7637,0.0667
15.0770,-0.6046,-0.7696,0.0706
15.0770,-0.6046,-0.7696,0.0706
15.0770,-0.6046,-0.7696,0.0706
15.0770,-0.6046,-0.7696,0.0706
15.0770,-0.6046,-0.7696,0.0706
15.0960,-0.6447,-0.7642,0.1044
15.0960,-0.6447,-0.7642,0.1044
15.0960,-0.6447,-0.7642,0.1044
15.1160,-0.6058,-0.7476,0.1193
15.1160,-0.6058,-0.7476,0.1193
15.1160,-0.6058,-0.7476,0.1193
15.1350,-0.5775,-0.7493,0.0870
15.1360,-0.5775,-0.7493,0.0870
15.1360,-0.5775,-0.7493,0.0870
15.1590,-0.6339,-0.7703,0.0956
15.1590,-0.6339,-0.7703,0.0956
15.1600,-0.6339,-0.7703,0.0956
15.1600,-0.6339,-0.7703,0.0956
15.1610,-0.6339,-0.7703,0.0956
15.1770,-0.6339,-0.7703,0.0956
15.1770,-0.6608,-0.7718,0.1307
15.1780,-0.6608,-0.7718,0.1307
15.1780,-0.6608,-0.7718,0.1307
15.1960,-0.6352,-0.7630,0.1144
15.1970,-0.6352,-0.7630,0.1144
15.1970,-0.6352,-0.7630,0.1144
15.2160,-0.5997,-0.7503,0.0968
15.2170,-0.5997,-0.7503,0.0968
15.2170,-0.5997,-0.7503,0.0968
15.2350,-0.6212,-0.7525,0.1002
15.2360,-0.6212,-0.7525,0.1002
15.2370,-0.6212,-0.7525,0.1002
15.2370,-0.6212,-0.7525,0.1002
15.2380,-0.6212,-0.7525,0.1002
15.2550,-0.6471,-0.7576,0.0929
15.2550,-0.6471,-0.7576,0.0929
15.2560,-0.6471,-0.7576,0.0929
15.2770,-0.6234,-0.7657,0.1000
15.2780,-0.6234,-0.7657,0.1000
15.2790,-0.6234,-0.7657,0.1000
15.2970,-0.6181,-0.7598,0.0872
15.2970,-0.6181,-0.7598,0.0872
15.2980,-0.6181,-0.7598,0.0872
15.3180,-0.6183,-0.7469,0.0980
15.3190,-0.6183,-0.7469,0.0980
15.3200,-0.6183,-0.7469,0.0980
15.3200,-0.6183,-0.7469,0.0980
15.3210,-0.6183,-0.7469,0.0980
15.3370,-0.6076,-0.7593,0.1154
15.3370,-0.6076,-0.7593,0.1154
15.3380,-0.6076,-0.7593,0.1154
15.3580,-0.5980,-0.7696,0.0982
15.3580,-0.5980,-0.7696,0.0982
15.3590,-0.5980,-0.7696,0.0982
15.3590,-0.5980,-0.7696,0.0982
15.3730,-0.5980,-0.7696,0.0982
15.3740,-0.6146,-0.7476,0.0667
15.3740,-0.6146,-0.7476,0.0667
15.3750,-0.6146,-0.7476,0.0667
15.3930,-0.6452,-0.7205,0.0836
15.3940,-0.6452,-0.7205,0.0836
15.3940,-0.6452,-0.7205,0.0836
15.3980,-0.6452,-0.7205,0.0836
15.4010,-0.6452,-0.7205,0.0836
15.4130,-0.6178,-0.7310,0.0902
15.4140,-0.6178,-0.7310,0.0902
15.4140,-0.6178,-0.7310,0.0902
15.4780,-0.5900,-0.7495,0.0887
15.4790,-0.5900,-0.7495,0.0887
15.4790,-0.5900,-0.7495,0.0887
15.4790,-0.6090,-0.7412,0.0809
15.4790,-0.6090,-0.7412,0.0809
15.4800,-0.6090,-0.7412,0.0809
15.4800,-0.6303,-0.7383,0.0784
15.4800,-0.6303,-0.7383,0.0784
15.4800,-0.6303,-0.7383,0.0784
15.4800,-0.6303,-0.7383,0.0784
15.4810,-0.6303,-0.7383,0.0784
15.4920,-0.6156,-0.7464,0.0882
15.4930,-0.6156,-0.7464,0.0882
15.4930,-0.6156,-0.7464,0.0882
15.5120,-0.6256,-0.7410,0.0951
15.5120,-0.6256,-0.7410,0.0951
15.5130,-0.6256,-0.7410,0.0951
15.5310,-0.6513,-0.7400,0.0956
15.5310,-0.6513,-0.7400,0.0956
15.5310,-0.6513,-0.7400,0.0956
15.5510,-0.6599,-0.7552,0.1105
15.5510,-0.6599,-0.7552,0.1105
15.5510,-0.6599,-0.7552,0.1105
15.5530,-0.6599,-0.7552,0.1105
15.5530,-0.6599,-0.7552,0.1105
15.5690,-0.6599,-0.7552,0.1105
15.5710,-0.6361,-0.7588,0.1300
15.5710,-0.6361,-0.7588,0.1300
15.5710,-0.6361,-0.7588,0.1300
15.5920,-0.5831,-0.7500,0.1026
15.5920,-0.5831,-0.7500,0.1026
15.5920,-0.5831,-0.7500,0.1026
15.6100,-0.5873,-0.7288,0.0831
15.6100,-0.5873,-0.7288,0.0831
15.6100,-0.5873,-0.7288,0.0831
15.6310,-0.6166,-0.7200,0.1009
15.6310,-0.6166,-0.7200,0.1009
15.6310,-0.6166,-0.7200,0.1009
15.6330,-0.6166,-0.7200,0.1009
15.6330,-0.6166,-0.7200,0.1009
15.6500,-0.6054,-0.7307,0.0890
15.6510,-0.6054,-0.7307,0.0890
15.6510,-0.6054,-0.7307,0.0890
15.6730,-0.6244,-0.7420,0.0748
15.6740,-0.6244,-0.7420,0.0748
15.6740,-0.6244,-0.7420,0.0748
15.6920,-0.6762,-0.7505,0.0733
15.6930,-0.6762,-0.7505,0.0733
15.6940,-0.6762,-0.7505,0.0733
15.7130,-0.6738,-0.7471,0.1012
15.7140,-0.6738,-0.7471,0.1012
15.7150,-0.6738,-0.7471,0.1012
15.7160,-0.6738,-0.7471,0.1012
15.7160,-0.6738,-0.7471,0.1012
15.7320,-0.6234,-0.7332,0.1068
15.7320,-0.6234,-0.7332,0.1068
15.7330,-0.6234,-0.7332,0.1068
15.7520,-0.6120,-0.7268,0.0963
15.7570,-0.6120,-0.7268,0.0963
15.7580,-0.6120,-0.7268,0.0963
15.7710,-0.6120,-0.7268,0.0963
15.7750,-0.6320,-0.7405,0.0914
15.7760,-0.6320,-0.7405,0.0914
15.7760,-0.6320,-0.7405,0.0914
15.7950,-0.6349,-0.7679,0.0982
15.7960,-0.6349,-0.7679,0.0982
15.7960,-0.6349,-0.7679,0.0982
15.7970,-0.6349,-0.7679,0.0982
15.7970,-0.6349,-0.7679,0.0982
15.8110,-0.6506,-0.7811,0.1029
15.8110,-0.6506,-0.7811,0.1029
15.8120,-0.6506,-0.7811,0.1029
15.8330,-0.6567,-0.7730,0.0953
15.8340,-0.6567,-0.7730,0.0953
15.8340,-0.6567,-0.7730,0.0953
15.8500,-0.6584,-0.7588,0.0956
15.8510,-0.6584,-0.7588,0.0956
15.8510,-0.6584,-0.7588,0.0956
15.8750,-0.6718,-0.7537,0.0987
15.8750,-0.6718,-0.7537,0.0987
15.8760,-0.6718,-0.7537,0.0987
15.8770,-0.6718,-0.7537,0.0987
15.8780,-0.6718,-0.7537,0.0987
15.8940,-0.6760,-0.7544,0.0870
15.8950,-0.6760,-0.7544,0.0870
15.8950,-0.6760,-0.7544,0.0870
15.9130,-0.6352,-0.7412,0.0948
15.9140,-0.6352,-0.7412,0.0948
15.9150,-0.6352,-0.7412,0.0948
15.9310,-0.6425,-0.7412,0.0973
15.9320,-0.6425,-0.7412,0.0973
15.9320,-0.6425,-0.7412,0.0973
15.9520,-0.6628,-0.7491,0.0709
15.9520,-0.6628,-0.7491,0.0709
15.9530,-0.6628,-0.7491,0.0709
15.9530,-0.6628,-0.7491,0.0709
15.9530,-0.6628,-0.7491,0.0709
15.9690,-0.6628,-0.7491,0.0709
15.9700,-0.6418,-0.7657,0.0750
15.9710,-0.6418,-0.7657,0.0750
16.0440,-0.6418,-0.7657,0.0750
16.0440,-0.6029,-0.7674,0.1051
16.0440,-0.6029,-0.7674,0.1051
16.0440,-0.6029,-0.7674,0.1051
16.0440,-0.6183,-0.7241,0.0997
16.0450,-0.6183,-0.7241,0.0997
16.0450,-0.6183,-0.7241,0.0997
16.0450,-0.6217,-0.6987,0.0841
16.0450,-0.6217,-0.6987,0.0841
16.0450,-0.6217,-0.6987,0.0841
16.0460,-0.6217,-0.6987,0.0841
16.0460,-0.6217,-0.6987,0.0841
16.0490,-0.6342,-0.7307,0.0958
16.0490,-0.6342,-0.7307,0.0958
16.0490,-0.6342,-0.7307,0.0958
16.0690,-0.6335,-0.7505,0.1056
16.0700,-0.6335,-0.7505,0.1056
16.0700,-0.6335,-0.7505,0.1056
16.0880,-0.6032,-0.7356,0.0890
16.0880,-0.6032,-0.7356,0.0890
16.0880,-0.6032,-0.7356,0.0890
16.1080,-0.6054,-0.7275,0.0880
16.1080,-0.6054,-0.7275,0.0880
16.1080,-0.6054,-0.7275,0.0880
16.1100,-0.6054,-0.7275,0.0880
16.1100,-0.6054,-0.7275,0.0880
16.1280,-0.6132,-0.7293,0.0975
16.1280,-0.6132,-0.7293,0.0975
16.1280,-0.6132,-0.7293,0.0975
16.1490,-0.6083,-0.7337,0.1132
16.1490,-0.6083,-0.7337,0.1132
16.1490,-0.6083,-0.7337,0.1132
16.1650,-0.6083,-0.7337,0.1132
16.1670,-0.6650,-0.7535,0.1334
16.1670,-0.6650,-0.7535,0.1334
16.1680,-0.6650,-0.7535,0.1334
16.1890,-0.6674,-0.7689,0.1224
16.1890,-0.6674,-0.7689,0.1224
16.1890,-0.6674,-0.7689,0.1224
16.1890,-0.6674,-0.7689,0.1224
16.1910,-0.6674,-0.7689,0.1224
16.2080,-0.6122,-0.7801,0.1026
16.2090,-0.6122,-0.7801,0.1026
16.2090,-0.6122,-0.7801,0.1026
16.2300,-0.6083,-0.7637,0.0909
16.2310,-0.6083,-0.7637,0.0909
16.2310,-0.6083,-0.7637,0.0909
16.2490,-0.6435,-0.7322,0.0628
16.2490,-0.6435,-0.7322,0.0628
16.2500,-0.6435,-0.7322,0.0628
16.2700,-0.6608,-0.7244,0.0848
16.2700,-0.6608,-0.7244,0.0848
16.2710,-0.6608,-0.7244,0.0848
16.2710,-0.6608,-0.7244,0.0848
16.2710,-0.6608,-0.7244,0.0848
16.2900,-0.6838,-0.7500,0.1144
16.2900,-0.6838,-0.7500,0.1144
16.2910,-0.6838,-0.7500,0.1144
16.3100,-0.6256,-0.7300,0.1063
16.3110,-0.6256,-0.7300,0.1063
16.3120,-0.6256,-0.7300,0.1063
16.3300,-0.5851,-0.7266,0.1285
16.3310,-0.5851,-0.7266,0.1285
16.3320,-0.5851,-0.7266,0.1285
16.3500,-0.6291,-0.7525,0.1442
16.3510,-0.6291,-0.7525,0.1442
16.3510,-0.6291,-0.7525,0.1442
16.3510,-0.6291,-0.7525,0.1442
16.3520,-0.6291,-0.7525,0.1442
16.3660,-0.6291,-0.7525,0.1442
16.3660,-0.6498,-0.7664,0.1249
16.3670,-0.6498,-0.7664,0.1249
16.3670,-0.6498,-0.7664,0.1249
16.3910,-0.6342,-0.7603,0.0975
16.3920,-0.6342,-0.7603,0.0975
16.3920,-0.6342,-0.7603,0.0975
16.4080,-0.6271,-0.7415,0.0841
16.4080,-0.6271,-0.7415,0.0841
16.4090,-0.6271,-0.7415,0.0841
16.4290,-0.6327,-0.7312,0.0760
16.4310,-0.6327,-0.7312,0.0760
16.4310,-0.6327,-0.7312,0.0760
16.4320,-0.6327,-0.7312,0.0760
16.4320,-0.6327,-0.7312,0.0760
16.4480,-0.6071,-0.7327,0.0789
16.4490,-0.6071,-0.7327,0.0789
16.4490,-0.6071,-0.7327,0.0789
16.4710,-0.5887,-0.7346,0.0858
16.4720,-0.5887,-0.7346,0.0858
16.4730,-0.5887,-0.7346,0.0858
16.4880,-0.6066,-0.7351,0.0948
16.4890,-0.6066,-0.7351,0.0948
16.4890,-0.6066,-0.7351,0.0948
16.5080,-0.6313,-0.7449,0.1061
16.5080,-0.6313,-0.7449,0.1061
16.5090,-0.6313,-0.7449,0.1061
16.5090,-0.6313,-0.7449,0.1061
16.5100,-0.6313,-0.7449,0.1061
16.5290,-0.6640,-0.7605,0.1256
16.5300,-0.6640,-0.7605,0.1256
16.6070,-0.6640,-0.7605,0.1256
16.6070,-0.7012,-0.7679,0.1442
16.6080,-0.7012,-0.7679,0.1442
16.6080,-0.7012,-0.7679,0.1442
16.6080,-0.7012,-0.7679,0.1442
16.6080,-0.6787,-0.7498,0.1188
16.6080,-0.6787,-0.7498,0.1188
16.6080,-0.6787,-0.7498,0.1188
16.6090,-0.6357,-0.7407,0.1009
16.6090,-0.6357,-0.7407,0.1009
16.6090,-0.6357,-0.7407,0.1009
16.6090,-0.6357,-0.7407,0.1009
16.6090,-0.6357,-0.7407,0.1009
16.6090,-0.6269,-0.7405,0.1036
16.6090,-0.6269,-0.7405,0.1036
16.6100,-0.6269,-0.7405,0.1036
16.6250,-0.6120,-0.7544,0.1002
16.6260,-0.6120,-0.7544,0.1002
16.6260,-0.6120,-0.7544,0.1002
16.6440,-0.6286,-0.7517,0.1066
16.6440,-0.6286,-0.7517,0.1066
16.6440,-0.6286,-0.7517,0.1066
16.6640,-0.6032,-0.7341,0.1004
16.6640,-0.6032,-0.7341,0.1004
16.6640,-0.6032,-0.7341,0.1004
16.6660,-0.6032,-0.7341,0.1004
16.6670,-0.6032,-0.7341,0.1004
16.6840,-0.6032,-0.7307,0.0877
16.6840,-0.6032,-0.7307,0.0877
16.6840,-0.6032,-0.7307,0.0877
16.7050,-0.6349,-0.7368,0.1134
16.7050,-0.6349,-0.7368,0.1134
16.7050,-0.6349,-0.7368,0.1134
16.7250,-0.6579,-0.7420,0.1215
16.7250,-0.6579,-0.7420,0.1215
16.7260,-0.6579,-0.7420,0.1215
16.7440,-0.6491,-0.7493,0.1039
16.7450,-0.6491,-0.7493,0.1039
16.7450,-0.6491,-0.7493,0.1039
16.7460,-0.6491,-0.7493,0.1039
16.7460,-0.6491,-0.7493,0.1039
16.7610,-0.6491,-0.7493,0.1039
16.7640,-0.6364,-0.7520,0.1058
16.7640,-0.6364,-0.7520,0.1058
16.7640,-0.6364,-0.7520,0.1058
16.7860,-0.6403,-0.7459,0.1146
16.7860,-0.6403,-0.7459,0.1146
16.7870,-0.6403,-0.7459,0.1146
16.8050,-0.6613,-0.7337,0.1070
16.8050,-0.6613,-0.7337,0.1070
16.8050,-0.6613,-0.7337,0.1070
16.8270,-0.6550,-0.7297,0.0843
16.8270,-0.6550,-0.7297,0.0843
16.8270,-0.6550,-0.7297,0.0843
16.8280,-0.6550,-0.7297,0.0843
16.8280,-0.6550,-0.7297,0.0843
16.8450,-0.6176,-0.7376,0.0907
16.8450,-0.6176,-0.7376,0.0907
16.8450,-0.6176,-0.7376,0.0907
16.8670,-0.6449,-0.7469,0.1029
16.8670,-0.6449,-0.7469,0.1029
16.8670,-0.6449,-0.7469,0.1029
16.8850,-0.6440,-0.7349,0.1212
16.8850,-0.6440,-0.7349,0.1212
16.8860,-0.6440,-0.7349,0.1212
16.9050,-0.6430,-0.7420,0.1029
16.9050,-0.6430,-0.7420,0.1029
16.9060,-0.6430,-0.7420,0.1029
16.9060,-0.6430,-0.7420,0.1029
16.9070,-0.6430,-0.7420,0.1029
16.9260,-0.6339,-0.7473,0.1200
16.9270,-0.6339,-0.7473,0.1200
16.9270,-0.6339,-0.7473,0.1200
16.9450,-0.6408,-0.7349,0.1354
16.9460,-0.6408,-0.7349,0.1354
16.9460,-0.6408,-0.7349,0.1354
16.9620,-0.6408,-0.7349,0.1354
16.9650,-0.6457,-0.7258,0.1188
16.9650,-0.6457,-0.7258,0.1188
16.9660,-0.6457,-0.7258,0.1188
16.9840,-0.6528,-0.7263,0.0938
16.9840,-0.6528,-0.7263,0.0938
16.9850,-0.6528,-0.7263,0.0938
16.9860,-0.6528,-0.7263,0.0938
16.9860,-0.6528,-0.7263,0.0938
17.0030,-0.6796,-0.7363,0.0992
17.0040,-0.6796,-0.7363,0.0992
17.0040,-0.6796,-0.7363,0.0992
17.0250,-0.6454,-0.7439,0.1078
17.0250,-0.6454,-0.7439,0.1078
17.0260,-0.6454,-0.7439,0.1078
17.0440,-0.6073,-0.7153,0.0863
17.0440,-0.6073,-0.7153,0.0863
17.0450,-0.6073,-0.7153,0.0863
17.0630,-0.6315,-0.6941,0.0765
17.0640,-0.6315,-0.6941,0.0765
17.0640,-0.6315,-0.6941,0.0765
17.0650,-0.6315,-0.6941,0.0765
17.0660,-0.6315,-0.6941,0.0765
17.0840,-0.6484,-0.7112,0.0902
17.1720,-0.6484,-0.7112,0.0902
17.1720,-0.6484,-0.7112,0.0902
17.1730,-0.6457,-0.7429,0.1080
17.1730,-0.6457,-0.7429,0.1080
17.1740,-0.6457,-0.7429,0.1080
17.1740,-0.6322,-0.7337,0.1132
17.1740,-0.6322,-0.7337,0.1132
17.1750,-0.6322,-0.7337,0.1132
17.1750,-0.6457,-0.7080,0.1095
17.1750,-0.6457,-0.7080,0.1095
17.1750,-0.6457,-0.7080,0.1095
17.1750,-0.6457,-0.7080,0.1095
17.1760,-0.6457,-0.7080,0.1095
17.1760,-0.6457,-0.7080,0.1095
17.1760,-0.6836,-0.7280,0.1342
17.1770,-0.6836,-0.7280,0.1342
17.1770,-0.6836,-0.7280,0.1342
17.1830,-0.6584,-0.7442,0.1124
17.1830,-0.6584,-0.7442,0.1124
17.1840,-0.6584,-0.7442,0.1124
17.2020,-0.6410,-0.7425,0.1198
17.2020,-0.6410,-0.7425,0.1198
17.2020,-0.6410,-0.7425,0.1198
17.2210,-0.6625,-0.7354,0.1317
17.2220,-0.6625,-0.7354,0.1317
17.2220,-0.6625,-0.7354,0.1317
17.2230,-0.6625,-0.7354,0.1317
17.2230,-0.6625,-0.7354,0.1317
17.2410,-0.6489,-0.7100,0.1193
17.2410,-0.6489,-0.7100,0.1193
17.2420,-0.6489,-0.7100,0.1193
17.2600,-0.6518,-0.6990,0.0877
17.2610,-0.6518,-0.6990,0.0877
17.2610,-0.6518,-0.6990,0.0877
17.2820,-0.6315,-0.7542,0.1034
17.2820,-0.6315,-0.7542,0.1034
17.2820,-0.6315,-0.7542,0.1034
17.3020,-0.5966,-0.7613,0.1198
17.3020,-0.5966,-0.7613,0.1198
17.3020,-0.5966,-0.7613,0.1198
17.3040,-0.5966,-0.7613,0.1198
17.3040,-0.5966,-0.7613,0.1198
17.3220,-0.6361,-0.7263,0.1205
17.3220,-0.6361,-0.7263,0.1205
17.3220,-0.6361,-0.7263,0.1205
17.3430,-0.6677,-0.7557,0.1486
17.3430,-0.6677,-0.7557,0.1486
17.3430,-0.6677,-0.7557,0.1486
17.3570,-0.6677,-0.7557,0.1486
17.3630,-0.6518,-0.7710,0.1432
17.3630,-0.6518,-0.7710,0.1432
17.3630,-0.6518,-0.7710,0.1432
17.3820,-0.6420,-0.7513,0.1337
17.3830,-0.6420,-0.7513,0.1337
17.3830,-0.6420,-0.7513,0.1337
17.3830,-0.6420,-0.7513,0.1337
17.4020,-0.6445,-0.7258,0.1281
17.4020,-0.6445,-0.7258,0.1281
17.4020,-0.6445,-0.7258,0.1281
17.4220,-0.6577,-0.7002,0.1063
17.4220,-0.6577,-0.7002,0.1063
17.4220,-0.6577,-0.7002,0.1063
17.4430,-0.6650,-0.6992,0.0848
17.4430,-0.6650,-0.6992,0.0848
17.4440,-0.6650,-0.6992,0.0848
17.4620,-0.6454,-0.7310,0.0816
17.4620,-0.6454,-0.7310,0.0816
17.4640,-0.6454,-0.7310,0.0816
17.4640,-0.6454,-0.7310,0.0816
17.4650,-0.6454,-0.7310,0.0816
17.4810,-0.6300,-0.7618,0.1158
17.4820,-0.6300,-0.7618,0.1158
17.4830,-0.6300,-0.7618,0.1158
17.5030,-0.6330,-0.7417,0.1266
17.5030,-0.6330,-0.7417,0.1266
17.5050,-0.6330,-0.7417,0.1266
17.5210,-0.6374,-0.7112,0.1215
17.5210,-0.6374,-0.7112,0.1215
17.5220,-0.6374,-0.7112,0.1215
17.5430,-0.6569,-0.7244,0.1364
17.5440,-0.6569,-0.7244,0.1364
17.5440,-0.6569,-0.7244,0.1364
17.5460,-0.6569,-0.7244,0.1364
17.5470,-0.6569,-0.7244,0.1364
17.5470,-0.6569,-0.7244,0.1364
17.5600,-0.6569,-0.7244,0.1364
17.5600,-0.6608,-0.7324,0.1378
17.5610,-0.6608,-0.7324,0.1378
17.5610,-0.6608,-0.7324,0.1378
17.5800,-0.6586,-0.7217,0.1290
17.5810,-0.6586,-0.7217,0.1290
17.5810,-0.6586,-0.7217,0.1290
17.6010,-0.6550,-0.7168,0.0963
17.6020,-0.6550,-0.7168,0.0963
17.6050,-0.6550,-0.7168,0.0963
17.6220,-0.6295,-0.7224,0.0797
17.6230,-0.6295,-0.7224,0.0797
17.6240,-0.6295,-0.7224,0.0797
17.6240,-0.6295,-0.7224,0.0797
17.6250,-0.6295,-0.7224,0.0797
17.6900,-0.6149,-0.7161,0.0816
17.6900,-0.6149,-0.7161,0.0816
17.6900,-0.6149,-0.7161,0.0816
17.6910,-0.6300,-0.7153,0.0846
17.6910,-0.6300,-0.7153,0.0846
17.6910,-0.6300,-0.7153,0.0846
17.6910,-0.6364,-0.7300,0.0916
17.6910,-0.6364,-0.7300,0.0916
17.6910,-0.6364,-0.7300,0.0916
17.6980,-0.6361,-0.7354,0.1083
17.6980,-0.6361,-0.7354,0.1083
17.6980,-0.6361,-0.7354,0.1083
17.7020,-0.6361,-0.7354,0.1083
17.7030,-0.6361,-0.7354,0.1083
17.7180,-0.6657,-0.7244,0.1457
17.7180,-0.6657,-0.7244,0.1457
17.7180,-0.6657,-0.7244,0.1457
17.7390,-0.6767,-0.7327,0.1454
17.7390,-0.6767,-0.7327,0.1454
17.7400,-0.6767,-0.7327,0.1454
17.7420,-0.6767,-0.7327,0.1454
17.7550,-0.6767,-0.7327,0.1454
17.7580,-0.6503,-0.7361,0.1075
17.7590,-0.6503,-0.7361,0.1075
17.7590,-0.6503,-0.7361,0.1075
17.7810,-0.6796,-0.7456,0.1237
17.7820,-0.6796,-0.7456,0.1237
17.7820,-0.6796,-0.7456,0.1237
17.7830,-0.6796,-0.7456,0.1237
17.7830,-0.6796,-0.7456,0.1237
17.8000,-0.6674,-0.7476,0.1281
17.8000,-0.6674,-0.7476,0.1281
17.8010,-0.6674,-0.7476,0.1281
17.8180,-0.6313,-0.7288,0.1009
17.8180,-0.6313,-0.7288,0.1009
17.8190,-0.6313,-0.7288,0.1009
17.8380,-0.6354,-0.7207,0.1100
17.8380,-0.6354,-0.7207,0.1100
17.8380,-0.6354,-0.7207,0.1100
17.8570,-0.6481,-0.7288,0.1334
17.8580,-0.6481,-0.7288,0.1334
17.8580,-0.6481,-0.7288,0.1334
17.8600,-0.6481,-0.7288,0.1334
17.8600,-0.6481,-0.7288,0.1334
17.8780,-0.6650,-0.7515,0.1403
17.8780,-0.6650,-0.7515,0.1403
17.8780,-0.6650,-0.7515,0.1403
17.8970,-0.6518,-0.7574,0.1222
17.8970,-0.6518,-0.7574,0.1222
17.8970,-0.6518,-0.7574,0.1222
17.9170,-0.6291,-0.7459,0.1097
17.9170,-0.6291,-0.7459,0.1097
17.9170,-0.6291,-0.7459,0.1097
17.9370,-0.6511,-0.7439,0.1202
17.9370,-0.6511,-0.7439,0.1202
17.9370,-0.6511,-0.7439,0.1202
17.9400,-0.6511,-0.7439,0.1202
17.9400,-0.6511,-0.7439,0.1202
17.9530,-0.6511,-0.7439,0.1202
17.9570,-0.6357,-0.7324,0.1278
17.9580,-0.6357,-0.7324,0.1278
17.9580,-0.6357,-0.7324,0.1278
17.9770,-0.6127,-0.7241,0.1146
17.9770,-0.6127,-0.7241,0.1146
17.9780,-0.6127,-0.7241,0.1146
17.9980,-0.6276,-0.7300,0.1048
17.9980,-0.6276,-0.7300,0.1048
17.9980,-0.6276,-0.7300,0.1048
18.0180,-0.6481,-0.7415,0.1046
18.0190,-0.6481,-0.7415,0.1046
18.0190,-0.6481,-0.7415,0.1046
18.0220,-0.6481,-0.7415,0.1046
18.0230,-0.6481,-0.7415,0.1046
18.0400,-0.6335,-0.7388,0.0892
18.0410,-0.6335,-0.7388,0.0892
18.0410,-0.6335,-0.7388,0.0892
18.0600,-0.6278,-0.7368,0.0545
18.0610,-0.6278,-0.7368,0.0545
18.0610,-0.6278,-0.7368,0.0545
18.0780,-0.6083,-0.7471,0.1066
18.0790,-0.6083,-0.7471,0.1066
18.0790,-0.6083,-0.7471,0.1066
18.1010,-0.6909,-0.7129,0.1366
18.1020,-0.6909,-0.7129,0.1366
18.1030,-0.6909,-0.7129,0.1366
18.1030,-0.6909,-0.7129,0.1366
18.1040,-0.6909,-0.7129,0.1366
18.1170,-0.7278,-0.6814,0.1457
18.1180,-0.7278,-0.6814,0.1457
18.1180,-0.7278,-0.6814,0.1457
18.1380,-0.6523,-0.7341,0.1325
18.1390,-0.6523,-0.7341,0.1325
18.1390,-0.6523,-0.7341,0.1325
18.1520,-0.6523,-0.7341,0.1325
18.1570,-0.6342,-0.7603,0.1220
18.1570,-0.6342,-0.7603,0.1220
18.1580,-0.6342,-0.7603,0.1220
18.1780,-0.6633,-0.7557,0.1237
18.1790,-0.6633,-0.7557,0.1237
18.1790,-0.6633,-0.7557,0.1237
18.2480,-0.6633,-0.7557,0.1237
18.2480,-0.6633,-0.7557,0.1237
18.2480,-0.6535,-0.7368,0.1249
18.2490,-0.6535,-0.7368,0.1249
18.2490,-0.6535,-0.7368,0.1249
18.2490,-0.6352,-0.7129,0.1014
18.2490,-0.6352,-0.7129,0.1014
18.2490,-0.6352,-0.7129,0.1014
18.2500,-0.6335,-0.7258,0.0941
18.2500,-0.6335,-0.7258,0.0941
18.2500,-0.6335,-0.7258,0.0941
18.2560,-0.6029,-0.7544,0.0931
18.2560,-0.6029,-0.7544,0.0931
18.2560,-0.6029,-0.7544,0.0931
18.2580,-0.6029,-0.7544,0.0931
18.2580,-0.6029,-0.7544,0.0931
18.2750,-0.5912,-0.7498,0.0985
18.2760,-0.5912,-0.7498,0.0985
18.2760,-0.5912,-0.7498,0.0985
18.2950,-0.6291,-0.7346,0.1161
18.2960,-0.6291,-0.7346,0.1161
18.2960,-0.6291,-0.7346,0.1161
18.3160,-0.6386,-0.7251,0.1256
18.3160,-0.6386,-0.7251,0.1256
18.3160,-0.6386,-0.7251,0.1256
18.3350,-0.6442,-0.7168,0.1288
18.3360,-0.6442,-0.7168,0.1288
18.3370,-0.6442,-0.7168,0.1288
18.3380,-0.6442,-0.7168,0.1288
18.3390,-0.6442,-0.7168,0.1288
18.3510,-0.6442,-0.7168,0.1288
18.3570,-0.6755,-0.7290,0.1413
18.3570,-0.6755,-0.7290,0.1413
18.3580,-0.6755,-0.7290,0.1413
18.3770,-0.6706,-0.7449,0.1303
18.3770,-0.6706,-0.7449,0.1303
18.3780,-0.6706,-0.7449,0.1303
18.3960,-0.6396,-0.7530,0.1249
18.3960,-0.6396,-0.7530,0.1249
18.3970,-0.6396,-0.7530,0.1249
18.4140,-0.6339,-0.7447,0.1151
18.4140,-0.6339,-0.7447,0.1151
18.4140,-0.6339,-0.7447,0.1151
18.4170,-0.6339,-0.7447,0.1151
18.4180,-0.6339,-0.7447,0.1151
18.4350,-0.6330,-0.7280,0.1014
18.4350,-0.6330,-0.7280,0.1014
18.4360,-0.6330,-0.7280,0.1014
18.4540,-0.6142,-0.7293,0.1041
18.4540,-0.6142,-0.7293,0.1041
18.4540,-0.6142,-0.7293,0.1041
18.4750,-0.6051,-0.7378,0.1075
18.4750,-0.6051,-0.7378,0.1075
18.4760,-0.6051,-0.7378,0.1075
18.4950,-0.6310,-0.7302,0.1198
18.4960,-0.6310,-0.7302,0.1198
18.4960,-0.6310,-0.7302,0.1198
18.4980,-0.6310,-0.7302,0.1198
18.4980,-0.6310,-0.7302,0.1198
18.5130,-0.6616,-0.7337,0.1156
18.5130,-0.6616,-0.7337,0.1156
18.5140,-0.6616,-0.7337,0.1156
18.5340,-0.6633,-0.7488,0.1251
18.5340,-0.6633,-0.7488,0.1251
18.5340,-0.6633,-0.7488,0.1251
18.5470,-0.6633,-0.7488,0.1251
18.5530,-0.6474,-0.7329,0.1232
18.5540,-0.6474,-0.7329,0.1232
18.5540,-0.6474,-0.7329,0.1232
18.5740,-0.6019,-0.7136,0.1119
18.5740,-0.6019,-0.7136,0.1119
18.5740,-0.6019,-0.7136,0.1119
18.5760,-0.6019,-0.7136,0.1119
18.5760,-0.6019,-0.7136,0.1119
18.5940,-0.5929,-0.7178,0.1019
18.5940,-0.5929,-0.7178,0.1019
18.5960,-0.5929,-0.7178,0.1019
18.6150,-0.6271,-0.7273,0.1178
18.6160,-0.6271,-0.7273,0.1178
18.6160,-0.6271,-0.7273,0.1178
18.6350,-0.6393,-0.7471,0.1198
18.6360,-0.6393,-0.7471,0.1198
18.6360,-0.6393,-0.7471,0.1198
18.6530,-0.6452,-0.7605,0.1100
18.6540,-0.6452,-0.7605,0.1100
18.6550,-0.6452,-0.7605,0.1100
18.6570,-0.6452,-0.7605,0.1100
18.6570,-0.6452,-0.7605,0.1100
18.6760,-0.6586,-0.7552,0.1161
18.6770,-0.6586,-0.7552,0.1161
18.6770,-0.6586,-0.7552,0.1161
18.6950,-0.6584,-0.7112,0.1613
18.6950,-0.6584,-0.7112,0.1613
18.6960,-0.6584,-0.7112,0.1613
18.7150,-0.6603,-0.7021,0.1215
18.7190,-0.6603,-0.7021,0.1215
18.7200,-0.6603,-0.7021,0.1215
18.7340,-0.6261,-0.7759,0.1202
18.7350,-0.6261,-0.7759,0.1202
18.7350,-0.6261,-0.7759,0.1202
18.7970,-0.6261,-0.7759,0.1202
18.7970,-0.6261,-0.7759,0.1202
18.7980,-0.6261,-0.7759,0.1202
18.7980,-0.6000,-0.8092,0.1354
18.7980,-0.6000,-0.8092,0.1354
18.7980,-0.6000,-0.8092,0.1354
18.7980,-0.6256,-0.7493,0.0909
18.7980,-0.6256,-0.7493,0.0909
18.7980,-0.6256,-0.7493,0.0909
18.7980,-0.6120,-0.7070,0.0550
18.7990,-0.6120,-0.7070,0.0550
18.7990,-0.6120,-0.7070,0.0550
18.8130,-0.5975,-0.7134,0.0484
18.8130,-0.5975,-0.7134,0.0484
18.8130,-0.5975,-0.7134,0.0484
18.8160,-0.5975,-0.7134,0.0484
18.8160,-0.5975,-0.7134,0.0484
18.8320,-0.6220,-0.7305,0.0599
18.8320,-0.6220,-0.7305,0.0599
18.8320,-0.6220,-0.7305,0.0599
18.8530,-0.6535,-0.7434,0.0643
18.8530,-0.6535,-0.7434,0.0643
18.8530,-0.6535,-0.7434,0.0643
18.8740,-0.6523,-0.7315,0.0672
18.8750,-0.6523,-0.7315,0.0672
18.8750,-0.6523,-0.7315,0.0672
18.8950,-0.6291,-0.6965,0.0452
18.8970,-0.6291,-0.6965,0.0452
18.8990,-0.6291,-0.6965,0.0452
18.9000,-0.6291,-0.6965,0.0452
18.9000,-0.6291,-0.6965,0.0452
18.9130,-0.6286,-0.6914,0.0242
18.9160,-0.6286,-0.6914,0.0242
18.9190,-0.6286,-0.6914,0.0242
18.9330,-0.6325,-0.7185,0.0100
18.9340,-0.6325,-0.7185,0.0100
18.9340,-0.6325,-0.7185,0.0100
18.9340,-0.6325,-0.7185,0.0100
18.9460,-0.6325,-0.7185,0.0100
18.9520,-0.6577,-0.7236,0.0134
18.9530,-0.6577,-0.7236,0.0134
18.9530,-0.6577,-0.7236,0.0134
18.9720,-0.6814,-0.7454,0.0562
18.9720,-0.6814,-0.7454,0.0562
18.9720,-0.6814,-0.7454,0.0562
18.9740,-0.6814,-0.7454,0.0562
18.9740,-0.6814,-0.7454,0.0562
18.9910,-0.6919,-0.7427,0.0799
18.9910,-0.6919,-0.7427,0.0799
18.9920,-0.6919,-0.7427,0.0799
19.0130,-0.6938,-0.7415,0.0821
19.0130,-0.6938,-0.7415,0.0821
19.0130,-0.6938,-0.7415,0.0821
19.0330,-0.6806,-0.7461,0.0496
19.0330,-0.6806,-0.7461,0.0496
19.0330,-0.6806,-0.7461,0.0496
19.0500,-0.6508,-0.7390,0.0506
19.0510,-0.6508,-0.7390,0.0506
19.0510,-0.6508,-0.7390,0.0506
19.0540,-0.6508,-0.7390,0.0506
19.0540,-0.6508,-0.7390,0.0506
19.0690,-0.6493,-0.7544,0.0736
19.0700,-0.6493,-0.7544,0.0736
19.0700,-0.6493,-0.7544,0.0736
19.0920,-0.6716,-0.7645,0.0733
19.0920,-0.6716,-0.7645,0.0733
19.0920,-0.6716,-0.7645,0.0733
19.1130,-0.6911,-0.7603,0.1019
19.1130,-0.6911,-0.7603,0.1019
19.1130,-0.6911,-0.7603,0.1019
19.1290,-0.6855,-0.7645,0.1163
19.1300,-0.6855,-0.7645,0.1163
19.1300,-0.6855,-0.7645,0.1163
19.1340,-0.6855,-0.7645,0.1163
19.1340,-0.6855,-0.7645,0.1163
19.1340,-0.6855,-0.7645,0.1163
19.1430,-0.6855,-0.7645,0.1163
19.1510,-0.6733,-0.7693,0.1356
19.1510,-0.6733,-0.7693,0.1356
19.1510,-0.6733,-0.7693,0.1356
