
time,AccelerometerX,AccelerometerY,AccelerometerZ
0.0140,-0.5066,-0.8392,0.0039
0.0140,-0.5066,-0.8392,0.0039
0.0140,-0.5066,-0.8392,0.0039
0.0290,-0.4695,-0.8720,-0.0357
0.0300,-0.4695,-0.8720,-0.0357
0.0300,-0.4695,-0.8720,-0.0357
0.0470,-0.4189,-0.9013,-0.0455
0.0470,-0.4189,-0.9013,-0.0455
0.0470,-0.4189,-0.9013,-0.0455
0.0640,-0.3918,-0.8605,-0.0560
0.0640,-0.3918,-0.8605,-0.0560
0.0640,-0.3918,-0.8605,-0.0560
0.0670,-0.3918,-0.8605,-0.0560
0.0670,-0.3918,-0.8605,-0.0560
0.0840,-0.4375,-0.8397,-0.0709
0.0840,-0.4375,-0.8397,-0.0709
0.0840,-0.4375,-0.8397,-0.0709
0.1040,-0.4893,-0.8505,-0.0301
0.1040,-0.4893,-0.8505,-0.0301
0.1040,-0.4893,-0.8505,-0.0301
0.1230,-0.5254,-0.8539,-0.0032
0.1240,-0.5254,-0.8539,-0.0032
0.1240,-0.5254,-0.8539,-0.0032
0.1290,-0.5254,-0.8539,-0.0032
0.1430,-0.5335,-0.8688,-0.0120
0.1430,-0.5335,-0.8688,-0.0120
0.1440,-0.5335,-0.8688,-0.0120
0.1460,-0.5335,-0.8688,-0.0120
0.1460,-0.5335,-0.8688,-0.0120
0.1640,-0.5000,-0.8752,-0.0078
0.1640,-0.5000,-0.8752,-0.0078
0.1640,-0.5000,-0.8752,-0.0078
0.1840,-0.4946,-0.8578,0.0054
0.1840,-0.4946,-0.8578,0.0054
0.1840,-0.4946,-0.8578,0.0054
0.2030,-0.4626,-0.8422,-0.0032
0.2030,-0.4626,-0.8422,-0.0032
0.2030,-0.4626,-0.8422,-0.0032
0.2230,-0.4455,-0.8412,-0.0193
0.2230,-0.4455,-0.8412,-0.0193
0.2240,-0.4455,-0.8412,-0.0193
0.2270,-0.4455,-0.8412,-0.0193
0.2270,-0.4455,-0.8412,-0.0193
0.2430,-0.4309,-0.8409,-0.0093
0.2430,-0.4309,-0.8409,-0.0093
0.2440,-0.4309,-0.8409,-0.0093
0.2640,-0.4260,-0.8378,0.0022
0.2640,-0.4260,-0.8378,0.0022
0.2640,-0.4260,-0.8378,0.0022
0.2830,-0.4472,-0.8422,0.0056
0.2830,-0.4472,-0.8422,0.0056
0.2830,-0.4472,-0.8422,0.0056
0.3040,-0.4634,-0.8502,0.0098
0.3040,-0.4634,-0.8502,0.0098
0.3040,-0.4634,-0.8502,0.0098
0.3070,-0.4634,-0.8502,0.0098
0.3070,-0.4634,-0.8502,0.0098
0.3220,-0.4653,-0.8549,0.0134
0.3220,-0.4653,-0.8549,0.0134
0.3230,-0.4653,-0.8549,0.0134
0.3270,-0.4653,-0.8549,0.0134
0.3420,-0.4748,-0.8546,0.0117
0.3430,-0.4748,-0.8546,0.0117
0.3430,-0.4748,-0.8546,0.0117
0.3620,-0.4895,-0.8488,0.0122
0.3630,-0.4895,-0.8488,0.0122
0.3630,-0.4895,-0.8488,0.0122
0.3830,-0.5010,-0.8446,0.0164
0.3830,-0.5010,-0.8446,0.0164
0.3830,-0.5010,-0.8446,0.0164
0.3860,-0.5010,-0.8446,0.0164
0.3860,-0.5010,-0.8446,0.0164
0.4020,-0.4968,-0.8473,0.0073
0.4250,-0.4968,-0.8473,0.0073
0.4260,-0.4968,-0.8473,0.0073
0.4260,-0.4827,-0.8497,0.0002
0.4260,-0.4827,-0.8497,0.0002
0.4260,-0.4827,-0.8497,0.0002
0.4420,-0.4675,-0.8456,-0.0002
0.4420,-0.4675,-0.8456,-0.0002
0.4420,-0.4675,-0.8456,-0.0002
0.4620,-0.4800,-0.8387,-0.0015
0.4630,-0.4800,-0.8387,-0.0015
0.4630,-0.4800,-0.8387,-0.0015
0.4660,-0.4800,-0.8387,-0.0015
0.4660,-0.4800,-0.8387,-0.0015
0.4820,-0.4810,-0.8463,0.0095
0.4820,-0.4810,-0.8463,0.0095
0.4820,-0.4810,-0.8463,0.0095
0.4910,-0.4810,-0.8463,0.0095
0.5000,-0.4565,-0.8544,0.0029
0.5010,-0.4565,-0.8544,0.0029
0.5010,-0.4565,-0.8544,0.0029
0.5210,-0.4668,-0.8524,0.0081
0.5210,-0.4668,-0.8524,0.0081
0.5210,-0.4668,-0.8524,0.0081
0.5260,-0.4668,-0.8524,0.0081
0.5400,-0.4785,-0.8451,0.0247
0.5400,-0.4785,-0.8451,0.0247
0.5410,-0.4785,-0.8451,0.0247
0.5450,-0.4785,-0.8451,0.0247
0.5450,-0.4785,-0.8451,0.0247
0.5610,-0.4729,-0.8356,0.0193
0.5610,-0.4729,-0.8356,0.0193
0.5610,-0.4729,-0.8356,0.0193
0.5810,-0.4827,-0.8343,0.0134
0.5810,-0.4827,-0.8343,0.0134
0.5810,-0.4827,-0.8343,0.0134
0.6010,-0.4878,-0.8412,0.0335
0.6010,-0.4878,-0.8412,0.0335
0.6010,-0.4878,-0.8412,0.0335
0.6210,-0.4873,-0.8397,0.0174
0.6210,-0.4873,-0.8397,0.0174
0.6210,-0.4873,-0.8397,0.0174
0.6220,-0.4873,-0.8397,0.0174
0.6220,-0.4873,-0.8397,0.0174
0.6430,-0.4942,-0.8449,0.0139
0.6430,-0.4942,-0.8449,0.0139
0.6440,-0.4942,-0.8449,0.0139
0.6600,-0.4915,-0.8517,0.0208
0.6610,-0.4915,-0.8517,0.0208
0.6610,-0.4915,-0.8517,0.0208
0.6810,-0.4790,-0.8446,0.0147
0.6810,-0.4790,-0.8446,0.0147
0.6810,-0.4790,-0.8446,0.0147
0.6890,-0.4790,-0.8446,0.0147
0.7010,-0.4729,-0.8453,0.0276
0.7010,-0.4729,-0.8453,0.0276
0.7010,-0.4729,-0.8453,0.0276
0.7010,-0.4729,-0.8453,0.0276
0.7020,-0.4729,-0.8453,0.0276
0.7220,-0.4761,-0.8466,0.0213
0.7220,-0.4761,-0.8466,0.0213
0.7220,-0.4761,-0.8466,0.0213
0.7230,-0.4761,-0.8466,0.0213
0.7390,-0.4858,-0.8473,0.0002
0.7400,-0.4858,-0.8473,0.0002
0.7400,-0.4858,-0.8473,0.0002
0.7590,-0.4949,-0.8505,0.0283
0.7600,-0.4949,-0.8505,0.0283
0.7600,-0.4949,-0.8505,0.0283
0.7800,-0.4856,-0.8556,0.0347
0.7800,-0.4856,-0.8556,0.0347
0.7810,-0.4856,-0.8556,0.0347
0.7810,-0.4856,-0.8556,0.0347
0.7810,-0.4856,-0.8556,0.0347
0.8020,-0.4873,-0.8517,0.0134
0.8020,-0.4873,-0.8517,0.0134
0.8020,-0.4873,-0.8517,0.0134
0.8200,-0.4756,-0.8505,0.0200
0.8200,-0.4756,-0.8505,0.0200
0.8200,-0.4756,-0.8505,0.0200
0.8400,-0.4695,-0.8453,0.0340
0.8400,-0.4695,-0.8453,0.0340
0.8400,-0.4695,-0.8453,0.0340
0.8600,-0.4951,-0.8387,0.0296
0.8600,-0.4951,-0.8387,0.0296
0.8600,-0.4951,-0.8387,0.0296
0.8600,-0.4951,-0.8387,0.0296
0.8610,-0.4951,-0.8387,0.0296
0.8810,-0.4956,-0.8468,0.0269
0.8810,-0.4956,-0.8468,0.0269
0.8820,-0.4956,-0.8468,0.0269
0.8870,-0.4956,-0.8468,0.0269
0.8990,-0.4775,-0.8559,0.0235
0.8990,-0.4775,-0.8559,0.0235
0.9000,-0.4775,-0.8559,0.0235
0.9190,-0.4819,-0.8427,0.0110
0.9190,-0.4819,-0.8427,0.0110
0.9200,-0.4819,-0.8427,0.0110
0.9220,-0.4819,-0.8427,0.0110
0.9390,-0.4893,-0.8412,0.0064
0.9390,-0.4893,-0.8412,0.0064
0.9770,-0.4893,-0.8412,0.0064
0.9780,-0.4893,-0.8412,0.0064
0.9780,-0.4893,-0.8412,0.0064
0.9780,-0.4748,-0.8556,0.0161
0.9780,-0.4748,-0.8556,0.0161
0.9780,-0.4748,-0.8556,0.0161
0.9780,-0.4636,-0.8625,0.0210
0.9780,-0.4636,-0.8625,0.0210
0.9780,-0.4636,-0.8625,0.0210
0.9990,-0.4741,-0.8527,0.0247
0.9990,-0.4741,-0.8527,0.0247
0.9990,-0.4741,-0.8527,0.0247
1.0180,-0.4863,-0.8407,0.0286
1.0190,-0.4863,-0.8407,0.0286
1.0190,-0.4863,-0.8407,0.0286
1.0200,-0.4863,-0.8407,0.0286
1.0210,-0.4863,-0.8407,0.0286
1.0400,-0.4858,-0.8431,0.0315
1.0400,-0.4858,-0.8431,0.0315
1.0400,-0.4858,-0.8431,0.0315
1.0580,-0.4824,-0.8529,0.0301
1.0580,-0.4824,-0.8529,0.0301
1.0580,-0.4824,-0.8529,0.0301
1.0780,-0.4810,-0.8583,0.0301
1.0780,-0.4810,-0.8583,0.0301
1.0780,-0.4810,-0.8583,0.0301
1.0860,-0.4810,-0.8583,0.0301
1.0980,-0.4675,-0.8519,0.0181
1.0980,-0.4675,-0.8519,0.0181
1.0980,-0.4675,-0.8519,0.0181
1.0980,-0.4675,-0.8519,0.0181
1.0990,-0.4675,-0.8519,0.0181
1.1190,-0.4577,-0.8461,0.0198
1.1190,-0.4577,-0.8461,0.0198
1.1190,-0.4577,-0.8461,0.0198
1.1200,-0.4577,-0.8461,0.0198
1.1360,-0.4602,-0.8422,0.0259
1.1370,-0.4602,-0.8422,0.0259
1.1370,-0.4602,-0.8422,0.0259
1.1570,-0.4695,-0.8361,0.0261
1.1570,-0.4695,-0.8361,0.0261
1.1570,-0.4695,-0.8361,0.0261
1.1770,-0.4739,-0.8409,0.0274
1.1770,-0.4739,-0.8409,0.0274
1.1770,-0.4739,-0.8409,0.0274
1.1790,-0.4739,-0.8409,0.0274
1.1790,-0.4739,-0.8409,0.0274
1.1980,-0.4763,-0.8515,0.0315
1.1980,-0.4763,-0.8515,0.0315
1.1980,-0.4763,-0.8515,0.0315
1.2180,-0.4734,-0.8566,0.0269
1.2180,-0.4734,-0.8566,0.0269
1.2180,-0.4734,-0.8566,0.0269
1.2370,-0.4675,-0.8527,0.0198
1.2370,-0.4675,-0.8527,0.0198
1.2370,-0.4675,-0.8527,0.0198
1.2560,-0.4665,-0.8519,0.0159
1.2570,-0.4665,-0.8519,0.0159
1.2570,-0.4665,-0.8519,0.0159
1.2590,-0.4665,-0.8519,0.0159
1.2590,-0.4665,-0.8519,0.0159
1.2780,-0.4521,-0.8522,0.0142
1.2780,-0.4521,-0.8522,0.0142
1.2790,-0.4521,-0.8522,0.0142
1.2840,-0.4521,-0.8522,0.0142
1.2960,-0.4533,-0.8505,0.0095
1.2960,-0.4533,-0.8505,0.0095
1.2960,-0.4533,-0.8505,0.0095
1.3160,-0.4599,-0.8549,0.0178
1.3160,-0.4599,-0.8549,0.0178
1.3160,-0.4599,-0.8549,0.0178
1.3180,-0.4599,-0.8549,0.0178
1.3360,-0.4551,-0.8620,0.0142
1.3360,-0.4551,-0.8620,0.0142
1.3360,-0.4551,-0.8620,0.0142
1.3380,-0.4551,-0.8620,0.0142
1.3380,-0.4551,-0.8620,0.0142
1.3580,-0.4687,-0.8556,0.0134
1.3590,-0.4687,-0.8556,0.0134
1.3590,-0.4687,-0.8556,0.0134
1.3760,-0.4773,-0.8522,0.0296
1.3760,-0.4773,-0.8522,0.0296
1.3760,-0.4773,-0.8522,0.0296
1.3950,-0.4668,-0.8607,0.0320
1.3950,-0.4668,-0.8607,0.0320
1.3950,-0.4668,-0.8607,0.0320
1.4150,-0.4683,-0.8625,0.0332
1.4160,-0.4683,-0.8625,0.0332
1.4160,-0.4683,-0.8625,0.0332
1.4170,-0.4683,-0.8625,0.0332
1.4170,-0.4683,-0.8625,0.0332
1.4370,-0.4775,-0.8551,0.0337
1.4370,-0.4775,-0.8551,0.0337
1.4370,-0.4775,-0.8551,0.0337
1.4550,-0.4817,-0.8493,0.0266
1.4560,-0.4817,-0.8493,0.0266
1.4560,-0.4817,-0.8493,0.0266
1.4750,-0.4746,-0.8549,0.0305
1.4750,-0.4746,-0.8549,0.0305
1.4750,-0.4746,-0.8549,0.0305
1.5100,-0.4707,-0.8588,0.0347
1.5100,-0.4707,-0.8588,0.0347
1.5100,-0.4707,-0.8588,0.0347
1.5100,-0.4707,-0.8588,0.0347
1.5110,-0.4707,-0.8588,0.0347
1.5170,-0.4744,-0.8563,0.0247
1.5170,-0.4744,-0.8563,0.0247
1.5170,-0.4744,-0.8563,0.0247
1.5190,-0.4744,-0.8563,0.0247
1.5350,-0.4678,-0.8554,0.0310
1.5350,-0.4678,-0.8554,0.0310
1.5360,-0.4678,-0.8554,0.0310
1.5550,-0.4670,-0.8546,0.0288
1.5560,-0.4670,-0.8546,0.0288
1.5560,-0.4670,-0.8546,0.0288
1.5740,-0.4827,-0.8483,0.0186
1.5750,-0.4827,-0.8483,0.0186
1.5750,-0.4827,-0.8483,0.0186
1.5760,-0.4827,-0.8483,0.0186
1.5760,-0.4827,-0.8483,0.0186
1.5970,-0.4734,-0.8439,0.0142
1.5970,-0.4734,-0.8439,0.0142
1.5980,-0.4734,-0.8439,0.0142
1.6170,-0.4612,-0.8495,0.0020
1.6180,-0.4612,-0.8495,0.0020
1.6180,-0.4612,-0.8495,0.0020
1.6350,-0.4555,-0.8551,0.0002
1.6360,-0.4555,-0.8551,0.0002
1.6360,-0.4555,-0.8551,0.0002
1.6560,-0.4621,-0.8590,0.0218
1.6580,-0.4621,-0.8590,0.0218
1.6600,-0.4621,-0.8590,0.0218
1.6600,-0.4621,-0.8590,0.0218
1.6610,-0.4621,-0.8590,0.0218
1.6770,-0.4602,-0.8554,0.0411
1.6770,-0.4602,-0.8554,0.0411
1.6780,-0.4602,-0.8554,0.0411
1.7000,-0.4607,-0.8446,0.0376
1.7000,-0.4607,-0.8446,0.0376
1.7010,-0.4607,-0.8446,0.0376
1.7140,-0.4829,-0.8461,0.0296
1.7140,-0.4829,-0.8461,0.0296
1.7140,-0.4829,-0.8461,0.0296
1.7160,-0.4829,-0.8461,0.0296
1.7340,-0.4934,-0.8556,0.0408
1.7340,-0.4934,-0.8556,0.0408
1.7350,-0.4934,-0.8556,0.0408
1.7390,-0.4934,-0.8556,0.0408
1.7400,-0.4934,-0.8556,0.0408
1.7550,-0.4959,-0.8556,0.0516
1.7560,-0.4959,-0.8556,0.0516
1.7560,-0.4959,-0.8556,0.0516
1.7740,-0.5037,-0.8483,0.0310
1.7740,-0.5037,-0.8483,0.0310
1.7740,-0.5037,-0.8483,0.0310
1.7940,-0.4866,-0.8461,0.0166
1.7940,-0.4866,-0.8461,0.0166
1.7940,-0.4866,-0.8461,0.0166
1.8130,-0.4668,-0.8500,0.0178
1.8140,-0.4668,-0.8500,0.0178
1.8140,-0.4668,-0.8500,0.0178
1.8150,-0.4668,-0.8500,0.0178
1.8150,-0.4668,-0.8500,0.0178
1.8350,-0.4536,-0.8478,0.0198
1.8360,-0.4536,-0.8478,0.0198
1.8360,-0.4536,-0.8478,0.0198
1.8550,-0.4521,-0.8424,0.0161
1.8550,-0.4521,-0.8424,0.0161
1.8550,-0.4521,-0.8424,0.0161
1.8740,-0.4687,-0.8463,0.0159
1.8750,-0.4687,-0.8463,0.0159
1.8760,-0.4687,-0.8463,0.0159
1.8950,-0.4819,-0.8473,0.0232
1.8960,-0.4819,-0.8473,0.0232
1.8970,-0.4819,-0.8473,0.0232
1.8980,-0.4819,-0.8473,0.0232
1.8980,-0.4819,-0.8473,0.0232
1.9160,-0.4937,-0.8431,0.0308
1.9160,-0.4937,-0.8431,0.0308
1.9170,-0.4937,-0.8431,0.0308
1.9180,-0.4937,-0.8431,0.0308
1.9350,-0.4915,-0.8480,0.0249
1.9350,-0.4915,-0.8480,0.0249
1.9380,-0.4915,-0.8480,0.0249
1.9560,-0.4634,-0.8468,0.0152
1.9560,-0.4634,-0.8468,0.0152
1.9570,-0.4634,-0.8468,0.0152
1.9760,-0.4621,-0.8265,0.0144
1.9790,-0.4621,-0.8265,0.0144
1.9790,-0.4621,-0.8265,0.0144
1.9800,-0.4621,-0.8265,0.0144
1.9810,-0.4621,-0.8265,0.0144
1.9950,-0.4810,-0.8280,0.0181
1.9950,-0.4810,-0.8280,0.0181
1.9960,-0.4810,-0.8280,0.0181
2.0150,-0.4724,-0.8585,0.0261
2.0150,-0.4724,-0.8585,0.0261
2.0160,-0.4724,-0.8585,0.0261
2.0370,-0.4558,-0.8585,0.0193
2.0370,-0.4558,-0.8585,0.0193
2.0880,-0.4558,-0.8585,0.0193
2.0880,-0.4773,-0.8297,0.0198
2.0880,-0.4773,-0.8297,0.0198
2.0880,-0.4773,-0.8297,0.0198
2.0890,-0.4773,-0.8297,0.0198
2.0890,-0.4773,-0.8297,0.0198
2.0890,-0.5059,-0.8226,0.0371
2.0890,-0.5059,-0.8226,0.0371
2.0900,-0.5059,-0.8226,0.0371
2.0940,-0.4932,-0.8544,0.0332
2.0940,-0.4932,-0.8544,0.0332
2.0940,-0.4932,-0.8544,0.0332
2.1130,-0.4868,-0.8712,0.0252
2.1130,-0.4868,-0.8712,0.0252
2.1130,-0.4868,-0.8712,0.0252
2.1130,-0.4868,-0.8712,0.0252
2.1330,-0.5056,-0.8541,0.0301
2.1340,-0.5056,-0.8541,0.0301
2.1340,-0.5056,-0.8541,0.0301
2.1340,-0.5056,-0.8541,0.0301
2.1340,-0.5056,-0.8541,0.0301
2.1540,-0.5078,-0.8373,0.0169
2.1540,-0.5078,-0.8373,0.0169
2.1540,-0.5078,-0.8373,0.0169
2.1750,-0.4907,-0.8524,0.0266
2.1750,-0.4907,-0.8524,0.0266
2.1750,-0.4907,-0.8524,0.0266
2.1940,-0.4651,-0.8620,0.0210
2.1940,-0.4651,-0.8620,0.0210
2.1940,-0.4651,-0.8620,0.0210
2.2170,-0.4761,-0.8468,0.0171
2.2170,-0.4761,-0.8468,0.0171
2.2180,-0.4761,-0.8468,0.0171
2.2180,-0.4761,-0.8468,0.0171
2.2190,-0.4761,-0.8468,0.0171
2.2350,-0.4751,-0.8397,0.0276
2.2350,-0.4751,-0.8397,0.0276
2.2360,-0.4751,-0.8397,0.0276
2.2570,-0.4587,-0.8463,0.0286
2.2580,-0.4587,-0.8463,0.0286
2.2580,-0.4587,-0.8463,0.0286
2.2750,-0.4602,-0.8495,0.0301
2.2760,-0.4602,-0.8495,0.0301
2.2760,-0.4602,-0.8495,0.0301
2.2800,-0.4602,-0.8495,0.0301
2.2970,-0.4795,-0.8468,0.0337
2.2980,-0.4795,-0.8468,0.0337
2.2980,-0.4795,-0.8468,0.0337
2.2980,-0.4795,-0.8468,0.0337
2.2990,-0.4795,-0.8468,0.0337
2.3130,-0.4858,-0.8537,0.0349
2.3140,-0.4858,-0.8537,0.0349
2.3140,-0.4858,-0.8537,0.0349
2.3160,-0.4858,-0.8537,0.0349
2.3310,-0.4800,-0.8664,0.0406
2.3310,-0.4800,-0.8664,0.0406
2.3310,-0.4800,-0.8664,0.0406
2.3500,-0.4680,-0.8607,0.0430
2.3510,-0.4680,-0.8607,0.0430
2.3510,-0.4680,-0.8607,0.0430
2.3700,-0.4817,-0.8451,0.0474
2.3700,-0.4817,-0.8451,0.0474
2.3700,-0.4817,-0.8451,0.0474
2.3720,-0.4817,-0.8451,0.0474
2.3720,-0.4817,-0.8451,0.0474
2.3920,-0.4988,-0.8353,0.0244
2.3920,-0.4988,-0.8353,0.0244
2.3920,-0.4988,-0.8353,0.0244
2.4100,-0.5032,-0.8483,0.0193
2.4100,-0.5032,-0.8483,0.0193
2.4100,-0.5032,-0.8483,0.0193
2.4300,-0.4849,-0.8632,0.0130
2.4310,-0.4849,-0.8632,0.0130
2.4310,-0.4849,-0.8632,0.0130
2.4500,-0.4763,-0.8639,0.0142
2.4500,-0.4763,-0.8639,0.0142
2.4500,-0.4763,-0.8639,0.0142
2.4510,-0.4763,-0.8639,0.0142
2.4510,-0.4763,-0.8639,0.0142
2.4720,-0.4665,-0.8583,0.0340
2.4720,-0.4665,-0.8583,0.0340
2.4720,-0.4665,-0.8583,0.0340
2.4770,-0.4665,-0.8583,0.0340
2.4910,-0.4797,-0.8402,0.0086
2.4920,-0.4797,-0.8402,0.0086
2.4920,-0.4797,-0.8402,0.0086
2.5130,-0.4819,-0.8368,0.0174
2.5150,-0.4819,-0.8368,0.0174
2.5160,-0.4819,-0.8368,0.0174
2.5160,-0.4819,-0.8368,0.0174
2.5320,-0.4658,-0.8563,0.0403
2.5330,-0.4658,-0.8563,0.0403
2.5380,-0.4658,-0.8563,0.0403
2.5390,-0.4658,-0.8563,0.0403
2.5400,-0.4658,-0.8563,0.0403
2.5550,-0.4648,-0.8573,0.0249
2.5550,-0.4648,-0.8573,0.0249
2.5570,-0.4648,-0.8573,0.0249
2.5720,-0.4773,-0.8439,0.0240
2.5730,-0.4773,-0.8439,0.0240
2.6480,-0.4773,-0.8439,0.0240
2.6480,-0.4748,-0.8346,0.0296
2.6480,-0.4748,-0.8346,0.0296
2.6490,-0.4748,-0.8346,0.0296
2.6490,-0.4656,-0.8339,0.0237
2.6490,-0.4656,-0.8339,0.0237
2.6490,-0.4656,-0.8339,0.0237
2.6490,-0.4656,-0.8339,0.0237
2.6490,-0.4656,-0.8339,0.0237
2.6500,-0.4775,-0.8309,0.0132
2.6500,-0.4775,-0.8309,0.0132
2.6500,-0.4775,-0.8309,0.0132
2.6500,-0.4954,-0.8339,0.0125
2.6500,-0.4954,-0.8339,0.0125
2.6500,-0.4954,-0.8339,0.0125
2.6690,-0.4971,-0.8497,0.0227
2.6690,-0.4971,-0.8497,0.0227
2.6700,-0.4971,-0.8497,0.0227
2.6740,-0.4971,-0.8497,0.0227
2.6900,-0.4841,-0.8480,0.0227
2.6910,-0.4841,-0.8480,0.0227
2.6910,-0.4841,-0.8480,0.0227
2.6920,-0.4841,-0.8480,0.0227
2.6920,-0.4841,-0.8480,0.0227
2.7130,-0.4839,-0.8375,0.0222
2.7140,-0.4839,-0.8375,0.0222
2.7140,-0.4839,-0.8375,0.0222
2.7150,-0.4839,-0.8375,0.0222
2.7300,-0.4714,-0.8483,0.0215
2.7300,-0.4714,-0.8483,0.0215
2.7310,-0.4714,-0.8483,0.0215
2.7510,-0.4555,-0.8622,0.0117
2.7510,-0.4555,-0.8622,0.0117
2.7510,-0.4555,-0.8622,0.0117
2.7740,-0.4746,-0.8441,0.0066
2.7750,-0.4746,-0.8441,0.0066
2.7750,-0.4746,-0.8441,0.0066
2.7760,-0.4746,-0.8441,0.0066
2.7770,-0.4746,-0.8441,0.0066
2.7910,-0.5171,-0.8380,0.0332
2.7920,-0.5171,-0.8380,0.0332
2.7920,-0.5171,-0.8380,0.0332
2.8090,-0.5188,-0.8524,0.0574
2.8100,-0.5188,-0.8524,0.0574
2.8100,-0.5188,-0.8524,0.0574
2.8300,-0.4714,-0.8519,0.0093
2.8330,-0.4714,-0.8519,0.0093
2.8340,-0.4714,-0.8519,0.0093
2.8500,-0.4709,-0.8507,-0.0012
2.8550,-0.4709,-0.8507,-0.0012
2.8560,-0.4709,-0.8507,-0.0012
2.8570,-0.4709,-0.8507,-0.0012
2.8570,-0.4709,-0.8507,-0.0012
2.8720,-0.4817,-0.8532,0.0259
2.8720,-0.4817,-0.8532,0.0259
2.8730,-0.4817,-0.8532,0.0259
2.8740,-0.4817,-0.8532,0.0259
2.8890,-0.4722,-0.8566,0.0213
2.8890,-0.4722,-0.8566,0.0213
2.8900,-0.4722,-0.8566,0.0213
2.9100,-0.4702,-0.8627,0.0108
2.9100,-0.4702,-0.8627,0.0108
2.9110,-0.4702,-0.8627,0.0108
2.9110,-0.4702,-0.8627,0.0108
2.9290,-0.4780,-0.8595,0.0283
2.9290,-0.4780,-0.8595,0.0283
2.9290,-0.4780,-0.8595,0.0283
2.9290,-0.4780,-0.8595,0.0283
2.9300,-0.4780,-0.8595,0.0283
2.9550,-0.4621,-0.8478,0.0257
2.9550,-0.4621,-0.8478,0.0257
2.9550,-0.4621,-0.8478,0.0257
2.9660,-0.4514,-0.8493,0.0147
2.9660,-0.4514,-0.8493,0.0147
2.9670,-0.4514,-0.8493,0.0147
2.9860,-0.4780,-0.8573,0.0323
2.9860,-0.4780,-0.8573,0.0323
2.9870,-0.4780,-0.8573,0.0323
3.0060,-0.4763,-0.8625,0.0381
3.0230,-0.4763,-0.8625,0.0381
3.0230,-0.4763,-0.8625,0.0381
3.0230,-0.4763,-0.8625,0.0381
3.0380,-0.4763,-0.8625,0.0381
3.0520,-0.4731,-0.8595,0.0288
3.0630,-0.4731,-0.8595,0.0288
3.0630,-0.4731,-0.8595,0.0288
3.0890,-0.4643,-0.8546,0.0345
3.0900,-0.4643,-0.8546,0.0345
3.0920,-0.4643,-0.8546,0.0345
3.0920,-0.4695,-0.8512,0.0525
3.0930,-0.4695,-0.8512,0.0525
3.0930,-0.4695,-0.8512,0.0525
3.0950,-0.4695,-0.8512,0.0525
3.0950,-0.4895,-0.8451,0.0381
3.0960,-0.4895,-0.8451,0.0381
3.0960,-0.4895,-0.8451,0.0381
3.0970,-0.4895,-0.8451,0.0381
3.0970,-0.4895,-0.8451,0.0381
3.1100,-0.4890,-0.8451,0.0005
3.1110,-0.4890,-0.8451,0.0005
3.1780,-0.4890,-0.8451,0.0005
3.1780,-0.4890,-0.8451,0.0005
3.1790,-0.4832,-0.8642,0.0024
3.1790,-0.4832,-0.8642,0.0024
3.1790,-0.4832,-0.8642,0.0024
3.1800,-0.4697,-0.8644,0.0015
3.1810,-0.4697,-0.8644,0.0015
3.1810,-0.4697,-0.8644,0.0015
3.1810,-0.4736,-0.8478,-0.0171
3.1820,-0.4736,-0.8478,-0.0171
3.1820,-0.4736,-0.8478,-0.0171
3.1820,-0.4736,-0.8478,-0.0171
3.1820,-0.4736,-0.8478,-0.0171
3.1880,-0.4839,-0.8427,-0.0139
3.1880,-0.4839,-0.8427,-0.0139
3.1880,-0.4839,-0.8427,-0.0139
3.2060,-0.4602,-0.8519,-0.0015
3.2060,-0.4602,-0.8519,-0.0015
3.2060,-0.4602,-0.8519,-0.0015
3.2270,-0.4443,-0.8551,0.0152
3.2270,-0.4443,-0.8551,0.0152
3.2270,-0.4443,-0.8551,0.0152
3.2460,-0.4570,-0.8383,0.0191
3.2470,-0.4570,-0.8383,0.0191
3.2470,-0.4570,-0.8383,0.0191
3.2480,-0.4570,-0.8383,0.0191
3.2480,-0.4570,-0.8383,0.0191
3.2680,-0.4595,-0.8280,0.0281
3.2680,-0.4595,-0.8280,0.0281
3.2690,-0.4595,-0.8280,0.0281
3.2870,-0.4766,-0.8446,0.0403
3.2880,-0.4766,-0.8446,0.0403
3.2880,-0.4766,-0.8446,0.0403
3.3070,-0.4746,-0.8615,0.0677
3.3080,-0.4746,-0.8615,0.0677
3.3080,-0.4746,-0.8615,0.0677
3.3090,-0.4746,-0.8615,0.0677
3.3270,-0.4822,-0.8563,0.0858
3.3280,-0.4822,-0.8563,0.0858
3.3280,-0.4822,-0.8563,0.0858
3.3290,-0.4822,-0.8563,0.0858
3.3290,-0.4822,-0.8563,0.0858
3.3490,-0.5279,-0.8341,0.0540
3.3490,-0.5279,-0.8341,0.0540
3.3560,-0.5279,-0.8341,0.0540
3.3690,-0.5193,-0.8412,0.0152
3.3700,-0.5193,-0.8412,0.0152
3.3710,-0.5193,-0.8412,0.0152
3.3890,-0.4775,-0.8659,-0.0044
3.3900,-0.4775,-0.8659,-0.0044
3.3900,-0.4775,-0.8659,-0.0044
3.4060,-0.4636,-0.8598,-0.0059
3.4060,-0.4636,-0.8598,-0.0059
3.4070,-0.4636,-0.8598,-0.0059
3.4070,-0.4636,-0.8598,-0.0059
3.4070,-0.4636,-0.8598,-0.0059
3.4280,-0.4871,-0.8439,0.0002
3.4290,-0.4871,-0.8439,0.0002
3.4290,-0.4871,-0.8439,0.0002
3.4460,-0.4739,-0.8451,0.0056
3.4470,-0.4739,-0.8451,0.0056
3.4470,-0.4739,-0.8451,0.0056
3.4650,-0.4277,-0.8456,0.0044
3.4670,-0.4277,-0.8456,0.0044
3.4670,-0.4277,-0.8456,0.0044
3.4880,-0.4360,-0.8651,0.0330
3.4890,-0.4360,-0.8651,0.0330
3.4890,-0.4360,-0.8651,0.0330
3.4900,-0.4360,-0.8651,0.0330
3.4900,-0.4360,-0.8651,0.0330
3.5090,-0.4360,-0.8793,0.0384
3.5100,-0.4360,-0.8793,0.0384
3.5110,-0.4360,-0.8793,0.0384
3.5110,-0.4360,-0.8793,0.0384
3.5390,-0.4560,-0.8862,0.0562
3.5400,-0.4560,-0.8862,0.0562
3.5400,-0.4560,-0.8862,0.0562
3.5430,-0.4822,-0.8642,0.0403
3.5430,-0.4822,-0.8642,0.0403
3.5430,-0.4822,-0.8642,0.0403
3.5620,-0.5008,-0.8251,0.0032
3.5630,-0.5008,-0.8251,0.0032
3.5630,-0.5008,-0.8251,0.0032
3.5630,-0.5008,-0.8251,0.0032
3.5640,-0.5008,-0.8251,0.0032
3.5840,-0.4854,-0.8280,-0.0022
3.5840,-0.4854,-0.8280,-0.0022
3.5840,-0.4854,-0.8280,-0.0022
3.6030,-0.4533,-0.8578,0.0257
3.6030,-0.4533,-0.8578,0.0257
3.6030,-0.4533,-0.8578,0.0257
3.6220,-0.4705,-0.8629,0.0503
3.6220,-0.4705,-0.8629,0.0503
3.6230,-0.4705,-0.8629,0.0503
3.6420,-0.4736,-0.8546,0.0437
3.6430,-0.4736,-0.8546,0.0437
3.6430,-0.4736,-0.8546,0.0437
3.6440,-0.4736,-0.8546,0.0437
3.6440,-0.4736,-0.8546,0.0437
3.6640,-0.4910,-0.8527,0.0191
3.6860,-0.4910,-0.8527,0.0191
3.6860,-0.4910,-0.8527,0.0191
3.6860,-0.4995,-0.8519,0.0271
3.6870,-0.4995,-0.8519,0.0271
3.6870,-0.4995,-0.8519,0.0271
3.7030,-0.4680,-0.8485,0.0301
3.7040,-0.4680,-0.8485,0.0301
3.7040,-0.4680,-0.8485,0.0301
3.7040,-0.4680,-0.8485,0.0301
3.7240,-0.4675,-0.8483,0.0164
3.7240,-0.4675,-0.8483,0.0164
3.7240,-0.4675,-0.8483,0.0164
3.7240,-0.4675,-0.8483,0.0164
3.7240,-0.4675,-0.8483,0.0164
3.7440,-0.5030,-0.8578,0.0271
3.7450,-0.5030,-0.8578,0.0271
3.7450,-0.5030,-0.8578,0.0271
3.7640,-0.5071,-0.8691,0.0369
3.7650,-0.5071,-0.8691,0.0369
3.7650,-0.5071,-0.8691,0.0369
3.7820,-0.4719,-0.8510,0.0093
3.7820,-0.4719,-0.8510,0.0093
3.7830,-0.4719,-0.8510,0.0093
3.8030,-0.4621,-0.8241,-0.0137
3.8040,-0.4621,-0.8241,-0.0137
3.8050,-0.4621,-0.8241,-0.0137
3.8050,-0.4621,-0.8241,-0.0137
3.8050,-0.4621,-0.8241,-0.0137
3.8250,-0.4692,-0.8226,0.0120
3.8250,-0.4692,-0.8226,0.0120
3.8260,-0.4692,-0.8226,0.0120
3.8420,-0.4871,-0.8412,0.0274
3.8420,-0.4871,-0.8412,0.0274
3.8430,-0.4871,-0.8412,0.0274
3.8660,-0.4995,-0.8444,0.0247
3.8670,-0.4995,-0.8444,0.0247
3.8670,-0.4995,-0.8444,0.0247
3.8680,-0.4995,-0.8444,0.0247
3.8820,-0.4895,-0.8414,0.0115
3.8820,-0.4895,-0.8414,0.0115
3.8830,-0.4895,-0.8414,0.0115
3.8860,-0.4895,-0.8414,0.0115
3.8870,-0.4895,-0.8414,0.0115
3.9060,-0.4878,-0.8375,0.0061
3.9070,-0.4878,-0.8375,0.0061
3.9070,-0.4878,-0.8375,0.0061
3.9070,-0.4878,-0.8375,0.0061
3.9270,-0.4800,-0.8422,0.0161
3.9290,-0.4800,-0.8422,0.0161
3.9330,-0.4800,-0.8422,0.0161
3.9410,-0.4763,-0.8524,0.0303
3.9420,-0.4763,-0.8524,0.0303
3.9420,-0.4763,-0.8524,0.0303
3.9620,-0.4880,-0.8493,0.0340
3.9630,-0.4880,-0.8493,0.0340
3.9630,-0.4880,-0.8493,0.0340
3.9630,-0.4880,-0.8493,0.0340
3.9640,-0.4880,-0.8493,0.0340
3.9820,-0.4964,-0.8390,0.0315
3.9820,-0.4964,-0.8390,0.0315
3.9820,-0.4964,-0.8390,0.0315
4.0020,-0.4878,-0.8427,0.0379
4.0030,-0.4878,-0.8427,0.0379
4.0030,-0.4878,-0.8427,0.0379
4.0210,-0.4736,-0.8468,0.0178
4.0220,-0.4736,-0.8468,0.0178
4.0220,-0.4736,-0.8468,0.0178
4.0420,-0.4394,-0.8348,-0.0034
4.0430,-0.4394,-0.8348,-0.0034
4.0440,-0.4394,-0.8348,-0.0034
4.0440,-0.4394,-0.8348,-0.0034
4.0440,-0.4394,-0.8348,-0.0034
4.0620,-0.4382,-0.8209,0.0054
4.0620,-0.4382,-0.8209,0.0054
4.0620,-0.4382,-0.8209,0.0054
4.0830,-0.4922,-0.8331,0.0232
4.0840,-0.4922,-0.8331,0.0232
4.0840,-0.4922,-0.8331,0.0232
4.1000,-0.5081,-0.8759,0.0183
4.1010,-0.5081,-0.8759,0.0183
4.1010,-0.5081,-0.8759,0.0183
4.1010,-0.5081,-0.8759,0.0183
4.1200,-0.4455,-0.8774,0.0181
4.1210,-0.4455,-0.8774,0.0181
4.1210,-0.4455,-0.8774,0.0181
4.1210,-0.4455,-0.8774,0.0181
4.1400,-0.4453,-0.8253,0.0120
4.1400,-0.4453,-0.8253,0.0120
4.1400,-0.4453,-0.8253,0.0120
4.1590,-0.5027,-0.8160,0.0149
4.1590,-0.5027,-0.8160,0.0149
4.1590,-0.5027,-0.8160,0.0149
4.1790,-0.5127,-0.8654,0.0325
4.1790,-0.5127,-0.8654,0.0325
4.1800,-0.5127,-0.8654,0.0325
4.1990,-0.4942,-0.8906,0.0464
4.2000,-0.4942,-0.8906,0.0464
4.2000,-0.4942,-0.8906,0.0464
4.2030,-0.4942,-0.8906,0.0464
4.2030,-0.4942,-0.8906,0.0464
4.2270,-0.4900,-0.8688,0.0303
4.2270,-0.4900,-0.8688,0.0303
4.2270,-0.4900,-0.8688,0.0303
4.2400,-0.4988,-0.8515,0.0396
4.2400,-0.4988,-0.8515,0.0396
4.2400,-0.4988,-0.8515,0.0396
4.2590,-0.5020,-0.8642,0.0477
4.2590,-0.5020,-0.8642,0.0477
4.2590,-0.5020,-0.8642,0.0477
4.2640,-0.5020,-0.8642,0.0477
4.2790,-0.4597,-0.8678,0.0132
4.2800,-0.4597,-0.8678,0.0132
4.2800,-0.4597,-0.8678,0.0132
4.2830,-0.4597,-0.8678,0.0132
4.2830,-0.4597,-0.8678,0.0132
4.2990,-0.4597,-0.8678,0.0132
4.3000,-0.4489,-0.8605,0.0020
4.3000,-0.4489,-0.8605,0.0020
4.3000,-0.4489,-0.8605,0.0020
4.3190,-0.4746,-0.8490,0.0174
4.3190,-0.4746,-0.8490,0.0174
4.3190,-0.4746,-0.8490,0.0174
4.3390,-0.4690,-0.8422,0.0081
4.3390,-0.4690,-0.8422,0.0081
4.3390,-0.4690,-0.8422,0.0081
4.3590,-0.4724,-0.8414,0.0220
4.3590,-0.4724,-0.8414,0.0220
4.3590,-0.4724,-0.8414,0.0220
4.3620,-0.4724,-0.8414,0.0220
4.3620,-0.4724,-0.8414,0.0220
4.3800,-0.5076,-0.8493,0.0418
4.3800,-0.5076,-0.8493,0.0418
4.3800,-0.5076,-0.8493,0.0418
4.3990,-0.4741,-0.8378,0.0064
4.3990,-0.4741,-0.8378,0.0064
4.3990,-0.4741,-0.8378,0.0064
4.4190,-0.4922,-0.8324,-0.0110
4.4190,-0.4922,-0.8324,-0.0110
4.4190,-0.4922,-0.8324,-0.0110
4.4390,-0.5257,-0.8497,0.0240
4.4390,-0.5257,-0.8497,0.0240
4.4400,-0.5257,-0.8497,0.0240
4.4430,-0.5257,-0.8497,0.0240
4.4430,-0.5257,-0.8497,0.0240
4.4590,-0.4954,-0.8578,0.0359
4.4590,-0.4954,-0.8578,0.0359
4.4590,-0.4954,-0.8578,0.0359
4.4630,-0.4954,-0.8578,0.0359
4.4790,-0.4612,-0.8458,0.0220
4.4800,-0.4612,-0.8458,0.0220
4.4800,-0.4612,-0.8458,0.0220
4.4970,-0.4612,-0.8458,0.0220
4.4980,-0.4717,-0.8282,0.0083
4.4980,-0.4717,-0.8282,0.0083
4.4980,-0.4717,-0.8282,0.0083
4.5200,-0.4648,-0.8324,0.0271
4.5200,-0.4648,-0.8324,0.0271
4.5200,-0.4648,-0.8324,0.0271
4.5230,-0.4648,-0.8324,0.0271
4.5230,-0.4648,-0.8324,0.0271
4.5390,-0.4634,-0.8549,0.0252
4.5390,-0.4634,-0.8549,0.0252
4.5390,-0.4634,-0.8549,0.0252
4.5590,-0.4812,-0.8622,0.0117
4.5590,-0.4812,-0.8622,0.0117
4.5600,-0.4812,-0.8622,0.0117
4.5790,-0.4937,-0.8527,0.0149
4.5790,-0.4937,-0.8527,0.0149
4.5790,-0.4937,-0.8527,0.0149
4.5990,-0.4758,-0.8473,0.0103
4.5990,-0.4758,-0.8473,0.0103
4.6000,-0.4758,-0.8473,0.0103
4.6010,-0.4758,-0.8473,0.0103
4.6010,-0.4758,-0.8473,0.0103
4.6200,-0.4995,-0.8378,-0.0051
4.6200,-0.4995,-0.8378,-0.0051
4.6200,-0.4995,-0.8378,-0.0051
4.6390,-0.5069,-0.8495,0.0115
4.6400,-0.5069,-0.8495,0.0115
4.6400,-0.5069,-0.8495,0.0115
4.6570,-0.4599,-0.8637,0.0144
4.6570,-0.4599,-0.8637,0.0144
4.6570,-0.4599,-0.8637,0.0144
4.6760,-0.4597,-0.8537,0.0315
4.6770,-0.4597,-0.8537,0.0315
4.6770,-0.4597,-0.8537,0.0315
4.6800,-0.4597,-0.8537,0.0315
4.6800,-0.4597,-0.8537,0.0315
4.6960,-0.4597,-0.8537,0.0315
4.6970,-0.5022,-0.8402,0.0425
4.6970,-0.5022,-0.8402,0.0425
4.6970,-0.5022,-0.8402,0.0425
4.7170,-0.5047,-0.8383,0.0301
4.7170,-0.5047,-0.8383,0.0301
4.7170,-0.5047,-0.8383,0.0301
4.7350,-0.4951,-0.8400,0.0259
4.7350,-0.4951,-0.8400,0.0259
4.7360,-0.4951,-0.8400,0.0259
4.7580,-0.4898,-0.8397,0.0247
4.7580,-0.4898,-0.8397,0.0247
4.7860,-0.4898,-0.8397,0.0247
4.7870,-0.4898,-0.8397,0.0247
4.7870,-0.4898,-0.8397,0.0247
4.7870,-0.4680,-0.8353,0.0108
4.7880,-0.4680,-0.8353,0.0108
4.7880,-0.4680,-0.8353,0.0108
4.7950,-0.4590,-0.8346,0.0044
4.7950,-0.4590,-0.8346,0.0044
4.7950,-0.4590,-0.8346,0.0044
4.8150,-0.4714,-0.8378,0.0093
4.8150,-0.4714,-0.8378,0.0093
4.8150,-0.4714,-0.8378,0.0093
4.8350,-0.4880,-0.8383,0.0064
4.8350,-0.4880,-0.8383,0.0064
4.8350,-0.4880,-0.8383,0.0064
4.8390,-0.4880,-0.8383,0.0064
4.8390,-0.4880,-0.8383,0.0064
4.8550,-0.5010,-0.8427,0.0095
4.8560,-0.5010,-0.8427,0.0095
4.8560,-0.5010,-0.8427,0.0095
4.8580,-0.5010,-0.8427,0.0095
4.8760,-0.5022,-0.8473,0.0071
4.8760,-0.5022,-0.8473,0.0071
4.8760,-0.5022,-0.8473,0.0071
4.8940,-0.5022,-0.8473,0.0071
4.8950,-0.4988,-0.8529,0.0117
4.8950,-0.4988,-0.8529,0.0117
4.8960,-0.4988,-0.8529,0.0117
4.9150,-0.4942,-0.8502,0.0242
4.9160,-0.4942,-0.8502,0.0242
4.9160,-0.4942,-0.8502,0.0242
4.9200,-0.4942,-0.8502,0.0242
4.9200,-0.4942,-0.8502,0.0242
4.9350,-0.4973,-0.8439,0.0320
4.9350,-0.4973,-0.8439,0.0320
4.9350,-0.4973,-0.8439,0.0320
4.9550,-0.4868,-0.8351,0.0156
4.9550,-0.4868,-0.8351,0.0156
4.9560,-0.4868,-0.8351,0.0156
4.9760,-0.4841,-0.8434,0.0254
4.9770,-0.4841,-0.8434,0.0254
4.9770,-0.4841,-0.8434,0.0254
4.9950,-0.5032,-0.8473,0.0269
4.9950,-0.5032,-0.8473,0.0269
4.9960,-0.5032,-0.8473,0.0269
4.9980,-0.5032,-0.8473,0.0269
4.9990,-0.5032,-0.8473,0.0269
5.0150,-0.5154,-0.8341,0.0176
5.0160,-0.5154,-0.8341,0.0176
5.0160,-0.5154,-0.8341,0.0176
5.0350,-0.5149,-0.8312,0.0225
5.0350,-0.5149,-0.8312,0.0225
5.0350,-0.5149,-0.8312,0.0225
5.0550,-0.4844,-0.8380,0.0164
5.0550,-0.4844,-0.8380,0.0164
5.0560,-0.4844,-0.8380,0.0164
5.0570,-0.4844,-0.8380,0.0164
5.0770,-0.4678,-0.8407,0.0191
5.0770,-0.4678,-0.8407,0.0191
5.0770,-0.4678,-0.8407,0.0191
5.0780,-0.4678,-0.8407,0.0191
5.0780,-0.4678,-0.8407,0.0191
5.0930,-0.4678,-0.8407,0.0191
5.0950,-0.4841,-0.8375,0.0174
5.0950,-0.4841,-0.8375,0.0174
5.0950,-0.4841,-0.8375,0.0174
5.1160,-0.4986,-0.8409,0.0176
5.1170,-0.4986,-0.8409,0.0176
5.1170,-0.4986,-0.8409,0.0176
5.1360,-0.4841,-0.8512,0.0205
5.1360,-0.4841,-0.8512,0.0205
5.1360,-0.4841,-0.8512,0.0205
5.1550,-0.4680,-0.8502,0.0188
5.1560,-0.4680,-0.8502,0.0188
5.1560,-0.4680,-0.8502,0.0188
5.1570,-0.4680,-0.8502,0.0188
5.1580,-0.4680,-0.8502,0.0188
5.1750,-0.4665,-0.8497,0.0186
5.1750,-0.4665,-0.8497,0.0186
5.1750,-0.4665,-0.8497,0.0186
5.1950,-0.4885,-0.8546,0.0313
5.1950,-0.4885,-0.8546,0.0313
5.1950,-0.4885,-0.8546,0.0313
5.2140,-0.5003,-0.8495,0.0340
5.2140,-0.5003,-0.8495,0.0340
5.2150,-0.5003,-0.8495,0.0340
5.2360,-0.4871,-0.8299,0.0230
5.2380,-0.4871,-0.8299,0.0230
5.2380,-0.4871,-0.8299,0.0230
5.2390,-0.4871,-0.8299,0.0230
5.2390,-0.4871,-0.8299,0.0230
5.2570,-0.5108,-0.8229,0.0384
5.2570,-0.5108,-0.8229,0.0384
5.2580,-0.5108,-0.8229,0.0384
5.2750,-0.5208,-0.8282,0.0442
5.2750,-0.5208,-0.8282,0.0442
5.2750,-0.5208,-0.8282,0.0442
5.2920,-0.5208,-0.8282,0.0442
5.2920,-0.5093,-0.8275,0.0191
5.2940,-0.5093,-0.8275,0.0191
5.3290,-0.5093,-0.8275,0.0191
5.3290,-0.4983,-0.8295,0.0073
5.3290,-0.4983,-0.8295,0.0073
5.3290,-0.4983,-0.8295,0.0073
5.3290,-0.4983,-0.8295,0.0073
5.3300,-0.4983,-0.8295,0.0073
5.3330,-0.4861,-0.8326,-0.0029
5.3330,-0.4861,-0.8326,-0.0029
5.3330,-0.4861,-0.8326,-0.0029
5.3530,-0.4609,-0.8444,0.0049
5.3530,-0.4609,-0.8444,0.0049
5.3530,-0.4609,-0.8444,0.0049
5.3720,-0.4629,-0.8502,0.0186
5.3730,-0.4629,-0.8502,0.0186
5.3730,-0.4629,-0.8502,0.0186
5.3930,-0.4829,-0.8505,0.0393
5.3930,-0.4829,-0.8505,0.0393
5.3930,-0.4829,-0.8505,0.0393
5.3960,-0.4829,-0.8505,0.0393
5.3960,-0.4829,-0.8505,0.0393
5.4140,-0.4922,-0.8571,0.0415
5.4140,-0.4922,-0.8571,0.0415
5.4140,-0.4922,-0.8571,0.0415
5.4330,-0.4971,-0.8463,0.0196
5.4330,-0.4971,-0.8463,0.0196
5.4330,-0.4971,-0.8463,0.0196
5.4530,-0.5254,-0.8290,0.0130
5.4530,-0.5254,-0.8290,0.0130
5.4530,-0.5254,-0.8290,0.0130
5.4740,-0.5389,-0.8265,0.0164
5.4740,-0.5389,-0.8265,0.0164
5.4740,-0.5389,-0.8265,0.0164
5.4750,-0.5389,-0.8265,0.0164
5.4750,-0.5389,-0.8265,0.0164
5.4910,-0.5389,-0.8265,0.0164
5.4910,-0.5034,-0.8380,0.0073
5.4920,-0.5034,-0.8380,0.0073
5.4920,-0.5034,-0.8380,0.0073
5.5130,-0.4700,-0.8488,0.0012
5.5130,-0.4700,-0.8488,0.0012
5.5130,-0.4700,-0.8488,0.0012
5.5330,-0.4683,-0.8417,-0.0042
5.5330,-0.4683,-0.8417,-0.0042
5.5330,-0.4683,-0.8417,-0.0042
5.5540,-0.4964,-0.8255,0.0000
5.5540,-0.4964,-0.8255,0.0000
5.5540,-0.4964,-0.8255,0.0000
5.5550,-0.4964,-0.8255,0.0000
5.5550,-0.4964,-0.8255,0.0000
5.5730,-0.5152,-0.8363,0.0447
5.5730,-0.5152,-0.8363,0.0447
5.5740,-0.5152,-0.8363,0.0447
5.5930,-0.5064,-0.8456,0.0711
5.5940,-0.5064,-0.8456,0.0711
5.5940,-0.5064,-0.8456,0.0711
5.6140,-0.5198,-0.8402,0.0599
5.6140,-0.5198,-0.8402,0.0599
5.6140,-0.5198,-0.8402,0.0599
5.6330,-0.5306,-0.8429,0.0579
5.6330,-0.5306,-0.8429,0.0579
5.6340,-0.5306,-0.8429,0.0579
5.6340,-0.5306,-0.8429,0.0579
5.6340,-0.5306,-0.8429,0.0579
5.6520,-0.5037,-0.8524,0.0577
5.6530,-0.5037,-0.8524,0.0577
5.6530,-0.5037,-0.8524,0.0577
5.6720,-0.4846,-0.8466,0.0218
5.6720,-0.4846,-0.8466,0.0218
5.6720,-0.4846,-0.8466,0.0218
5.6890,-0.4846,-0.8466,0.0218
5.6900,-0.4827,-0.8351,-0.0130
5.6910,-0.4827,-0.8351,-0.0130
5.6910,-0.4827,-0.8351,-0.0130
5.7130,-0.4653,-0.8392,0.0020
5.7140,-0.4653,-0.8392,0.0020
5.7140,-0.4653,-0.8392,0.0020
5.7150,-0.4653,-0.8392,0.0020
5.7150,-0.4653,-0.8392,0.0020
5.7330,-0.4661,-0.8522,0.0122
5.7340,-0.4661,-0.8522,0.0122
5.7350,-0.4661,-0.8522,0.0122
5.7540,-0.4841,-0.8439,0.0071
5.7550,-0.4841,-0.8439,0.0071
5.7550,-0.4841,-0.8439,0.0071
5.7710,-0.5015,-0.8307,0.0125
5.7720,-0.5015,-0.8307,0.0125
5.7720,-0.5015,-0.8307,0.0125
5.7920,-0.5235,-0.8299,0.0132
5.7940,-0.5235,-0.8299,0.0132
5.7950,-0.5235,-0.8299,0.0132
5.7950,-0.5235,-0.8299,0.0132
5.7970,-0.5235,-0.8299,0.0132
5.8210,-0.5159,-0.8351,0.0237
5.8210,-0.5159,-0.8351,0.0237
5.8220,-0.5159,-0.8351,0.0237
5.8320,-0.5103,-0.8319,0.0130
5.8330,-0.5103,-0.8319,0.0130
5.8340,-0.5103,-0.8319,0.0130
5.8520,-0.5008,-0.8238,0.0103
5.8540,-0.5008,-0.8238,0.0103
5.9280,-0.5008,-0.8238,0.0103
5.9280,-0.4817,-0.8336,0.0261
5.9280,-0.4817,-0.8336,0.0261
5.9280,-0.4817,-0.8336,0.0261
5.9290,-0.4817,-0.8336,0.0261
5.9290,-0.4817,-0.8336,0.0261
5.9300,-0.4817,-0.8336,0.0261
5.9310,-0.4617,-0.8424,0.0467
5.9310,-0.4617,-0.8424,0.0467
5.9320,-0.4617,-0.8424,0.0467
5.9320,-0.4773,-0.8392,0.0144
5.9320,-0.4773,-0.8392,0.0144
5.9320,-0.4773,-0.8392,0.0144
5.9320,-0.4810,-0.8385,-0.0022
5.9320,-0.4810,-0.8385,-0.0022
5.9330,-0.4810,-0.8385,-0.0022
5.9490,-0.4846,-0.8644,0.0218
5.9490,-0.4846,-0.8644,0.0218
5.9490,-0.4846,-0.8644,0.0218
5.9520,-0.4846,-0.8644,0.0218
5.9520,-0.4846,-0.8644,0.0218
5.9680,-0.4592,-0.8659,0.0161
5.9680,-0.4592,-0.8659,0.0161
5.9680,-0.4592,-0.8659,0.0161
5.9890,-0.4507,-0.8397,-0.0010
5.9890,-0.4507,-0.8397,-0.0010
5.9890,-0.4507,-0.8397,-0.0010
6.0090,-0.4663,-0.8319,0.0059
6.0090,-0.4663,-0.8319,0.0059
6.0090,-0.4663,-0.8319,0.0059
6.0290,-0.4898,-0.8427,0.0330
6.0290,-0.4898,-0.8427,0.0330
6.0290,-0.4898,-0.8427,0.0330
6.0310,-0.4898,-0.8427,0.0330
6.0320,-0.4898,-0.8427,0.0330
6.0500,-0.4944,-0.8551,0.0452
6.0500,-0.4944,-0.8551,0.0452
6.0500,-0.4944,-0.8551,0.0452
6.0700,-0.4912,-0.8585,0.0276
6.0700,-0.4912,-0.8585,0.0276
6.0710,-0.4912,-0.8585,0.0276
6.0870,-0.4912,-0.8585,0.0276
6.0890,-0.4978,-0.8522,0.0117
6.0900,-0.4978,-0.8522,0.0117
6.0900,-0.4978,-0.8522,0.0117
6.1130,-0.5098,-0.8407,0.0220
6.1140,-0.5098,-0.8407,0.0220
6.1140,-0.5098,-0.8407,0.0220
6.1150,-0.5098,-0.8407,0.0220
6.1150,-0.5098,-0.8407,0.0220
6.1300,-0.5230,-0.8441,0.0755
6.1310,-0.5230,-0.8441,0.0755
6.1310,-0.5230,-0.8441,0.0755
6.1510,-0.4990,-0.8554,0.0604
6.1520,-0.4990,-0.8554,0.0604
6.1520,-0.4990,-0.8554,0.0604
6.1730,-0.4841,-0.8512,0.0169
6.1740,-0.4841,-0.8512,0.0169
6.1750,-0.4841,-0.8512,0.0169
6.1890,-0.4993,-0.8612,0.0132
6.1900,-0.4993,-0.8612,0.0132
6.1900,-0.4993,-0.8612,0.0132
6.1930,-0.4993,-0.8612,0.0132
6.1930,-0.4993,-0.8612,0.0132
6.2120,-0.4714,-0.8537,-0.0017
6.2130,-0.4714,-0.8537,-0.0017
6.2130,-0.4714,-0.8537,-0.0017
6.2310,-0.4646,-0.8309,-0.0156
6.2320,-0.4646,-0.8309,-0.0156
6.2330,-0.4646,-0.8309,-0.0156
6.2500,-0.4836,-0.8285,-0.0132
6.2670,-0.4836,-0.8285,-0.0132
6.2680,-0.4836,-0.8285,-0.0132
6.2940,-0.4763,-0.8463,-0.0022
6.3020,-0.4763,-0.8463,-0.0022
6.3030,-0.4763,-0.8463,-0.0022
6.3040,-0.4763,-0.8463,-0.0022
6.3340,-0.4763,-0.8463,-0.0022
6.3350,-0.4497,-0.8544,-0.0034
6.3360,-0.4497,-0.8544,-0.0034
6.3370,-0.4497,-0.8544,-0.0034
6.3370,-0.4497,-0.8544,-0.0034
6.3380,-0.4617,-0.8417,0.0007
6.3380,-0.5122,-0.8353,0.0499
6.3390,-0.5122,-0.8353,0.0499
6.3390,-0.5122,-0.8353,0.0499
6.3400,-0.5122,-0.8353,0.0499
6.3400,-0.5122,-0.8353,0.0499
6.3490,-0.5069,-0.8412,0.0496
6.3500,-0.5069,-0.8412,0.0496
6.3510,-0.5069,-0.8412,0.0496
6.3510,-0.5069,-0.8412,0.0496
6.3520,-0.5069,-0.8412,0.0496
6.3690,-0.4995,-0.8356,0.0144
6.3690,-0.4995,-0.8356,0.0144
6.3700,-0.4995,-0.8356,0.0144
6.3880,-0.5289,-0.8397,0.0169
6.3890,-0.5289,-0.8397,0.0169
6.3890,-0.5289,-0.8397,0.0169
6.4090,-0.5152,-0.8556,0.0362
6.4700,-0.5152,-0.8556,0.0362
6.4700,-0.5152,-0.8556,0.0362
6.4700,-0.4949,-0.8549,0.0122
6.4710,-0.4949,-0.8549,0.0122
6.4710,-0.4949,-0.8549,0.0122
6.4720,-0.4949,-0.8549,0.0122
6.4720,-0.4949,-0.8549,0.0122
6.4720,-0.4761,-0.8387,-0.0115
6.4720,-0.4761,-0.8387,-0.0115
6.4720,-0.4761,-0.8387,-0.0115
6.4730,-0.4406,-0.8414,0.0137
6.4730,-0.4406,-0.8414,0.0137
6.4730,-0.4406,-0.8414,0.0137
6.4840,-0.4406,-0.8414,0.0137
6.4840,-0.4546,-0.8610,0.0430
6.4860,-0.4546,-0.8610,0.0430
6.4860,-0.4546,-0.8610,0.0430
6.5050,-0.4722,-0.8625,0.0330
6.5050,-0.4722,-0.8625,0.0330
6.5060,-0.4722,-0.8625,0.0330
6.5080,-0.4722,-0.8625,0.0330
6.5090,-0.4722,-0.8625,0.0330
6.5250,-0.4582,-0.8666,0.0325
6.5250,-0.4582,-0.8666,0.0325
6.5250,-0.4582,-0.8666,0.0325
6.5450,-0.4673,-0.8703,0.0362
6.5450,-0.4673,-0.8703,0.0362
6.5450,-0.4673,-0.8703,0.0362
6.5660,-0.4834,-0.8463,0.0208
6.5660,-0.4834,-0.8463,0.0208
6.5660,-0.4834,-0.8463,0.0208
6.5860,-0.4920,-0.8351,0.0159
6.5860,-0.4920,-0.8351,0.0159
6.5860,-0.4920,-0.8351,0.0159
6.5890,-0.4920,-0.8351,0.0159
6.5890,-0.4920,-0.8351,0.0159
6.6060,-0.4621,-0.8458,0.0176
6.6060,-0.4621,-0.8458,0.0176
6.6060,-0.4621,-0.8458,0.0176
6.6250,-0.4419,-0.8471,0.0188
6.6260,-0.4419,-0.8471,0.0188
6.6260,-0.4419,-0.8471,0.0188
6.6460,-0.4612,-0.8263,0.0073
6.6460,-0.4612,-0.8263,0.0073
6.6460,-0.4612,-0.8263,0.0073
6.6670,-0.5049,-0.8248,0.0046
6.6670,-0.5049,-0.8248,0.0046
6.6670,-0.5049,-0.8248,0.0046
6.6690,-0.5049,-0.8248,0.0046
6.6690,-0.5049,-0.8248,0.0046
6.6820,-0.5049,-0.8248,0.0046
6.6840,-0.5166,-0.8471,0.0086
6.6840,-0.5166,-0.8471,0.0086
6.6840,-0.5166,-0.8471,0.0086
6.7060,-0.4851,-0.8517,0.0029
6.7070,-0.4851,-0.8517,0.0029
6.7070,-0.4851,-0.8517,0.0029
6.7260,-0.5049,-0.8383,0.0061
6.7260,-0.5049,-0.8383,0.0061
6.7270,-0.5049,-0.8383,0.0061
6.7470,-0.5122,-0.8297,0.0137
6.7480,-0.5122,-0.8297,0.0137
6.7490,-0.5122,-0.8297,0.0137
6.7530,-0.5122,-0.8297,0.0137
6.7540,-0.5122,-0.8297,0.0137
6.7660,-0.4966,-0.8485,0.0218
6.7670,-0.4966,-0.8485,0.0218
6.7670,-0.4966,-0.8485,0.0218
6.7860,-0.4832,-0.8644,0.0349
6.7870,-0.4832,-0.8644,0.0349
6.7880,-0.4832,-0.8644,0.0349
6.8060,-0.4748,-0.8546,0.0445
6.8060,-0.4748,-0.8546,0.0445
6.8070,-0.4748,-0.8546,0.0445
6.8260,-0.4724,-0.8502,0.0418
6.8270,-0.4724,-0.8502,0.0418
6.8270,-0.4724,-0.8502,0.0418
6.8330,-0.4724,-0.8502,0.0418
6.8340,-0.4724,-0.8502,0.0418
6.8450,-0.4739,-0.8532,0.0283
6.8450,-0.4739,-0.8532,0.0283
6.8460,-0.4739,-0.8532,0.0283
6.8640,-0.4788,-0.8554,0.0196
6.8650,-0.4788,-0.8554,0.0196
6.8650,-0.4788,-0.8554,0.0196
6.8820,-0.4788,-0.8554,0.0196
6.8830,-0.4670,-0.8544,0.0022
6.8840,-0.4670,-0.8544,0.0022
6.8850,-0.4670,-0.8544,0.0022
6.9050,-0.4658,-0.8512,0.0120
6.9060,-0.4658,-0.8512,0.0120
6.9060,-0.4658,-0.8512,0.0120
6.9060,-0.4658,-0.8512,0.0120
6.9070,-0.4658,-0.8512,0.0120
6.9260,-0.4951,-0.8422,0.0310
6.9270,-0.4951,-0.8422,0.0310
6.9270,-0.4951,-0.8422,0.0310
6.9440,-0.4658,-0.8312,-0.0005
6.9450,-0.4658,-0.8312,-0.0005
6.9450,-0.4658,-0.8312,-0.0005
6.9940,-0.4812,-0.8378,-0.0034
6.9940,-0.4812,-0.8378,-0.0034
6.9940,-0.4812,-0.8378,-0.0034
6.9950,-0.5169,-0.8444,0.0132
6.9950,-0.5169,-0.8444,0.0132
6.9950,-0.5169,-0.8444,0.0132
6.9950,-0.5169,-0.8444,0.0132
6.9950,-0.5169,-0.8444,0.0132
7.0070,-0.5154,-0.8463,0.0257
7.0070,-0.5154,-0.8463,0.0257
7.0080,-0.5154,-0.8463,0.0257
7.0230,-0.4846,-0.8478,0.0171
7.0230,-0.4846,-0.8478,0.0171
7.0230,-0.4846,-0.8478,0.0171
7.0460,-0.4658,-0.8554,0.0193
7.0470,-0.4658,-0.8554,0.0193
7.0470,-0.4658,-0.8554,0.0193
7.0620,-0.4678,-0.8576,0.0349
7.0620,-0.4678,-0.8576,0.0349
7.0620,-0.4678,-0.8576,0.0349
7.0670,-0.4678,-0.8576,0.0349
7.0670,-0.4678,-0.8576,0.0349
7.0800,-0.4678,-0.8576,0.0349
7.0820,-0.4387,-0.8512,0.0156
7.0820,-0.4387,-0.8512,0.0156
7.0820,-0.4387,-0.8512,0.0156
7.1020,-0.4257,-0.8578,0.0127
7.1020,-0.4257,-0.8578,0.0127
7.1020,-0.4257,-0.8578,0.0127
7.1220,-0.4678,-0.8556,0.0261
7.1220,-0.4678,-0.8556,0.0261
7.1220,-0.4678,-0.8556,0.0261
7.1420,-0.4927,-0.8412,0.0237
7.1420,-0.4927,-0.8412,0.0237
7.1420,-0.4927,-0.8412,0.0237
7.1450,-0.4927,-0.8412,0.0237
7.1450,-0.4927,-0.8412,0.0237
7.1620,-0.4832,-0.8375,0.0125
7.1620,-0.4832,-0.8375,0.0125
7.1620,-0.4832,-0.8375,0.0125
7.1810,-0.4714,-0.8471,0.0218
7.1810,-0.4714,-0.8471,0.0218
7.1820,-0.4714,-0.8471,0.0218
7.2020,-0.4663,-0.8512,0.0105
7.2020,-0.4663,-0.8512,0.0105
7.2020,-0.4663,-0.8512,0.0105
7.2220,-0.4778,-0.8495,0.0049
7.2220,-0.4778,-0.8495,0.0049
7.2220,-0.4778,-0.8495,0.0049
7.2240,-0.4778,-0.8495,0.0049
7.2250,-0.4778,-0.8495,0.0049
7.2420,-0.4888,-0.8571,-0.0076
7.2430,-0.4888,-0.8571,-0.0076
7.2430,-0.4888,-0.8571,-0.0076
7.2610,-0.4907,-0.8561,-0.0005
7.2610,-0.4907,-0.8561,-0.0005
7.2620,-0.4907,-0.8561,-0.0005
7.2780,-0.4907,-0.8561,-0.0005
7.2850,-0.5208,-0.8392,0.0393
7.2850,-0.5208,-0.8392,0.0393
7.2860,-0.5208,-0.8392,0.0393
7.3020,-0.5169,-0.8285,0.0491
7.3030,-0.5169,-0.8285,0.0491
7.3030,-0.5169,-0.8285,0.0491
7.3040,-0.5169,-0.8285,0.0491
7.3050,-0.5169,-0.8285,0.0491
7.3230,-0.4920,-0.8419,0.0191
7.3230,-0.4920,-0.8419,0.0191
7.3240,-0.4920,-0.8419,0.0191
7.3410,-0.4585,-0.8622,0.0022
7.3420,-0.4585,-0.8622,0.0022
7.3420,-0.4585,-0.8622,0.0022
7.3610,-0.4553,-0.8610,-0.0037
7.3610,-0.4553,-0.8610,-0.0037
7.3620,-0.4553,-0.8610,-0.0037
7.3810,-0.4912,-0.8488,0.0056
7.3820,-0.4912,-0.8488,0.0056
7.3820,-0.4912,-0.8488,0.0056
7.3840,-0.4912,-0.8488,0.0056
7.3840,-0.4912,-0.8488,0.0056
7.4010,-0.4893,-0.8546,0.0193
7.4010,-0.4893,-0.8546,0.0193
7.4020,-0.4893,-0.8546,0.0193
7.4210,-0.4678,-0.8566,0.0164
7.4210,-0.4678,-0.8566,0.0164
7.4220,-0.4678,-0.8566,0.0164
7.4440,-0.4536,-0.8468,0.0181
7.4440,-0.4536,-0.8468,0.0181
7.4450,-0.4536,-0.8468,0.0181
7.4600,-0.4639,-0.8485,0.0191
7.4610,-0.4639,-0.8485,0.0191
7.4610,-0.4639,-0.8485,0.0191
7.4630,-0.4639,-0.8485,0.0191
7.4640,-0.4639,-0.8485,0.0191
7.4770,-0.4639,-0.8485,0.0191
7.4800,-0.4800,-0.8505,0.0266
7.4800,-0.4800,-0.8505,0.0266
7.4810,-0.4800,-0.8505,0.0266
7.5000,-0.4810,-0.8380,0.0073
7.5010,-0.4810,-0.8380,0.0073
7.5630,-0.4810,-0.8380,0.0073
7.5630,-0.5039,-0.8409,0.0188
7.5630,-0.5039,-0.8409,0.0188
7.5630,-0.5039,-0.8409,0.0188
7.5640,-0.4880,-0.8632,0.0313
7.5640,-0.4880,-0.8632,0.0313
7.5640,-0.4880,-0.8632,0.0313
7.5640,-0.4880,-0.8632,0.0313
7.5640,-0.4880,-0.8632,0.0313
7.5640,-0.4472,-0.8573,-0.0012
7.5650,-0.4472,-0.8573,-0.0012
7.5650,-0.4472,-0.8573,-0.0012
7.5800,-0.4714,-0.8436,-0.0007
7.5800,-0.4714,-0.8436,-0.0007
7.5800,-0.4714,-0.8436,-0.0007
7.5990,-0.4658,-0.8475,0.0252
7.5990,-0.4658,-0.8475,0.0252
7.5990,-0.4658,-0.8475,0.0252
7.6190,-0.4499,-0.8651,0.0381
7.6190,-0.4499,-0.8651,0.0381
7.6210,-0.4499,-0.8651,0.0381
7.6230,-0.4499,-0.8651,0.0381
7.6240,-0.4499,-0.8651,0.0381
7.6400,-0.4419,-0.8749,0.0330
7.6400,-0.4419,-0.8749,0.0330
7.6410,-0.4419,-0.8749,0.0330
7.6600,-0.4458,-0.8615,0.0152
7.6600,-0.4458,-0.8615,0.0152
7.6610,-0.4458,-0.8615,0.0152
7.6770,-0.4458,-0.8615,0.0152
7.6790,-0.4827,-0.8422,0.0078
7.6800,-0.4827,-0.8422,0.0078
7.6800,-0.4827,-0.8422,0.0078
7.7000,-0.5039,-0.8365,0.0078
7.7000,-0.5039,-0.8365,0.0078
7.7000,-0.5039,-0.8365,0.0078
7.7020,-0.5039,-0.8365,0.0078
7.7020,-0.5039,-0.8365,0.0078
7.7180,-0.4683,-0.8422,-0.0068
7.7180,-0.4683,-0.8422,-0.0068
7.7180,-0.4683,-0.8422,-0.0068
7.7380,-0.4472,-0.8419,-0.0086
7.7380,-0.4472,-0.8419,-0.0086
7.7380,-0.4472,-0.8419,-0.0086
7.7580,-0.4810,-0.8353,0.0088
7.7580,-0.4810,-0.8353,0.0088
7.7580,-0.4810,-0.8353,0.0088
7.7780,-0.4856,-0.8405,0.0137
7.7780,-0.4856,-0.8405,0.0137
7.7790,-0.4856,-0.8405,0.0137
7.7810,-0.4856,-0.8405,0.0137
7.7810,-0.4856,-0.8405,0.0137
7.7990,-0.5066,-0.8576,0.0169
7.7990,-0.5066,-0.8576,0.0169
7.8000,-0.5066,-0.8576,0.0169
7.8200,-0.5110,-0.8703,0.0247
7.8200,-0.5110,-0.8703,0.0247
7.8210,-0.5110,-0.8703,0.0247
7.8400,-0.4858,-0.8671,0.0225
7.8400,-0.4858,-0.8671,0.0225
7.8410,-0.4858,-0.8671,0.0225
7.8580,-0.4863,-0.8532,0.0152
7.8590,-0.4863,-0.8532,0.0152
7.8590,-0.4863,-0.8532,0.0152
7.8620,-0.4863,-0.8532,0.0152
7.8630,-0.4863,-0.8532,0.0152
7.8770,-0.4863,-0.8532,0.0152
7.8780,-0.4846,-0.8446,0.0130
7.8790,-0.4846,-0.8446,0.0130
7.8790,-0.4846,-0.8446,0.0130
7.8990,-0.4661,-0.8480,0.0066
7.9000,-0.4661,-0.8480,0.0066
7.9000,-0.4661,-0.8480,0.0066
7.9190,-0.4421,-0.8556,0.0156
7.9190,-0.4421,-0.8556,0.0156
7.9200,-0.4421,-0.8556,0.0156
7.9390,-0.4514,-0.8475,0.0208
7.9390,-0.4514,-0.8475,0.0208
7.9400,-0.4514,-0.8475,0.0208
7.9420,-0.4514,-0.8475,0.0208
7.9430,-0.4514,-0.8475,0.0208
7.9570,-0.4673,-0.8527,0.0367
7.9580,-0.4673,-0.8527,0.0367
7.9580,-0.4673,-0.8527,0.0367
7.9770,-0.4829,-0.8647,0.0374
7.9770,-0.4829,-0.8647,0.0374
7.9780,-0.4829,-0.8647,0.0374
7.9980,-0.4973,-0.8490,0.0174
7.9980,-0.4973,-0.8490,0.0174
7.9990,-0.4973,-0.8490,0.0174
8.0180,-0.5325,-0.8383,0.0181
8.0190,-0.5325,-0.8383,0.0181
8.0200,-0.5325,-0.8383,0.0181
8.0230,-0.5325,-0.8383,0.0181
8.0240,-0.5325,-0.8383,0.0181
8.0370,-0.5147,-0.8407,0.0042
8.0380,-0.5147,-0.8407,0.0042
8.0390,-0.5147,-0.8407,0.0042
8.0570,-0.4839,-0.8439,-0.0042
8.0590,-0.4839,-0.8439,-0.0042
8.1160,-0.4839,-0.8439,-0.0042
8.1170,-0.4839,-0.8439,-0.0042
8.1170,-0.4651,-0.8373,0.0022
8.1170,-0.4651,-0.8373,0.0022
8.1170,-0.4651,-0.8373,0.0022
8.1170,-0.4489,-0.8277,-0.0017
8.1180,-0.4489,-0.8277,-0.0017
8.1180,-0.4489,-0.8277,-0.0017
8.1180,-0.4489,-0.8277,-0.0017
8.1190,-0.4489,-0.8277,-0.0017
8.1190,-0.4511,-0.8358,-0.0120
8.1190,-0.4511,-0.8358,-0.0120
8.1200,-0.4511,-0.8358,-0.0120
8.1370,-0.4553,-0.8541,0.0144
8.1370,-0.4553,-0.8541,0.0144
8.1380,-0.4553,-0.8541,0.0144
8.1560,-0.4604,-0.8725,0.0398
8.1570,-0.4604,-0.8725,0.0398
8.1570,-0.4604,-0.8725,0.0398
8.1760,-0.4343,-0.8693,0.0269
8.1770,-0.4343,-0.8693,0.0269
8.1770,-0.4343,-0.8693,0.0269
8.1790,-0.4343,-0.8693,0.0269
8.1790,-0.4343,-0.8693,0.0269
8.1980,-0.4438,-0.8622,0.0071
8.1990,-0.4438,-0.8622,0.0071
8.1990,-0.4438,-0.8622,0.0071
8.2170,-0.4788,-0.8524,-0.0007
8.2180,-0.4788,-0.8524,-0.0007
8.2180,-0.4788,-0.8524,-0.0007
8.2400,-0.4873,-0.8446,-0.0095
8.2400,-0.4873,-0.8446,-0.0095
8.2410,-0.4873,-0.8446,-0.0095
8.2560,-0.4663,-0.8441,-0.0327
8.2570,-0.4663,-0.8441,-0.0327
8.2570,-0.4663,-0.8441,-0.0327
8.2580,-0.4663,-0.8441,-0.0327
8.2580,-0.4663,-0.8441,-0.0327
8.2710,-0.4663,-0.8441,-0.0327
8.2760,-0.4475,-0.8329,-0.0149
8.2760,-0.4475,-0.8329,-0.0149
8.2760,-0.4475,-0.8329,-0.0149
8.2950,-0.4783,-0.8146,0.0293
8.2950,-0.4783,-0.8146,0.0293
8.2950,-0.4783,-0.8146,0.0293
8.3150,-0.5115,-0.8233,0.0196
8.3150,-0.5115,-0.8233,0.0196
8.3150,-0.5115,-0.8233,0.0196
8.3350,-0.4893,-0.8541,0.0044
8.3350,-0.4893,-0.8541,0.0044
8.3350,-0.4893,-0.8541,0.0044
8.3380,-0.4893,-0.8541,0.0044
8.3380,-0.4893,-0.8541,0.0044
8.3540,-0.5103,-0.8769,0.0188
8.3550,-0.5103,-0.8769,0.0188
8.3550,-0.5103,-0.8769,0.0188
8.3740,-0.5308,-0.8761,0.0425
8.3740,-0.5308,-0.8761,0.0425
8.3740,-0.5308,-0.8761,0.0425
8.3940,-0.5188,-0.8686,0.0310
8.3940,-0.5188,-0.8686,0.0310
8.3940,-0.5188,-0.8686,0.0310
8.4140,-0.4929,-0.8642,0.0108
8.4140,-0.4929,-0.8642,0.0108
8.4150,-0.4929,-0.8642,0.0108
8.4170,-0.4929,-0.8642,0.0108
8.4170,-0.4929,-0.8642,0.0108
8.4350,-0.4651,-0.8593,0.0056
8.4350,-0.4651,-0.8593,0.0056
8.4350,-0.4651,-0.8593,0.0056
8.4550,-0.4629,-0.8537,0.0154
8.4550,-0.4629,-0.8537,0.0154
8.4550,-0.4629,-0.8537,0.0154
8.4700,-0.4629,-0.8537,0.0154
8.4750,-0.4477,-0.8502,0.0205
8.4760,-0.4477,-0.8502,0.0205
8.4770,-0.4477,-0.8502,0.0205
8.4960,-0.4499,-0.8444,0.0117
8.4970,-0.4499,-0.8444,0.0117
8.4970,-0.4499,-0.8444,0.0117
8.4980,-0.4499,-0.8444,0.0117
8.4980,-0.4499,-0.8444,0.0117
8.5170,-0.4844,-0.8441,0.0078
8.5180,-0.4844,-0.8441,0.0078
8.5180,-0.4844,-0.8441,0.0078
8.5360,-0.4785,-0.8551,0.0154
8.5370,-0.4785,-0.8551,0.0154
8.5370,-0.4785,-0.8551,0.0154
8.5550,-0.4868,-0.8563,0.0015
8.5560,-0.4868,-0.8563,0.0015
8.5570,-0.4868,-0.8563,0.0015
8.5780,-0.4939,-0.8527,-0.0002
8.5790,-0.4939,-0.8527,-0.0002
8.5800,-0.4939,-0.8527,-0.0002
8.5800,-0.4939,-0.8527,-0.0002
8.5810,-0.4939,-0.8527,-0.0002
8.5970,-0.4854,-0.8512,-0.0022
8.5970,-0.4854,-0.8512,-0.0022
8.5980,-0.4854,-0.8512,-0.0022
8.6170,-0.4707,-0.8395,0.0010
8.6950,-0.4707,-0.8395,0.0010
8.6960,-0.4707,-0.8395,0.0010
8.6960,-0.4619,-0.8336,0.0098
8.6960,-0.4619,-0.8336,0.0098
8.6970,-0.4619,-0.8336,0.0098
8.6970,-0.4467,-0.8321,0.0093
8.6970,-0.4467,-0.8321,0.0093
8.6980,-0.4467,-0.8321,0.0093
8.6980,-0.4467,-0.8321,0.0093
8.6990,-0.4467,-0.8321,0.0093
8.6990,-0.4467,-0.8321,0.0093
8.6990,-0.4467,-0.8395,0.0218
8.7000,-0.4467,-0.8395,0.0218
8.7000,-0.4467,-0.8395,0.0218
8.7000,-0.4668,-0.8517,0.0276
8.7000,-0.4668,-0.8517,0.0276
8.7010,-0.4668,-0.8517,0.0276
8.7130,-0.4470,-0.8651,0.0110
8.7130,-0.4470,-0.8651,0.0110
8.7140,-0.4470,-0.8651,0.0110
8.7340,-0.4685,-0.8796,-0.0095
8.7340,-0.4685,-0.8796,-0.0095
8.7340,-0.4685,-0.8796,-0.0095
8.7360,-0.4685,-0.8796,-0.0095
8.7360,-0.4685,-0.8796,-0.0095
8.7530,-0.4683,-0.8734,-0.0020
8.7540,-0.4683,-0.8734,-0.0020
8.7540,-0.4683,-0.8734,-0.0020
8.7740,-0.4612,-0.8583,-0.0137
8.7740,-0.4612,-0.8583,-0.0137
8.7740,-0.4612,-0.8583,-0.0137
8.7940,-0.4829,-0.8378,-0.0213
8.7950,-0.4829,-0.8378,-0.0213
8.7950,-0.4829,-0.8378,-0.0213
8.8160,-0.4780,-0.8331,-0.0029
8.8170,-0.4780,-0.8331,-0.0029
8.8180,-0.4780,-0.8331,-0.0029
8.8190,-0.4780,-0.8331,-0.0029
8.8190,-0.4780,-0.8331,-0.0029
8.8350,-0.4529,-0.8373,0.0115
8.8350,-0.4529,-0.8373,0.0115
8.8360,-0.4529,-0.8373,0.0115
8.8370,-0.4529,-0.8373,0.0115
8.8560,-0.4707,-0.8451,0.0384
8.8570,-0.4707,-0.8451,0.0384
8.8600,-0.4707,-0.8451,0.0384
8.8680,-0.4707,-0.8451,0.0384
8.8730,-0.4900,-0.8497,0.0462
8.8740,-0.4900,-0.8497,0.0462
8.8740,-0.4900,-0.8497,0.0462
8.8910,-0.4993,-0.8595,0.0325
8.8910,-0.4993,-0.8595,0.0325
8.8910,-0.4993,-0.8595,0.0325
8.8940,-0.4993,-0.8595,0.0325
8.8950,-0.4993,-0.8595,0.0325
8.9110,-0.5098,-0.8720,0.0161
8.9110,-0.5098,-0.8720,0.0161
8.9110,-0.5098,-0.8720,0.0161
8.9310,-0.4988,-0.8686,0.0149
8.9310,-0.4988,-0.8686,0.0149
8.9310,-0.4988,-0.8686,0.0149
8.9520,-0.4641,-0.8556,0.0076
8.9520,-0.4641,-0.8556,0.0076
8.9520,-0.4641,-0.8556,0.0076
8.9710,-0.4485,-0.8458,-0.0034
8.9710,-0.4485,-0.8458,-0.0034
8.9710,-0.4485,-0.8458,-0.0034
8.9740,-0.4485,-0.8458,-0.0034
8.9740,-0.4485,-0.8458,-0.0034
8.9920,-0.4582,-0.8400,-0.0137
8.9930,-0.4582,-0.8400,-0.0137
8.9930,-0.4582,-0.8400,-0.0137
9.0130,-0.4477,-0.8466,-0.0059
9.0130,-0.4477,-0.8466,-0.0059
9.0140,-0.4477,-0.8466,-0.0059
9.0330,-0.4477,-0.8466,-0.0059
9.0340,-0.4792,-0.8659,0.0181
9.0340,-0.4792,-0.8659,0.0181
9.0340,-0.4792,-0.8659,0.0181
9.0530,-0.4741,-0.8571,0.0059
9.0530,-0.4741,-0.8571,0.0059
9.0540,-0.4741,-0.8571,0.0059
9.0550,-0.4741,-0.8571,0.0059
9.0560,-0.4741,-0.8571,0.0059
9.0690,-0.4741,-0.8571,0.0059
9.0720,-0.4770,-0.8480,0.0056
9.0730,-0.4770,-0.8480,0.0056
9.0740,-0.4770,-0.8480,0.0056
9.0930,-0.5179,-0.8539,0.0225
9.0940,-0.5179,-0.8539,0.0225
9.0940,-0.5179,-0.8539,0.0225
9.1130,-0.5120,-0.8532,0.0188
9.1140,-0.5120,-0.8532,0.0188
9.1140,-0.5120,-0.8532,0.0188
9.1350,-0.4902,-0.8566,-0.0007
9.1360,-0.4902,-0.8566,-0.0007
9.1370,-0.4902,-0.8566,-0.0007
9.1380,-0.4902,-0.8566,-0.0007
9.1380,-0.4902,-0.8566,-0.0007
9.1520,-0.4634,-0.8549,0.0010
9.2400,-0.4634,-0.8549,0.0010
9.2410,-0.4634,-0.8549,0.0010
9.2410,-0.4397,-0.8409,-0.0029
9.2420,-0.4397,-0.8409,-0.0029
9.2420,-0.4397,-0.8409,-0.0029
9.2420,-0.4472,-0.8392,0.0127
9.2420,-0.4472,-0.8392,0.0127
9.2430,-0.4472,-0.8392,0.0127
9.2430,-0.4441,-0.8422,-0.0015
9.2430,-0.4441,-0.8422,-0.0015
9.2440,-0.4441,-0.8422,-0.0015
9.2440,-0.4441,-0.8422,-0.0015
9.2440,-0.4441,-0.8422,-0.0015
9.2450,-0.4448,-0.8483,-0.0020
9.2450,-0.4448,-0.8483,-0.0020
9.2450,-0.4448,-0.8483,-0.0020
9.2510,-0.4680,-0.8666,0.0149
9.2510,-0.4680,-0.8666,0.0149
9.2510,-0.4680,-0.8666,0.0149
9.2650,-0.4680,-0.8666,0.0149
9.2700,-0.4651,-0.8686,0.0068
9.2700,-0.4651,-0.8686,0.0068
9.2700,-0.4651,-0.8686,0.0068
9.2910,-0.4751,-0.8581,-0.0090
9.2910,-0.4751,-0.8581,-0.0090
9.2910,-0.4751,-0.8581,-0.0090
9.2930,-0.4751,-0.8581,-0.0090
9.2930,-0.4751,-0.8581,-0.0090
9.3110,-0.4726,-0.8458,-0.0022
9.3120,-0.4726,-0.8458,-0.0022
9.3120,-0.4726,-0.8458,-0.0022
9.3310,-0.4582,-0.8343,-0.0188
9.3310,-0.4582,-0.8343,-0.0188
9.3320,-0.4582,-0.8343,-0.0188
9.3510,-0.4785,-0.8317,-0.0125
9.3520,-0.4785,-0.8317,-0.0125
9.3530,-0.4785,-0.8317,-0.0125
9.3700,-0.5144,-0.8490,0.0125
9.3710,-0.5144,-0.8490,0.0125
9.3710,-0.5144,-0.8490,0.0125
9.3740,-0.5144,-0.8490,0.0125
9.3740,-0.5144,-0.8490,0.0125
9.3900,-0.4888,-0.8571,0.0127
9.3910,-0.4888,-0.8571,0.0127
9.3910,-0.4888,-0.8571,0.0127
9.4110,-0.5020,-0.8766,0.0437
9.4110,-0.5020,-0.8766,0.0437
9.4120,-0.5020,-0.8766,0.0437
9.4300,-0.5164,-0.8764,0.0623
9.4310,-0.5164,-0.8764,0.0623
9.4310,-0.5164,-0.8764,0.0623
9.4500,-0.4888,-0.8537,0.0288
9.4500,-0.4888,-0.8537,0.0288
9.4510,-0.4888,-0.8537,0.0288
9.4550,-0.4888,-0.8537,0.0288
9.4560,-0.4888,-0.8537,0.0288
9.4630,-0.4888,-0.8537,0.0288
9.4690,-0.4795,-0.8441,0.0024
9.4690,-0.4795,-0.8441,0.0024
9.4700,-0.4795,-0.8441,0.0024
9.4880,-0.4817,-0.8519,0.0176
9.5040,-0.4817,-0.8519,0.0176
9.5050,-0.4817,-0.8519,0.0176
9.5290,-0.4744,-0.8551,0.0078
9.5400,-0.4744,-0.8551,0.0078
9.5400,-0.4744,-0.8551,0.0078
9.5680,-0.4531,-0.8544,-0.0103
9.5680,-0.4531,-0.8544,-0.0103
9.5680,-0.4531,-0.8544,-0.0103
9.5710,-0.4531,-0.8544,-0.0103
9.5740,-0.4531,-0.8544,-0.0103
9.5740,-0.4619,-0.8427,-0.0110
9.5740,-0.4590,-0.8268,-0.0174
9.5740,-0.4590,-0.8268,-0.0174
9.5750,-0.4590,-0.8268,-0.0174
9.5750,-0.4590,-0.8268,-0.0174
9.5750,-0.4590,-0.8268,-0.0174
9.5880,-0.4573,-0.8356,-0.0166
9.5880,-0.4573,-0.8356,-0.0166
9.5880,-0.4573,-0.8356,-0.0166
9.6080,-0.4902,-0.8495,0.0037
9.6080,-0.4902,-0.8495,0.0037
9.6080,-0.4902,-0.8495,0.0037
9.6100,-0.4902,-0.8495,0.0037
9.6110,-0.4902,-0.8495,0.0037
9.6280,-0.5218,-0.8559,0.0298
9.6280,-0.5218,-0.8559,0.0298
9.6280,-0.5218,-0.8559,0.0298
9.6490,-0.5157,-0.8534,0.0403
9.6490,-0.5157,-0.8534,0.0403
9.6500,-0.5157,-0.8534,0.0403
9.6680,-0.5157,-0.8534,0.0403
9.6690,-0.4856,-0.8417,0.0281
9.6690,-0.4856,-0.8417,0.0281
9.6690,-0.4856,-0.8417,0.0281
9.6890,-0.4636,-0.8297,-0.0015
9.6900,-0.4636,-0.8297,-0.0015
9.6910,-0.4636,-0.8297,-0.0015
9.6930,-0.4636,-0.8297,-0.0015
9.6970,-0.4636,-0.8297,-0.0015
9.7610,-0.4595,-0.8312,-0.0049
9.7620,-0.4595,-0.8312,-0.0049
9.7620,-0.4595,-0.8312,-0.0049
9.7620,-0.4599,-0.8529,0.0203
9.7620,-0.4599,-0.8529,0.0203
9.7620,-0.4599,-0.8529,0.0203
9.7630,-0.4441,-0.8649,0.0161
9.7640,-0.4441,-0.8649,0.0161
9.7650,-0.4441,-0.8649,0.0161
9.7760,-0.4365,-0.8561,0.0044
9.7770,-0.4365,-0.8561,0.0044
9.7770,-0.4365,-0.8561,0.0044
9.7770,-0.4365,-0.8561,0.0044
9.7770,-0.4365,-0.8561,0.0044
9.7880,-0.4587,-0.8473,-0.0049
9.7880,-0.4587,-0.8473,-0.0049
9.7880,-0.4587,-0.8473,-0.0049
9.8060,-0.4731,-0.8434,-0.0073
9.8070,-0.4731,-0.8434,-0.0073
9.8070,-0.4731,-0.8434,-0.0073
9.8270,-0.4890,-0.8495,-0.0061
9.8280,-0.4890,-0.8495,-0.0061
9.8280,-0.4890,-0.8495,-0.0061
9.8470,-0.4910,-0.8488,-0.0122
9.8480,-0.4910,-0.8488,-0.0122
9.8480,-0.4910,-0.8488,-0.0122
9.8490,-0.4910,-0.8488,-0.0122
9.8500,-0.4910,-0.8488,-0.0122
9.8610,-0.4910,-0.8488,-0.0122
9.8670,-0.4922,-0.8466,0.0005
9.8680,-0.4922,-0.8466,0.0005
9.8680,-0.4922,-0.8466,0.0005
9.8880,-0.4722,-0.8422,0.0178
9.8890,-0.4722,-0.8422,0.0178
9.8890,-0.4722,-0.8422,0.0178
9.9070,-0.4907,-0.8390,0.0335
9.9070,-0.4907,-0.8390,0.0335
9.9080,-0.4907,-0.8390,0.0335
9.9300,-0.5086,-0.8495,0.0430
9.9310,-0.5086,-0.8495,0.0430
9.9350,-0.5086,-0.8495,0.0430
9.9360,-0.5086,-0.8495,0.0430
9.9370,-0.5086,-0.8495,0.0430
9.9480,-0.5105,-0.8639,0.0367
9.9500,-0.5105,-0.8639,0.0367
9.9500,-0.5105,-0.8639,0.0367
9.9680,-0.5069,-0.8610,0.0254
9.9690,-0.5069,-0.8610,0.0254
9.9690,-0.5069,-0.8610,0.0254
9.9870,-0.4895,-0.8505,0.0108
9.9880,-0.4895,-0.8505,0.0108
9.9880,-0.4895,-0.8505,0.0108
10.0080,-0.4668,-0.8485,-0.0068
10.0090,-0.4668,-0.8485,-0.0068
10.0090,-0.4668,-0.8485,-0.0068
10.0140,-0.4668,-0.8485,-0.0068
10.0160,-0.4668,-0.8485,-0.0068
10.0280,-0.4546,-0.8588,-0.0205
10.0290,-0.4546,-0.8588,-0.0205
10.0290,-0.4546,-0.8588,-0.0205
10.0450,-0.4533,-0.8585,-0.0261
10.0460,-0.4533,-0.8585,-0.0261
10.0460,-0.4533,-0.8585,-0.0261
10.0600,-0.4533,-0.8585,-0.0261
10.0660,-0.4577,-0.8461,-0.0171
10.0680,-0.4577,-0.8461,-0.0171
10.0690,-0.4577,-0.8461,-0.0171
10.0840,-0.4692,-0.8414,0.0247
10.0850,-0.4692,-0.8414,0.0247
10.0850,-0.4692,-0.8414,0.0247
10.0870,-0.4692,-0.8414,0.0247
10.0880,-0.4692,-0.8414,0.0247
10.1060,-0.4885,-0.8402,0.0301
10.1060,-0.4885,-0.8402,0.0301
10.1060,-0.4885,-0.8402,0.0301
10.1240,-0.4959,-0.8456,0.0122
10.1240,-0.4959,-0.8456,0.0122
10.1260,-0.4959,-0.8456,0.0122
10.1430,-0.5098,-0.8571,0.0142
10.1440,-0.5098,-0.8571,0.0142
10.1440,-0.5098,-0.8571,0.0142
10.1650,-0.5225,-0.8524,0.0144
10.1650,-0.5225,-0.8524,0.0144
10.1650,-0.5225,-0.8524,0.0144
10.1670,-0.5225,-0.8524,0.0144
10.1670,-0.5225,-0.8524,0.0144
10.1840,-0.5052,-0.8461,0.0117
10.1840,-0.5052,-0.8461,0.0117
10.1850,-0.5052,-0.8461,0.0117
10.2050,-0.4665,-0.8480,-0.0042
10.2050,-0.4665,-0.8480,-0.0042
10.2050,-0.4665,-0.8480,-0.0042
10.2240,-0.4565,-0.8559,-0.0056
10.2250,-0.4565,-0.8559,-0.0056
10.2250,-0.4565,-0.8559,-0.0056
10.2450,-0.4543,-0.8458,0.0154
10.2450,-0.4543,-0.8458,0.0154
10.2450,-0.4543,-0.8458,0.0154
10.2460,-0.4543,-0.8458,0.0154
10.2470,-0.4543,-0.8458,0.0154
10.2900,-0.4543,-0.8458,0.0154
10.2900,-0.4287,-0.8441,0.0166
10.2900,-0.4287,-0.8441,0.0166
10.2900,-0.4287,-0.8441,0.0166
10.2910,-0.4433,-0.8585,0.0174
10.2910,-0.4433,-0.8585,0.0174
10.2910,-0.4433,-0.8585,0.0174
10.3040,-0.4643,-0.8622,0.0098
10.3040,-0.4643,-0.8622,0.0098
10.3040,-0.4643,-0.8622,0.0098
10.3220,-0.4817,-0.8478,-0.0005
10.3230,-0.4817,-0.8478,-0.0005
10.3230,-0.4817,-0.8478,-0.0005
10.3270,-0.4817,-0.8478,-0.0005
10.3270,-0.4817,-0.8478,-0.0005
10.3440,-0.4900,-0.8412,-0.0002
10.3440,-0.4900,-0.8412,-0.0002
10.3440,-0.4900,-0.8412,-0.0002
10.3650,-0.4800,-0.8392,-0.0027
10.3650,-0.4800,-0.8392,-0.0027
10.3650,-0.4800,-0.8392,-0.0027
10.3860,-0.4724,-0.8488,-0.0110
10.3870,-0.4724,-0.8488,-0.0110
10.3870,-0.4724,-0.8488,-0.0110
10.4090,-0.4741,-0.8522,-0.0061
10.4090,-0.4741,-0.8522,-0.0061
10.4100,-0.4741,-0.8522,-0.0061
10.4110,-0.4741,-0.8522,-0.0061
10.4110,-0.4741,-0.8522,-0.0061
10.4240,-0.4834,-0.8390,-0.0046
10.4240,-0.4834,-0.8390,-0.0046
10.4250,-0.4834,-0.8390,-0.0046
10.4440,-0.4890,-0.8246,0.0095
10.4440,-0.4890,-0.8246,0.0095
10.4450,-0.4890,-0.8246,0.0095
10.4580,-0.4890,-0.8246,0.0095
10.4640,-0.5230,-0.8495,0.0425
10.4650,-0.5230,-0.8495,0.0425
10.4650,-0.5230,-0.8495,0.0425
10.4850,-0.4937,-0.8583,0.0293
10.4870,-0.4937,-0.8583,0.0293
10.4880,-0.4937,-0.8583,0.0293
10.4890,-0.4937,-0.8583,0.0293
10.4890,-0.4937,-0.8583,0.0293
10.5030,-0.4873,-0.8571,0.0188
10.5040,-0.4873,-0.8571,0.0188
10.5040,-0.4873,-0.8571,0.0188
10.5220,-0.5054,-0.8666,0.0415
10.5230,-0.5054,-0.8666,0.0415
10.5240,-0.5054,-0.8666,0.0415
10.5430,-0.4573,-0.8647,0.0408
10.5430,-0.4573,-0.8647,0.0408
10.5440,-0.4573,-0.8647,0.0408
10.5630,-0.4357,-0.8500,0.0083
10.5640,-0.4357,-0.8500,0.0083
10.5650,-0.4357,-0.8500,0.0083
10.5650,-0.4357,-0.8500,0.0083
10.5660,-0.4357,-0.8500,0.0083
10.5820,-0.4575,-0.8409,-0.0068
10.5830,-0.4575,-0.8409,-0.0068
10.5870,-0.4575,-0.8409,-0.0068
10.6030,-0.4697,-0.8439,-0.0117
10.6030,-0.4697,-0.8439,-0.0117
10.6040,-0.4697,-0.8439,-0.0117
10.6230,-0.4773,-0.8478,-0.0098
10.6240,-0.4773,-0.8478,-0.0098
10.6240,-0.4773,-0.8478,-0.0098
10.6420,-0.4822,-0.8517,-0.0064
10.6430,-0.4822,-0.8517,-0.0064
10.6440,-0.4822,-0.8517,-0.0064
10.6440,-0.4822,-0.8517,-0.0064
10.6450,-0.4822,-0.8517,-0.0064
10.6550,-0.4822,-0.8517,-0.0064
10.6630,-0.4932,-0.8412,0.0034
10.6630,-0.4932,-0.8412,0.0034
10.6640,-0.4932,-0.8412,0.0034
10.6820,-0.4920,-0.8392,0.0127
10.6820,-0.4920,-0.8392,0.0127
10.6820,-0.4920,-0.8392,0.0127
10.7010,-0.4912,-0.8414,0.0166
10.7030,-0.4912,-0.8414,0.0166
10.7030,-0.4912,-0.8414,0.0166
10.7240,-0.4895,-0.8380,0.0308
10.7240,-0.4895,-0.8380,0.0308
10.7240,-0.4895,-0.8380,0.0308
10.7250,-0.4895,-0.8380,0.0308
10.7250,-0.4895,-0.8380,0.0308
10.7390,-0.4939,-0.8495,0.0413
10.7400,-0.4939,-0.8495,0.0413
10.7400,-0.4939,-0.8495,0.0413
10.7600,-0.4775,-0.8600,0.0174
10.7600,-0.4775,-0.8600,0.0174
10.7600,-0.4775,-0.8600,0.0174
10.7810,-0.4587,-0.8554,-0.0066
10.7810,-0.4587,-0.8554,-0.0066
10.7810,-0.4587,-0.8554,-0.0066
10.8010,-0.4455,-0.8451,-0.0005
10.8010,-0.4455,-0.8451,-0.0005
10.8010,-0.4455,-0.8451,-0.0005
10.8040,-0.4455,-0.8451,-0.0005
10.8410,-0.4455,-0.8451,-0.0005
10.8420,-0.4455,-0.8451,-0.0005
10.8420,-0.4379,-0.8441,0.0225
10.8430,-0.4379,-0.8441,0.0225
10.8430,-0.4379,-0.8441,0.0225
10.8440,-0.4524,-0.8453,0.0310
10.8440,-0.4524,-0.8453,0.0310
10.8450,-0.4524,-0.8453,0.0310
10.8530,-0.4524,-0.8453,0.0310
10.8610,-0.4465,-0.8588,0.0144
10.8610,-0.4465,-0.8588,0.0144
10.8610,-0.4465,-0.8588,0.0144
10.8810,-0.4670,-0.8791,0.0020
10.8810,-0.4670,-0.8791,0.0020
10.8820,-0.4670,-0.8791,0.0020
10.8840,-0.4670,-0.8791,0.0020
10.8840,-0.4670,-0.8791,0.0020
10.9010,-0.4697,-0.8744,0.0110
10.9010,-0.4697,-0.8744,0.0110
10.9010,-0.4697,-0.8744,0.0110
10.9200,-0.4783,-0.8524,0.0100
10.9200,-0.4783,-0.8524,0.0100
10.9210,-0.4783,-0.8524,0.0100
10.9400,-0.5044,-0.8258,0.0000
10.9400,-0.5044,-0.8258,0.0000
10.9410,-0.5044,-0.8258,0.0000
10.9600,-0.5140,-0.8185,-0.0161
10.9610,-0.5140,-0.8185,-0.0161
10.9610,-0.5140,-0.8185,-0.0161
10.9630,-0.5140,-0.8185,-0.0161
10.9640,-0.5140,-0.8185,-0.0161
10.9800,-0.4849,-0.8334,-0.0279
10.9800,-0.4849,-0.8334,-0.0279
10.9810,-0.4849,-0.8334,-0.0279
11.0020,-0.4587,-0.8532,-0.0227
11.0030,-0.4587,-0.8532,-0.0227
11.0030,-0.4587,-0.8532,-0.0227
11.0170,-0.4587,-0.8532,-0.0227
11.0190,-0.4717,-0.8578,0.0098
11.0190,-0.4717,-0.8578,0.0098
11.0200,-0.4717,-0.8578,0.0098
11.0390,-0.4861,-0.8539,0.0291
11.0400,-0.4861,-0.8539,0.0291
11.0400,-0.4861,-0.8539,0.0291
11.0420,-0.4861,-0.8539,0.0291
11.0430,-0.4861,-0.8539,0.0291
11.0520,-0.4861,-0.8539,0.0291
11.0610,-0.4858,-0.8578,0.0376
11.0610,-0.4858,-0.8578,0.0376
11.0610,-0.4858,-0.8578,0.0376
11.0790,-0.4797,-0.8588,0.0447
11.0800,-0.4797,-0.8588,0.0447
11.0800,-0.4797,-0.8588,0.0447
11.0990,-0.4829,-0.8483,0.0264
11.0990,-0.4829,-0.8483,0.0264
11.1000,-0.4829,-0.8483,0.0264
11.1200,-0.5103,-0.8512,0.0215
11.1220,-0.5103,-0.8512,0.0215
11.1230,-0.5103,-0.8512,0.0215
11.1230,-0.5103,-0.8512,0.0215
11.1240,-0.5103,-0.8512,0.0215
11.1390,-0.5078,-0.8605,0.0215
11.1390,-0.5078,-0.8605,0.0215
11.1400,-0.5078,-0.8605,0.0215
11.1590,-0.4661,-0.8537,0.0115
11.1600,-0.4661,-0.8537,0.0115
11.1610,-0.4661,-0.8537,0.0115
11.1810,-0.4507,-0.8451,0.0215
11.1820,-0.4507,-0.8451,0.0215
11.1820,-0.4507,-0.8451,0.0215
11.1990,-0.4507,-0.8456,0.0156
11.2000,-0.4507,-0.8456,0.0156
11.2000,-0.4507,-0.8456,0.0156
11.2020,-0.4507,-0.8456,0.0156
11.2020,-0.4507,-0.8456,0.0156
11.2180,-0.4553,-0.8505,-0.0064
11.2190,-0.4553,-0.8505,-0.0064
11.2210,-0.4553,-0.8505,-0.0064
11.2410,-0.4915,-0.8551,-0.0002
11.2420,-0.4915,-0.8551,-0.0002
11.2430,-0.4915,-0.8551,-0.0002
11.2510,-0.4915,-0.8551,-0.0002
11.2580,-0.5083,-0.8551,0.0068
11.2590,-0.5083,-0.8551,0.0068
11.2600,-0.5083,-0.8551,0.0068
11.2780,-0.4834,-0.8453,-0.0064
11.2780,-0.4834,-0.8453,-0.0064
11.2790,-0.4834,-0.8453,-0.0064
11.2800,-0.4834,-0.8453,-0.0064
11.2800,-0.4834,-0.8453,-0.0064
11.2970,-0.4856,-0.8458,-0.0112
11.2970,-0.4856,-0.8458,-0.0112
11.2970,-0.4856,-0.8458,-0.0112
11.3160,-0.5008,-0.8488,0.0056
11.3170,-0.5008,-0.8488,0.0056
11.3170,-0.5008,-0.8488,0.0056
11.3360,-0.4629,-0.8424,-0.0020
11.3360,-0.4629,-0.8424,-0.0020
11.3360,-0.4629,-0.8424,-0.0020
11.3560,-0.4375,-0.8343,-0.0056
11.3930,-0.4375,-0.8343,-0.0056
11.3950,-0.4375,-0.8343,-0.0056
11.3950,-0.4375,-0.8343,-0.0056
11.3950,-0.4375,-0.8343,-0.0056
11.3950,-0.4687,-0.8373,0.0230
11.3950,-0.4687,-0.8373,0.0230
11.3960,-0.4687,-0.8373,0.0230
11.3970,-0.4939,-0.8412,0.0252
11.3970,-0.4939,-0.8412,0.0252
11.3980,-0.4939,-0.8412,0.0252
11.4180,-0.4639,-0.8461,0.0059
11.4180,-0.4639,-0.8461,0.0059
11.4180,-0.4639,-0.8461,0.0059
11.4360,-0.4453,-0.8666,0.0076
11.4360,-0.4453,-0.8666,0.0076
11.4370,-0.4453,-0.8666,0.0076
11.4410,-0.4453,-0.8666,0.0076
11.4410,-0.4453,-0.8666,0.0076
11.4480,-0.4453,-0.8666,0.0076
11.4570,-0.4819,-0.8752,0.0242
11.4570,-0.4819,-0.8752,0.0242
11.4570,-0.4819,-0.8752,0.0242
11.4770,-0.4846,-0.8458,0.0032
11.4770,-0.4846,-0.8458,0.0032
11.4780,-0.4846,-0.8458,0.0032
11.4970,-0.4641,-0.8321,-0.0318
11.4970,-0.4641,-0.8321,-0.0318
11.4980,-0.4641,-0.8321,-0.0318
11.5170,-0.4731,-0.8500,-0.0164
11.5170,-0.4731,-0.8500,-0.0164
11.5180,-0.4731,-0.8500,-0.0164
11.5200,-0.4731,-0.8500,-0.0164
11.5210,-0.4731,-0.8500,-0.0164
11.5370,-0.4475,-0.8627,0.0266
11.5380,-0.4475,-0.8627,0.0266
11.5380,-0.4475,-0.8627,0.0266
11.5580,-0.4604,-0.8651,0.0425
11.5590,-0.4604,-0.8651,0.0425
11.5590,-0.4604,-0.8651,0.0425
11.5770,-0.4839,-0.8502,0.0367
11.5770,-0.4839,-0.8502,0.0367
11.5780,-0.4839,-0.8502,0.0367
11.5980,-0.4924,-0.8559,0.0257
11.5990,-0.4924,-0.8559,0.0257
11.5990,-0.4924,-0.8559,0.0257
11.6000,-0.4924,-0.8559,0.0257
11.6000,-0.4924,-0.8559,0.0257
11.6160,-0.5096,-0.8744,0.0276
11.6180,-0.5096,-0.8744,0.0276
11.6190,-0.5096,-0.8744,0.0276
11.6360,-0.4912,-0.8715,0.0254
11.6370,-0.4912,-0.8715,0.0254
11.6370,-0.4912,-0.8715,0.0254
11.6470,-0.4912,-0.8715,0.0254
11.6570,-0.4499,-0.8583,-0.0098
11.6580,-0.4499,-0.8583,-0.0098
11.6580,-0.4499,-0.8583,-0.0098
11.6750,-0.4548,-0.8510,0.0029
11.6760,-0.4548,-0.8510,0.0029
11.6760,-0.4548,-0.8510,0.0029
11.6800,-0.4548,-0.8510,0.0029
11.6800,-0.4548,-0.8510,0.0029
11.6950,-0.4621,-0.8417,-0.0037
11.6950,-0.4621,-0.8417,-0.0037
11.6960,-0.4621,-0.8417,-0.0037
11.7150,-0.4675,-0.8339,-0.0066
11.7160,-0.4675,-0.8339,-0.0066
11.7160,-0.4675,-0.8339,-0.0066
11.7360,-0.4805,-0.8466,0.0010
11.7390,-0.4805,-0.8466,0.0010
11.7430,-0.4805,-0.8466,0.0010
11.7550,-0.4797,-0.8607,0.0029
11.7560,-0.4797,-0.8607,0.0029
11.7560,-0.4797,-0.8607,0.0029
11.7570,-0.4797,-0.8607,0.0029
11.7570,-0.4797,-0.8607,0.0029
11.7750,-0.4790,-0.8534,0.0046
11.7750,-0.4790,-0.8534,0.0046
11.7760,-0.4790,-0.8534,0.0046
11.7940,-0.4959,-0.8407,0.0191
11.7940,-0.4959,-0.8407,0.0191
11.7950,-0.4959,-0.8407,0.0191
11.8080,-0.4959,-0.8407,0.0191
11.8230,-0.4917,-0.8449,0.0200
11.8240,-0.4917,-0.8449,0.0200
11.8240,-0.4917,-0.8449,0.0200
11.8370,-0.4717,-0.8495,-0.0007
11.8380,-0.4717,-0.8495,-0.0007
11.8380,-0.4717,-0.8495,-0.0007
11.8380,-0.4717,-0.8495,-0.0007
11.8450,-0.4717,-0.8495,-0.0007
11.8530,-0.4643,-0.8463,0.0049
11.8530,-0.4643,-0.8463,0.0049
11.8530,-0.4643,-0.8463,0.0049
11.8730,-0.4375,-0.8407,0.0083
11.8740,-0.4375,-0.8407,0.0083
11.8740,-0.4375,-0.8407,0.0083
11.8930,-0.4379,-0.8612,0.0227
11.8930,-0.4379,-0.8612,0.0227
11.8940,-0.4379,-0.8612,0.0227
11.9270,-0.4463,-0.8764,0.0252
11.9270,-0.4463,-0.8764,0.0252
11.9270,-0.4463,-0.8764,0.0252
11.9270,-0.4463,-0.8764,0.0252
11.9270,-0.4463,-0.8764,0.0252
11.9320,-0.4379,-0.8598,-0.0144
11.9320,-0.4379,-0.8598,-0.0144
11.9320,-0.4379,-0.8598,-0.0144
11.9530,-0.4636,-0.8446,-0.0149
11.9530,-0.4636,-0.8446,-0.0149
11.9530,-0.4636,-0.8446,-0.0149
11.9720,-0.4805,-0.8505,0.0095
11.9720,-0.4805,-0.8505,0.0095
11.9730,-0.4805,-0.8505,0.0095
11.9920,-0.4763,-0.8458,0.0090
11.9920,-0.4763,-0.8458,0.0090
11.9920,-0.4763,-0.8458,0.0090
11.9950,-0.4763,-0.8458,0.0090
11.9950,-0.4763,-0.8458,0.0090
12.0120,-0.4878,-0.8353,0.0066
12.0120,-0.4878,-0.8353,0.0066
12.0120,-0.4878,-0.8353,0.0066
12.0320,-0.4768,-0.8429,0.0154
12.0320,-0.4768,-0.8429,0.0154
12.0320,-0.4768,-0.8429,0.0154
12.0410,-0.4768,-0.8429,0.0154
12.0520,-0.4477,-0.8634,0.0191
12.0530,-0.4477,-0.8634,0.0191
12.0530,-0.4477,-0.8634,0.0191
12.0710,-0.4768,-0.8700,0.0391
12.0710,-0.4768,-0.8700,0.0391
12.0720,-0.4768,-0.8700,0.0391
12.0750,-0.4768,-0.8700,0.0391
12.0750,-0.4768,-0.8700,0.0391
12.0930,-0.5054,-0.8625,0.0543
12.0930,-0.5054,-0.8625,0.0543
12.0940,-0.5054,-0.8625,0.0543
12.1120,-0.5008,-0.8534,0.0535
12.1130,-0.5008,-0.8534,0.0535
12.1130,-0.5008,-0.8534,0.0535
12.1320,-0.4981,-0.8444,0.0332
12.1320,-0.4981,-0.8444,0.0332
12.1320,-0.4981,-0.8444,0.0332
12.1520,-0.4861,-0.8532,0.0059
12.1530,-0.4861,-0.8532,0.0059
12.1530,-0.4861,-0.8532,0.0059
12.1550,-0.4861,-0.8532,0.0059
12.1550,-0.4861,-0.8532,0.0059
12.1730,-0.4585,-0.8734,-0.0098
12.1740,-0.4585,-0.8734,-0.0098
12.1740,-0.4585,-0.8734,-0.0098
12.1920,-0.4348,-0.8786,-0.0144
12.1920,-0.4348,-0.8786,-0.0144
12.1930,-0.4348,-0.8786,-0.0144
12.2110,-0.4445,-0.8581,-0.0144
12.2120,-0.4445,-0.8581,-0.0144
12.2130,-0.4445,-0.8581,-0.0144
12.2330,-0.4577,-0.8424,0.0032
12.2330,-0.4577,-0.8424,0.0032
12.2340,-0.4577,-0.8424,0.0032
12.2370,-0.4577,-0.8424,0.0032
12.2380,-0.4577,-0.8424,0.0032
12.2410,-0.4577,-0.8424,0.0032
12.2520,-0.4653,-0.8387,0.0147
12.2530,-0.4653,-0.8387,0.0147
12.2530,-0.4653,-0.8387,0.0147
12.2740,-0.4841,-0.8507,0.0012
12.2750,-0.4841,-0.8507,0.0012
12.2750,-0.4841,-0.8507,0.0012
12.2940,-0.4888,-0.8664,0.0029
12.2950,-0.4888,-0.8664,0.0029
12.2980,-0.4888,-0.8664,0.0029
12.3150,-0.4824,-0.8637,0.0127
12.3160,-0.4824,-0.8637,0.0127
12.3160,-0.4824,-0.8637,0.0127
12.3170,-0.4824,-0.8637,0.0127
12.3180,-0.4824,-0.8637,0.0127
12.3320,-0.4927,-0.8512,0.0274
12.3330,-0.4927,-0.8512,0.0274
12.3330,-0.4927,-0.8512,0.0274
12.3520,-0.4858,-0.8417,0.0261
12.3530,-0.4858,-0.8417,0.0261
12.3540,-0.4858,-0.8417,0.0261
12.3720,-0.4695,-0.8387,0.0100
12.3720,-0.4695,-0.8387,0.0100
12.3730,-0.4695,-0.8387,0.0100
12.3930,-0.4724,-0.8385,-0.0012
12.3940,-0.4724,-0.8385,-0.0012
12.3960,-0.4724,-0.8385,-0.0012
12.3970,-0.4724,-0.8385,-0.0012
12.3970,-0.4724,-0.8385,-0.0012
12.4130,-0.4873,-0.8561,0.0100
12.4140,-0.4873,-0.8561,0.0100
12.4150,-0.4873,-0.8561,0.0100
12.4320,-0.4832,-0.8727,0.0430
12.4330,-0.4832,-0.8727,0.0430
12.4340,-0.4832,-0.8727,0.0430
12.4400,-0.4832,-0.8727,0.0430
12.4510,-0.4458,-0.8605,0.0220
12.4550,-0.4458,-0.8605,0.0220
12.5130,-0.4458,-0.8605,0.0220
12.5130,-0.4255,-0.8497,-0.0032
12.5130,-0.4255,-0.8497,-0.0032
12.5140,-0.4255,-0.8497,-0.0032
12.5140,-0.4255,-0.8497,-0.0032
12.5140,-0.4255,-0.8497,-0.0032
12.5160,-0.4697,-0.8644,0.0227
12.5170,-0.4697,-0.8644,0.0227
12.5170,-0.4697,-0.8644,0.0227
12.5170,-0.4477,-0.8515,0.0086
12.5180,-0.4477,-0.8515,0.0086
12.5180,-0.4477,-0.8515,0.0086
12.5290,-0.4392,-0.8287,-0.0296
12.5290,-0.4392,-0.8287,-0.0296
12.5300,-0.4392,-0.8287,-0.0296
12.5490,-0.4641,-0.8346,-0.0169
12.5500,-0.4641,-0.8346,-0.0169
12.5500,-0.4641,-0.8346,-0.0169
12.5540,-0.4641,-0.8346,-0.0169
12.5550,-0.4641,-0.8346,-0.0169
12.5690,-0.4597,-0.8485,-0.0068
12.5690,-0.4597,-0.8485,-0.0068
12.5690,-0.4597,-0.8485,-0.0068
12.5920,-0.4570,-0.8541,-0.0152
12.5920,-0.4570,-0.8541,-0.0152
12.5920,-0.4570,-0.8541,-0.0152
12.6100,-0.4790,-0.8510,-0.0086
12.6100,-0.4790,-0.8510,-0.0086
12.6100,-0.4790,-0.8510,-0.0086
12.6300,-0.4932,-0.8505,0.0310
12.6320,-0.4932,-0.8505,0.0310
12.6320,-0.4932,-0.8505,0.0310
12.6340,-0.4932,-0.8505,0.0310
12.6360,-0.4932,-0.8505,0.0310
12.6390,-0.4932,-0.8505,0.0310
12.6500,-0.4995,-0.8537,0.0555
12.6500,-0.4995,-0.8537,0.0555
12.6510,-0.4995,-0.8537,0.0555
12.6700,-0.4971,-0.8505,0.0511
12.6710,-0.4971,-0.8505,0.0511
12.6710,-0.4971,-0.8505,0.0511
12.6900,-0.5186,-0.8620,0.0628
12.6900,-0.5186,-0.8620,0.0628
12.6910,-0.5186,-0.8620,0.0628
12.7170,-0.5034,-0.8691,0.0569
12.7180,-0.5034,-0.8691,0.0569
12.7190,-0.5034,-0.8691,0.0569
12.7200,-0.5034,-0.8691,0.0569
12.7210,-0.5034,-0.8691,0.0569
12.7290,-0.4824,-0.8600,0.0171
12.7300,-0.4824,-0.8600,0.0171
12.7300,-0.4824,-0.8600,0.0171
12.7510,-0.4651,-0.8512,-0.0020
12.7510,-0.4651,-0.8512,-0.0020
12.7520,-0.4651,-0.8512,-0.0020
12.7700,-0.4687,-0.8497,-0.0086
12.7710,-0.4687,-0.8497,-0.0086
12.7710,-0.4687,-0.8497,-0.0086
12.7890,-0.4709,-0.8556,-0.0017
12.7900,-0.4709,-0.8556,-0.0017
12.7910,-0.4709,-0.8556,-0.0017
12.7920,-0.4709,-0.8556,-0.0017
12.7920,-0.4709,-0.8556,-0.0017
12.8100,-0.4607,-0.8529,0.0007
12.8110,-0.4607,-0.8529,0.0007
12.8110,-0.4607,-0.8529,0.0007
12.8290,-0.4409,-0.8439,-0.0098
12.8290,-0.4409,-0.8439,-0.0098
12.8300,-0.4409,-0.8439,-0.0098
12.8370,-0.4409,-0.8439,-0.0098
12.8500,-0.4568,-0.8422,-0.0044
12.8510,-0.4568,-0.8422,-0.0044
12.8520,-0.4568,-0.8422,-0.0044
12.8710,-0.5066,-0.8488,0.0230
12.8710,-0.5066,-0.8488,0.0230
12.8720,-0.5066,-0.8488,0.0230
12.8720,-0.5066,-0.8488,0.0230
12.8730,-0.5066,-0.8488,0.0230
12.8890,-0.5157,-0.8502,0.0235
12.8890,-0.5157,-0.8502,0.0235
12.8900,-0.5157,-0.8502,0.0235
12.9090,-0.4841,-0.8402,-0.0017
12.9100,-0.4841,-0.8402,-0.0017
12.9110,-0.4841,-0.8402,-0.0017
12.9290,-0.4758,-0.8387,0.0088
12.9300,-0.4758,-0.8387,0.0088
12.9300,-0.4758,-0.8387,0.0088
12.9490,-0.4731,-0.8365,0.0161
12.9500,-0.4731,-0.8365,0.0161
12.9510,-0.4731,-0.8365,0.0161
12.9550,-0.4731,-0.8365,0.0161
12.9570,-0.4731,-0.8365,0.0161
12.9680,-0.4964,-0.8392,0.0203
12.9690,-0.4964,-0.8392,0.0203
12.9700,-0.4964,-0.8392,0.0203
12.9890,-0.4973,-0.8529,0.0068
12.9890,-0.4973,-0.8529,0.0068
12.9900,-0.4973,-0.8529,0.0068
13.0070,-0.4705,-0.8578,-0.0083
13.0080,-0.4705,-0.8578,-0.0083
13.0720,-0.4705,-0.8578,-0.0083
13.0720,-0.4465,-0.8466,0.0000
13.0720,-0.4465,-0.8466,0.0000
13.0730,-0.4465,-0.8466,0.0000
13.0730,-0.4465,-0.8466,0.0000
13.0730,-0.4465,-0.8466,0.0000
13.0730,-0.4465,-0.8466,0.0000
13.0730,-0.4482,-0.8405,0.0093
13.0740,-0.4482,-0.8405,0.0093
13.0740,-0.4482,-0.8405,0.0093
13.0740,-0.4905,-0.8544,0.0257
13.0740,-0.4905,-0.8544,0.0257
13.0740,-0.4905,-0.8544,0.0257
13.0850,-0.4858,-0.8671,0.0335
13.0850,-0.4858,-0.8671,0.0335
13.0850,-0.4858,-0.8671,0.0335
13.1050,-0.4377,-0.8561,0.0139
13.1060,-0.4377,-0.8561,0.0139
13.1060,-0.4377,-0.8561,0.0139
13.1090,-0.4377,-0.8561,0.0139
13.1090,-0.4377,-0.8561,0.0139
13.1250,-0.4340,-0.8461,0.0061
13.1260,-0.4340,-0.8461,0.0061
13.1260,-0.4340,-0.8461,0.0061
13.1450,-0.4553,-0.8458,0.0159
13.1460,-0.4553,-0.8458,0.0159
13.1460,-0.4553,-0.8458,0.0159
13.1660,-0.4697,-0.8495,-0.0024
13.1670,-0.4697,-0.8495,-0.0024
13.1670,-0.4697,-0.8495,-0.0024
13.1860,-0.4697,-0.8556,-0.0154
13.1870,-0.4697,-0.8556,-0.0154
13.1870,-0.4697,-0.8556,-0.0154
13.1900,-0.4697,-0.8556,-0.0154
13.1900,-0.4697,-0.8556,-0.0154
13.1970,-0.4697,-0.8556,-0.0154
13.2060,-0.4763,-0.8566,-0.0218
13.2060,-0.4763,-0.8566,-0.0218
13.2060,-0.4763,-0.8566,-0.0218
13.2260,-0.4717,-0.8566,-0.0100
13.2260,-0.4717,-0.8566,-0.0100
13.2260,-0.4717,-0.8566,-0.0100
13.2330,-0.4717,-0.8566,-0.0100
13.2460,-0.4538,-0.8612,-0.0061
13.2460,-0.4538,-0.8612,-0.0061
13.2460,-0.4538,-0.8612,-0.0061
13.2670,-0.4568,-0.8649,0.0083
13.2680,-0.4568,-0.8649,0.0083
13.2680,-0.4568,-0.8649,0.0083
13.2680,-0.4568,-0.8649,0.0083
13.2690,-0.4568,-0.8649,0.0083
13.2860,-0.5118,-0.8497,0.0274
13.2870,-0.5118,-0.8497,0.0274
13.2870,-0.5118,-0.8497,0.0274
13.3070,-0.5245,-0.8314,0.0437
13.3070,-0.5245,-0.8314,0.0437
13.3080,-0.5245,-0.8314,0.0437
13.3270,-0.5166,-0.8361,0.0506
13.3280,-0.5166,-0.8361,0.0506
13.3280,-0.5166,-0.8361,0.0506
13.3460,-0.5125,-0.8473,0.0442
13.3460,-0.5125,-0.8473,0.0442
13.3470,-0.5125,-0.8473,0.0442
13.3490,-0.5125,-0.8473,0.0442
13.3490,-0.5125,-0.8473,0.0442
13.3670,-0.5113,-0.8551,0.0315
13.3670,-0.5113,-0.8551,0.0315
13.3680,-0.5113,-0.8551,0.0315
13.3860,-0.5083,-0.8561,0.0117
13.3870,-0.5083,-0.8561,0.0117
13.3870,-0.5083,-0.8561,0.0117
13.3980,-0.5083,-0.8561,0.0117
13.4080,-0.4905,-0.8507,0.0042
13.4090,-0.4905,-0.8507,0.0042
13.4090,-0.4905,-0.8507,0.0042
13.4260,-0.4766,-0.8529,0.0012
13.4270,-0.4766,-0.8529,0.0012
13.4270,-0.4766,-0.8529,0.0012
13.4280,-0.4766,-0.8529,0.0012
13.4290,-0.4766,-0.8529,0.0012
13.4310,-0.4766,-0.8529,0.0012
13.4460,-0.4382,-0.8546,-0.0127
13.4470,-0.4382,-0.8546,-0.0127
13.4470,-0.4382,-0.8546,-0.0127
13.4660,-0.4213,-0.8497,-0.0186
13.4670,-0.4213,-0.8497,-0.0186
13.4670,-0.4213,-0.8497,-0.0186
13.4850,-0.4612,-0.8493,0.0054
13.4850,-0.4612,-0.8493,0.0054
13.4860,-0.4612,-0.8493,0.0054
13.5050,-0.4956,-0.8566,0.0264
13.5070,-0.4956,-0.8566,0.0264
13.5080,-0.4956,-0.8566,0.0264
13.5080,-0.4956,-0.8566,0.0264
13.5090,-0.4956,-0.8566,0.0264
13.5250,-0.4856,-0.8493,0.0076
13.5260,-0.4856,-0.8493,0.0076
13.5260,-0.4856,-0.8493,0.0076
13.5440,-0.4949,-0.8405,0.0002
13.5460,-0.4949,-0.8405,0.0002
13.6140,-0.4949,-0.8405,0.0002
13.6140,-0.4951,-0.8456,0.0078
13.6150,-0.4951,-0.8456,0.0078
13.6150,-0.4951,-0.8456,0.0078
13.6150,-0.4729,-0.8422,0.0042
13.6150,-0.4729,-0.8422,0.0042
13.6150,-0.4729,-0.8422,0.0042
13.6150,-0.4729,-0.8422,0.0042
13.6160,-0.4729,-0.8422,0.0042
13.6160,-0.4729,-0.8422,0.0042
13.6160,-0.4905,-0.8339,-0.0029
13.6160,-0.4905,-0.8339,-0.0029
13.6160,-0.4905,-0.8339,-0.0029
13.6230,-0.4932,-0.8392,0.0012
13.6240,-0.4932,-0.8392,0.0012
13.6240,-0.4932,-0.8392,0.0012
13.6280,-0.4932,-0.8392,0.0012
13.6430,-0.4607,-0.8485,0.0059
13.6430,-0.4607,-0.8485,0.0059
13.6430,-0.4607,-0.8485,0.0059
13.6620,-0.4582,-0.8480,0.0081
13.6620,-0.4582,-0.8480,0.0081
13.6630,-0.4582,-0.8480,0.0081
13.6660,-0.4582,-0.8480,0.0081
13.6670,-0.4582,-0.8480,0.0081
13.6820,-0.4592,-0.8485,0.0132
13.6820,-0.4592,-0.8485,0.0132
13.6820,-0.4592,-0.8485,0.0132
13.7020,-0.4560,-0.8576,0.0254
13.7020,-0.4560,-0.8576,0.0254
13.7020,-0.4560,-0.8576,0.0254
13.7230,-0.4683,-0.8527,0.0244
13.7230,-0.4683,-0.8527,0.0244
13.7230,-0.4683,-0.8527,0.0244
13.7430,-0.4868,-0.8348,0.0115
13.7430,-0.4868,-0.8348,0.0115
13.7430,-0.4868,-0.8348,0.0115
13.7460,-0.4868,-0.8348,0.0115
13.7470,-0.4868,-0.8348,0.0115
13.7640,-0.4883,-0.8351,0.0022
13.7640,-0.4883,-0.8351,0.0022
13.7640,-0.4883,-0.8351,0.0022
13.7830,-0.4719,-0.8488,-0.0178
13.7830,-0.4719,-0.8488,-0.0178
13.7840,-0.4719,-0.8488,-0.0178
13.8030,-0.4653,-0.8502,-0.0518
13.8040,-0.4653,-0.8502,-0.0518
13.8040,-0.4653,-0.8502,-0.0518
13.8240,-0.4959,-0.8497,-0.0154
13.8250,-0.4959,-0.8497,-0.0154
13.8250,-0.4959,-0.8497,-0.0154
13.8260,-0.4959,-0.8497,-0.0154
13.8260,-0.4959,-0.8497,-0.0154
13.8280,-0.4959,-0.8497,-0.0154
13.8430,-0.5042,-0.8524,0.0371
13.8440,-0.5042,-0.8524,0.0371
13.8440,-0.5042,-0.8524,0.0371
13.8630,-0.4700,-0.8353,0.0274
13.8640,-0.4700,-0.8353,0.0274
13.8640,-0.4700,-0.8353,0.0274
13.8840,-0.4871,-0.8405,0.0430
13.8840,-0.4871,-0.8405,0.0430
13.8850,-0.4871,-0.8405,0.0430
13.9050,-0.5191,-0.8659,0.0594
13.9050,-0.5191,-0.8659,0.0594
13.9060,-0.5191,-0.8659,0.0594
13.9070,-0.5191,-0.8659,0.0594
13.9080,-0.5191,-0.8659,0.0594
13.9240,-0.5047,-0.8669,0.0396
13.9250,-0.5047,-0.8669,0.0396
13.9250,-0.5047,-0.8669,0.0396
13.9440,-0.4802,-0.8627,0.0156
13.9440,-0.4802,-0.8627,0.0156
13.9450,-0.4802,-0.8627,0.0156
13.9620,-0.4643,-0.8603,0.0054
13.9620,-0.4643,-0.8603,0.0054
13.9630,-0.4643,-0.8603,0.0054
13.9860,-0.4629,-0.8529,-0.0059
13.9870,-0.4629,-0.8529,-0.0059
13.9880,-0.4629,-0.8529,-0.0059
13.9890,-0.4629,-0.8529,-0.0059
13.9890,-0.4629,-0.8529,-0.0059
14.0040,-0.4648,-0.8468,-0.0191
14.0050,-0.4648,-0.8468,-0.0191
14.0050,-0.4648,-0.8468,-0.0191
14.0220,-0.4590,-0.8424,-0.0210
14.0220,-0.4590,-0.8424,-0.0210
14.0230,-0.4590,-0.8424,-0.0210
14.0280,-0.4590,-0.8424,-0.0210
14.0410,-0.4839,-0.8380,0.0039
14.0420,-0.4839,-0.8380,0.0039
14.0420,-0.4839,-0.8380,0.0039
14.0620,-0.4885,-0.8429,-0.0022
14.0620,-0.4885,-0.8429,-0.0022
14.0630,-0.4885,-0.8429,-0.0022
14.0650,-0.4885,-0.8429,-0.0022
14.0660,-0.4885,-0.8429,-0.0022
14.0840,-0.4981,-0.8512,-0.0010
14.0850,-0.4981,-0.8512,-0.0010
14.0850,-0.4981,-0.8512,-0.0010
14.1420,-0.5049,-0.8510,0.0142
14.1430,-0.5049,-0.8510,0.0142
14.1430,-0.5049,-0.8510,0.0142
14.1440,-0.4954,-0.8449,0.0144
14.1440,-0.4954,-0.8449,0.0144
14.1450,-0.4954,-0.8449,0.0144
14.1450,-0.4905,-0.8461,0.0257
14.1450,-0.4905,-0.8461,0.0257
14.1450,-0.4905,-0.8461,0.0257
14.1450,-0.4905,-0.8461,0.0257
14.1460,-0.4905,-0.8461,0.0257
14.1620,-0.4822,-0.8517,0.0227
14.1630,-0.4822,-0.8517,0.0227
14.1630,-0.4822,-0.8517,0.0227
14.1810,-0.4651,-0.8419,0.0086
14.1810,-0.4651,-0.8419,0.0086
14.1810,-0.4651,-0.8419,0.0086
14.2000,-0.4448,-0.8436,0.0015
14.2000,-0.4448,-0.8436,0.0015
14.2010,-0.4448,-0.8436,0.0015
14.2200,-0.4507,-0.8656,0.0178
14.2200,-0.4507,-0.8656,0.0178
14.2210,-0.4507,-0.8656,0.0178
14.2220,-0.4507,-0.8656,0.0178
14.2220,-0.4507,-0.8656,0.0178
14.2240,-0.4507,-0.8656,0.0178
14.2410,-0.4582,-0.8661,0.0174
14.2420,-0.4582,-0.8661,0.0174
14.2420,-0.4582,-0.8661,0.0174
14.2600,-0.4529,-0.8458,0.0022
14.2600,-0.4529,-0.8458,0.0022
14.2610,-0.4529,-0.8458,0.0022
14.2790,-0.4536,-0.8522,-0.0122
14.2790,-0.4536,-0.8522,-0.0122
14.2800,-0.4536,-0.8522,-0.0122
14.2990,-0.4565,-0.8659,-0.0103
14.2990,-0.4565,-0.8659,-0.0103
14.2990,-0.4565,-0.8659,-0.0103
14.3000,-0.4565,-0.8659,-0.0103
14.3010,-0.4565,-0.8659,-0.0103
14.3200,-0.4802,-0.8566,-0.0134
14.3210,-0.4802,-0.8566,-0.0134
14.3210,-0.4802,-0.8566,-0.0134
14.3380,-0.5066,-0.8397,-0.0034
14.3390,-0.5066,-0.8397,-0.0034
14.3390,-0.5066,-0.8397,-0.0034
14.3590,-0.4895,-0.8336,0.0105
14.3590,-0.4895,-0.8336,0.0105
14.3590,-0.4895,-0.8336,0.0105
14.3790,-0.4734,-0.8434,0.0325
14.3790,-0.4734,-0.8434,0.0325
14.3790,-0.4734,-0.8434,0.0325
14.3790,-0.4734,-0.8434,0.0325
14.3810,-0.4734,-0.8434,0.0325
14.4010,-0.4981,-0.8617,0.0672
14.4010,-0.4981,-0.8617,0.0672
14.4010,-0.4981,-0.8617,0.0672
14.4190,-0.5047,-0.8571,0.0501
14.4190,-0.5047,-0.8571,0.0501
14.4200,-0.5047,-0.8571,0.0501
14.4230,-0.5047,-0.8571,0.0501
14.4380,-0.4912,-0.8478,0.0176
14.4390,-0.4912,-0.8478,0.0176
14.4390,-0.4912,-0.8478,0.0176
14.4600,-0.4839,-0.8512,0.0117
14.4600,-0.4839,-0.8512,0.0117
14.4610,-0.4839,-0.8512,0.0117
14.4610,-0.4839,-0.8512,0.0117
14.4630,-0.4839,-0.8512,0.0117
14.4810,-0.4805,-0.8549,0.0152
14.4820,-0.4805,-0.8549,0.0152
14.4830,-0.4805,-0.8549,0.0152
14.4990,-0.4521,-0.8544,0.0010
14.5000,-0.4521,-0.8544,0.0010
14.5000,-0.4521,-0.8544,0.0010
14.5190,-0.4489,-0.8546,-0.0100
14.5200,-0.4489,-0.8546,-0.0100
14.5210,-0.4489,-0.8546,-0.0100
14.5390,-0.4756,-0.8385,0.0073
14.5400,-0.4756,-0.8385,0.0073
14.5400,-0.4756,-0.8385,0.0073
14.5410,-0.4756,-0.8385,0.0073
14.5410,-0.4756,-0.8385,0.0073
14.5600,-0.5010,-0.8346,-0.0002
14.5610,-0.5010,-0.8346,-0.0002
14.5620,-0.5010,-0.8346,-0.0002
14.5790,-0.4768,-0.8554,-0.0088
14.5790,-0.4768,-0.8554,-0.0088
14.5800,-0.4768,-0.8554,-0.0088
14.5880,-0.4768,-0.8554,-0.0088
14.5980,-0.4827,-0.8625,0.0088
14.6010,-0.4827,-0.8625,0.0088
14.6010,-0.4827,-0.8625,0.0088
14.6190,-0.5076,-0.8475,0.0247
14.6200,-0.5076,-0.8475,0.0247
14.6210,-0.5076,-0.8475,0.0247
14.6210,-0.5076,-0.8475,0.0247
14.6220,-0.5076,-0.8475,0.0247
14.6220,-0.5076,-0.8475,0.0247
14.6400,-0.5012,-0.8346,0.0147
14.7070,-0.5012,-0.8346,0.0147
14.7070,-0.5012,-0.8346,0.0147
14.7070,-0.4739,-0.8358,0.0034
14.7070,-0.4739,-0.8358,0.0034
14.7080,-0.4739,-0.8358,0.0034
14.7080,-0.4656,-0.8480,0.0178
14.7090,-0.4656,-0.8480,0.0178
14.7090,-0.4656,-0.8480,0.0178
14.7090,-0.4763,-0.8519,0.0203
14.7100,-0.4763,-0.8519,0.0203
14.7100,-0.4763,-0.8519,0.0203
14.7110,-0.4763,-0.8519,0.0203
14.7110,-0.4763,-0.8519,0.0203
14.7180,-0.4717,-0.8444,0.0134
14.7180,-0.4717,-0.8444,0.0134
14.7190,-0.4717,-0.8444,0.0134
14.7360,-0.4695,-0.8468,0.0147
14.7360,-0.4695,-0.8468,0.0147
14.7360,-0.4695,-0.8468,0.0147
14.7560,-0.4372,-0.8539,0.0024
14.7560,-0.4372,-0.8539,0.0024
14.7560,-0.4372,-0.8539,0.0024
14.7780,-0.4507,-0.8627,0.0144
14.7780,-0.4507,-0.8627,0.0144
14.7780,-0.4507,-0.8627,0.0144
14.7790,-0.4507,-0.8627,0.0144
14.7790,-0.4507,-0.8627,0.0144
14.7860,-0.4507,-0.8627,0.0144
14.8000,-0.4609,-0.8456,0.0144
14.8000,-0.4609,-0.8456,0.0144
14.8010,-0.4609,-0.8456,0.0144
14.8220,-0.4516,-0.8287,-0.0095
14.8230,-0.4516,-0.8287,-0.0095
14.8230,-0.4516,-0.8287,-0.0095
14.8230,-0.4516,-0.8287,-0.0095
14.8370,-0.4521,-0.8380,-0.0086
14.8390,-0.4521,-0.8380,-0.0086
14.8390,-0.4521,-0.8380,-0.0086
14.8570,-0.4573,-0.8554,-0.0076
14.8570,-0.4573,-0.8554,-0.0076
14.8570,-0.4573,-0.8554,-0.0076
14.8570,-0.4573,-0.8554,-0.0076
14.8580,-0.4573,-0.8554,-0.0076
14.8770,-0.4592,-0.8647,-0.0064
14.8780,-0.4592,-0.8647,-0.0064
14.8780,-0.4592,-0.8647,-0.0064
14.8950,-0.4812,-0.8534,-0.0122
14.8950,-0.4812,-0.8534,-0.0122
14.8960,-0.4812,-0.8534,-0.0122
14.9150,-0.5184,-0.8515,0.0252
14.9150,-0.5184,-0.8515,0.0252
14.9150,-0.5184,-0.8515,0.0252
14.9350,-0.5227,-0.8541,0.0525
14.9360,-0.5227,-0.8541,0.0525
14.9360,-0.5227,-0.8541,0.0525
14.9360,-0.5227,-0.8541,0.0525
14.9360,-0.5227,-0.8541,0.0525
14.9570,-0.4871,-0.8436,0.0479
14.9570,-0.4871,-0.8436,0.0479
14.9570,-0.4871,-0.8436,0.0479
14.9760,-0.5225,-0.8541,0.0547
14.9760,-0.5225,-0.8541,0.0547
14.9760,-0.5225,-0.8541,0.0547
14.9940,-0.5093,-0.8576,0.0518
14.9950,-0.5093,-0.8576,0.0518
14.9950,-0.5093,-0.8576,0.0518
15.0200,-0.4680,-0.8480,0.0203
15.0210,-0.4680,-0.8480,0.0203
15.0220,-0.4680,-0.8480,0.0203
15.0230,-0.4680,-0.8480,0.0203
15.0230,-0.4680,-0.8480,0.0203
15.0240,-0.4680,-0.8480,0.0203
15.0380,-0.4555,-0.8585,-0.0015
15.0390,-0.4555,-0.8585,-0.0015
15.0400,-0.4555,-0.8585,-0.0015
15.0560,-0.4458,-0.8796,0.0095
15.0560,-0.4458,-0.8796,0.0095
15.0570,-0.4458,-0.8796,0.0095
15.0780,-0.4277,-0.8656,0.0007
15.0810,-0.4277,-0.8656,0.0007
15.0820,-0.4277,-0.8656,0.0007
15.0960,-0.4670,-0.8385,0.0042
15.0960,-0.4670,-0.8385,0.0042
15.0970,-0.4670,-0.8385,0.0042
15.0970,-0.4670,-0.8385,0.0042
15.0980,-0.4670,-0.8385,0.0042
15.1170,-0.5030,-0.8343,0.0139
15.1170,-0.5030,-0.8343,0.0139
15.1180,-0.5030,-0.8343,0.0139
15.1360,-0.4907,-0.8380,0.0022
15.1370,-0.4907,-0.8380,0.0022
15.1370,-0.4907,-0.8380,0.0022
15.1560,-0.5003,-0.8490,0.0078
15.1570,-0.5003,-0.8490,0.0078
15.1580,-0.5003,-0.8490,0.0078
15.1770,-0.4924,-0.8510,0.0159
15.1780,-0.4924,-0.8510,0.0159
15.1790,-0.4924,-0.8510,0.0159
15.1800,-0.4924,-0.8510,0.0159
15.1810,-0.4924,-0.8510,0.0159
15.2360,-0.4924,-0.8510,0.0159
15.2360,-0.4990,-0.8434,0.0164
15.2360,-0.4990,-0.8434,0.0164
15.2370,-0.4990,-0.8434,0.0164
15.2370,-0.4814,-0.8353,0.0095
15.2370,-0.4814,-0.8353,0.0095
15.2370,-0.4814,-0.8353,0.0095
15.2370,-0.4814,-0.8353,0.0095
15.2370,-0.4678,-0.8348,0.0088
15.2380,-0.4678,-0.8348,0.0088
15.2380,-0.4678,-0.8348,0.0088
15.2550,-0.4648,-0.8571,0.0247
15.2550,-0.4648,-0.8571,0.0247
15.2550,-0.4648,-0.8571,0.0247
15.2550,-0.4648,-0.8571,0.0247
15.2550,-0.4648,-0.8571,0.0247
15.2750,-0.4431,-0.8796,0.0240
15.2750,-0.4431,-0.8796,0.0240
15.2760,-0.4431,-0.8796,0.0240
15.2950,-0.4401,-0.8747,0.0144
15.2950,-0.4401,-0.8747,0.0144
15.2950,-0.4401,-0.8747,0.0144
15.3140,-0.4668,-0.8539,0.0068
15.3140,-0.4668,-0.8539,0.0068
15.3150,-0.4668,-0.8539,0.0068
15.3370,-0.4726,-0.8375,0.0083
15.3380,-0.4726,-0.8375,0.0083
15.3390,-0.4726,-0.8375,0.0083
15.3390,-0.4726,-0.8375,0.0083
15.3400,-0.4726,-0.8375,0.0083
15.3570,-0.4695,-0.8358,0.0000
15.3570,-0.4695,-0.8358,0.0000
15.3580,-0.4695,-0.8358,0.0000
15.3750,-0.4609,-0.8471,-0.0046
15.3760,-0.4609,-0.8471,-0.0046
15.3760,-0.4609,-0.8471,-0.0046
15.3810,-0.4609,-0.8471,-0.0046
15.3950,-0.4690,-0.8524,0.0042
15.3950,-0.4690,-0.8524,0.0042
15.3960,-0.4690,-0.8524,0.0042
15.4150,-0.4824,-0.8507,0.0198
15.4160,-0.4824,-0.8507,0.0198
15.4170,-0.4824,-0.8507,0.0198
15.4180,-0.4824,-0.8507,0.0198
15.4180,-0.4824,-0.8507,0.0198
15.4190,-0.4824,-0.8507,0.0198
15.4350,-0.5049,-0.8515,0.0389
15.4350,-0.5049,-0.8515,0.0389
15.4360,-0.5049,-0.8515,0.0389
15.4540,-0.4971,-0.8473,0.0362
15.4540,-0.4971,-0.8473,0.0362
15.4540,-0.4971,-0.8473,0.0362
15.4730,-0.5049,-0.8502,0.0508
15.4740,-0.5049,-0.8502,0.0508
15.4740,-0.5049,-0.8502,0.0508
15.4920,-0.5012,-0.8483,0.0477
15.4930,-0.5012,-0.8483,0.0477
15.4930,-0.5012,-0.8483,0.0477
15.4940,-0.5012,-0.8483,0.0477
15.4940,-0.5012,-0.8483,0.0477
15.5140,-0.5012,-0.8461,0.0208
15.5140,-0.5012,-0.8461,0.0208
15.5140,-0.5012,-0.8461,0.0208
15.5320,-0.5027,-0.8546,0.0110
15.5320,-0.5027,-0.8546,0.0110
15.5320,-0.5027,-0.8546,0.0110
15.5520,-0.4626,-0.8600,-0.0071
15.5520,-0.4626,-0.8600,-0.0071
15.5530,-0.4626,-0.8600,-0.0071
15.5730,-0.4353,-0.8581,-0.0122
15.5730,-0.4353,-0.8581,-0.0122
15.5730,-0.4353,-0.8581,-0.0122
15.5740,-0.4353,-0.8581,-0.0122
15.5740,-0.4353,-0.8581,-0.0122
15.5790,-0.4353,-0.8581,-0.0122
15.5940,-0.4475,-0.8515,0.0034
15.5940,-0.4475,-0.8515,0.0034
15.5950,-0.4475,-0.8515,0.0034
15.6130,-0.4609,-0.8490,0.0210
15.6130,-0.4609,-0.8490,0.0210
15.6130,-0.4609,-0.8490,0.0210
15.6140,-0.4609,-0.8490,0.0210
15.6320,-0.4854,-0.8419,0.0323
15.6330,-0.4854,-0.8419,0.0323
15.6330,-0.4854,-0.8419,0.0323
15.6560,-0.5000,-0.8407,0.0161
15.6560,-0.5000,-0.8407,0.0161
15.6570,-0.5000,-0.8407,0.0161
15.6570,-0.5000,-0.8407,0.0161
15.6580,-0.5000,-0.8407,0.0161
15.6760,-0.4905,-0.8576,0.0054
15.6770,-0.4905,-0.8576,0.0054
15.6770,-0.4905,-0.8576,0.0054
15.6950,-0.4802,-0.8686,0.0205
15.6960,-0.4802,-0.8686,0.0205
15.6970,-0.4802,-0.8686,0.0205
15.7130,-0.4971,-0.8566,0.0149
15.7140,-0.4971,-0.8566,0.0149
15.7140,-0.4971,-0.8566,0.0149
15.7330,-0.5003,-0.8383,0.0103
15.7920,-0.5003,-0.8383,0.0103
15.7930,-0.5003,-0.8383,0.0103
15.7930,-0.5003,-0.8383,0.0103
15.7930,-0.5003,-0.8383,0.0103
15.7930,-0.4714,-0.8307,0.0066
15.7940,-0.4714,-0.8307,0.0066
15.7940,-0.4714,-0.8307,0.0066
15.7940,-0.4553,-0.8385,0.0022
15.7940,-0.4553,-0.8385,0.0022
15.7940,-0.4553,-0.8385,0.0022
15.7940,-0.4553,-0.8385,0.0022
15.7950,-0.4560,-0.8549,0.0313
15.7950,-0.4560,-0.8549,0.0313
15.7950,-0.4560,-0.8549,0.0313
15.8100,-0.4585,-0.8600,0.0301
15.8100,-0.4585,-0.8600,0.0301
15.8100,-0.4585,-0.8600,0.0301
15.8130,-0.4585,-0.8600,0.0301
15.8130,-0.4585,-0.8600,0.0301
15.8130,-0.4585,-0.8600,0.0301
15.8320,-0.4536,-0.8576,0.0208
15.8320,-0.4536,-0.8576,0.0208
15.8330,-0.4536,-0.8576,0.0208
15.8500,-0.4805,-0.8600,0.0232
15.8510,-0.4805,-0.8600,0.0232
15.8510,-0.4805,-0.8600,0.0232
15.8710,-0.4775,-0.8556,0.0152
15.8710,-0.4775,-0.8556,0.0152
15.8710,-0.4775,-0.8556,0.0152
15.8910,-0.4531,-0.8497,0.0081
15.8910,-0.4531,-0.8497,0.0081
15.8910,-0.4531,-0.8497,0.0081
15.8910,-0.4531,-0.8497,0.0081
15.8920,-0.4531,-0.8497,0.0081
15.9130,-0.4626,-0.8436,0.0105
15.9140,-0.4626,-0.8436,0.0105
15.9140,-0.4626,-0.8436,0.0105
15.9310,-0.4719,-0.8334,0.0159
15.9320,-0.4719,-0.8334,0.0159
15.9320,-0.4719,-0.8334,0.0159
15.9510,-0.4744,-0.8412,0.0249
15.9520,-0.4744,-0.8412,0.0249
15.9520,-0.4744,-0.8412,0.0249
15.9720,-0.4910,-0.8583,0.0315
15.9720,-0.4910,-0.8583,0.0315
15.9770,-0.4910,-0.8583,0.0315
15.9790,-0.4910,-0.8583,0.0315
15.9790,-0.4910,-0.8583,0.0315
15.9800,-0.4910,-0.8583,0.0315
15.9950,-0.4819,-0.8593,0.0318
15.9960,-0.4819,-0.8593,0.0318
15.9970,-0.4819,-0.8593,0.0318
16.0140,-0.4949,-0.8585,0.0371
16.0150,-0.4949,-0.8585,0.0371
16.0160,-0.4949,-0.8585,0.0371
16.0160,-0.4949,-0.8585,0.0371
16.0300,-0.5081,-0.8629,0.0371
16.0330,-0.5081,-0.8629,0.0371
16.0340,-0.5081,-0.8629,0.0371
16.0640,-0.4910,-0.8539,0.0159
16.0650,-0.4910,-0.8539,0.0159
16.0650,-0.4910,-0.8539,0.0159
16.0650,-0.4910,-0.8539,0.0159
16.0660,-0.4910,-0.8539,0.0159
16.0700,-0.4736,-0.8414,0.0005
16.0710,-0.4736,-0.8414,0.0005
16.0710,-0.4736,-0.8414,0.0005
16.0890,-0.4673,-0.8419,0.0093
16.0890,-0.4673,-0.8419,0.0093
16.0890,-0.4673,-0.8419,0.0093
16.1080,-0.4641,-0.8461,0.0203
16.1090,-0.4641,-0.8461,0.0203
16.1090,-0.4641,-0.8461,0.0203
16.1280,-0.4609,-0.8480,0.0020
16.1280,-0.4609,-0.8480,0.0020
16.1280,-0.4609,-0.8480,0.0020
16.1300,-0.4609,-0.8480,0.0020
16.1300,-0.4609,-0.8480,0.0020
16.1500,-0.4607,-0.8505,-0.0037
16.1500,-0.4607,-0.8505,-0.0037
16.1500,-0.4607,-0.8505,-0.0037
16.1680,-0.4863,-0.8427,0.0181
16.1680,-0.4863,-0.8427,0.0181
16.1680,-0.4863,-0.8427,0.0181
16.1880,-0.4998,-0.8387,0.0208
16.1880,-0.4998,-0.8387,0.0208
16.1890,-0.4998,-0.8387,0.0208
16.2080,-0.4876,-0.8480,0.0222
16.2080,-0.4876,-0.8480,0.0222
16.2090,-0.4876,-0.8480,0.0222
16.2090,-0.4876,-0.8480,0.0222
16.2110,-0.4876,-0.8480,0.0222
16.2110,-0.4876,-0.8480,0.0222
16.2320,-0.4819,-0.8502,0.0227
16.2320,-0.4819,-0.8502,0.0227
16.2320,-0.4819,-0.8502,0.0227
16.2490,-0.4981,-0.8402,0.0242
16.2500,-0.4981,-0.8402,0.0242
16.2500,-0.4981,-0.8402,0.0242
16.2710,-0.5083,-0.8475,0.0352
16.3470,-0.5083,-0.8475,0.0352
16.3470,-0.5083,-0.8475,0.0352
16.3470,-0.4861,-0.8581,0.0332
16.3470,-0.4861,-0.8581,0.0332
16.3470,-0.4861,-0.8581,0.0332
16.3480,-0.4861,-0.8581,0.0332
16.3480,-0.4861,-0.8581,0.0332
16.3480,-0.4526,-0.8390,0.0073
16.3480,-0.4526,-0.8390,0.0073
16.3480,-0.4526,-0.8390,0.0073
16.3480,-0.4643,-0.8207,-0.0005
16.3490,-0.4643,-0.8207,-0.0005
16.3490,-0.4643,-0.8207,-0.0005
16.3490,-0.4839,-0.8373,0.0296
16.3490,-0.4839,-0.8373,0.0296
16.3490,-0.4839,-0.8373,0.0296
16.3670,-0.4968,-0.8642,0.0425
16.3680,-0.4968,-0.8642,0.0425
16.3680,-0.4968,-0.8642,0.0425
16.3680,-0.4968,-0.8642,0.0425
16.3680,-0.4968,-0.8642,0.0425
16.3910,-0.4675,-0.8693,0.0376
16.3920,-0.4675,-0.8693,0.0376
16.3920,-0.4675,-0.8693,0.0376
16.4090,-0.4409,-0.8537,0.0222
16.4090,-0.4409,-0.8537,0.0222
16.4090,-0.4409,-0.8537,0.0222
16.4100,-0.4409,-0.8537,0.0222
16.4280,-0.4509,-0.8402,0.0178
16.4280,-0.4509,-0.8402,0.0178
16.4290,-0.4509,-0.8402,0.0178
16.4480,-0.4624,-0.8473,0.0242
16.4490,-0.4624,-0.8473,0.0242
16.4490,-0.4624,-0.8473,0.0242
16.4500,-0.4624,-0.8473,0.0242
16.4520,-0.4624,-0.8473,0.0242
16.4700,-0.4639,-0.8544,0.0139
16.4720,-0.4639,-0.8544,0.0139
16.4720,-0.4639,-0.8544,0.0139
16.4880,-0.4663,-0.8500,0.0024
16.4890,-0.4663,-0.8500,0.0024
16.4900,-0.4663,-0.8500,0.0024
16.5090,-0.4810,-0.8378,0.0020
16.5090,-0.4810,-0.8378,0.0020
16.5100,-0.4810,-0.8378,0.0020
16.5290,-0.4920,-0.8331,0.0027
16.5300,-0.4920,-0.8331,0.0027
16.5300,-0.4920,-0.8331,0.0027
16.5310,-0.4920,-0.8331,0.0027
16.5310,-0.4920,-0.8331,0.0027
16.5550,-0.5008,-0.8392,-0.0015
16.5560,-0.5008,-0.8392,-0.0015
16.5570,-0.5008,-0.8392,-0.0015
16.5670,-0.4878,-0.8483,0.0056
16.5700,-0.4878,-0.8483,0.0056
16.5730,-0.4878,-0.8483,0.0056
16.5870,-0.4954,-0.8549,0.0293
16.5880,-0.4954,-0.8549,0.0293
16.5880,-0.4954,-0.8549,0.0293
16.6070,-0.5230,-0.8449,0.0276
16.6070,-0.5230,-0.8449,0.0276
16.6080,-0.5230,-0.8449,0.0276
16.6090,-0.5230,-0.8449,0.0276
16.6090,-0.5230,-0.8449,0.0276
16.6100,-0.5230,-0.8449,0.0276
16.6290,-0.5164,-0.8353,0.0171
16.6300,-0.5164,-0.8353,0.0171
16.6310,-0.5164,-0.8353,0.0171
16.6470,-0.4810,-0.8607,0.0327
16.6470,-0.4810,-0.8607,0.0327
16.6480,-0.4810,-0.8607,0.0327
16.6670,-0.4397,-0.8815,0.0552
16.6820,-0.4397,-0.8815,0.0552
16.6830,-0.4397,-0.8815,0.0552
16.6850,-0.4419,-0.8617,0.0604
16.6850,-0.4419,-0.8617,0.0604
16.6860,-0.4419,-0.8617,0.0604
16.6890,-0.4419,-0.8617,0.0604
16.6900,-0.4419,-0.8617,0.0604
16.7080,-0.4624,-0.8427,0.0555
16.7080,-0.4624,-0.8427,0.0555
16.7080,-0.4624,-0.8427,0.0555
16.7250,-0.4724,-0.8505,0.0330
16.7250,-0.4724,-0.8505,0.0330
16.7250,-0.4724,-0.8505,0.0330
16.7440,-0.4712,-0.8466,0.0068
16.7440,-0.4712,-0.8466,0.0068
16.7440,-0.4712,-0.8466,0.0068
16.7650,-0.5039,-0.8419,0.0203
16.7650,-0.5039,-0.8419,0.0203
16.7650,-0.5039,-0.8419,0.0203
16.7660,-0.5039,-0.8419,0.0203
16.7660,-0.5039,-0.8419,0.0203
16.7870,-0.4976,-0.8539,0.0010
16.7870,-0.4976,-0.8539,0.0010
16.7870,-0.4976,-0.8539,0.0010
16.8040,-0.4792,-0.8595,-0.0215
16.8040,-0.4792,-0.8595,-0.0215
16.8040,-0.4792,-0.8595,-0.0215
16.8040,-0.4792,-0.8595,-0.0215
16.8500,-0.4929,-0.8519,0.0027
16.8500,-0.4929,-0.8519,0.0027
16.8500,-0.4929,-0.8519,0.0027
16.8500,-0.4932,-0.8434,-0.0037
16.8500,-0.4932,-0.8434,-0.0037
16.8500,-0.4932,-0.8434,-0.0037
16.8510,-0.4932,-0.8434,-0.0037
16.8510,-0.4932,-0.8434,-0.0037
16.8670,-0.4788,-0.8446,-0.0086
16.8670,-0.4788,-0.8446,-0.0086
16.8670,-0.4788,-0.8446,-0.0086
16.8850,-0.4670,-0.8480,0.0283
16.8850,-0.4670,-0.8480,0.0283
16.8850,-0.4670,-0.8480,0.0283
16.9050,-0.4912,-0.8409,0.0259
16.9050,-0.4912,-0.8409,0.0259
16.9050,-0.4912,-0.8409,0.0259
16.9240,-0.4876,-0.8409,0.0169
16.9250,-0.4876,-0.8409,0.0169
16.9250,-0.4876,-0.8409,0.0169
16.9270,-0.4876,-0.8409,0.0169
16.9270,-0.4876,-0.8409,0.0169
16.9470,-0.4641,-0.8395,0.0137
16.9470,-0.4641,-0.8395,0.0137
16.9480,-0.4641,-0.8395,0.0137
16.9660,-0.4614,-0.8507,0.0279
16.9670,-0.4614,-0.8507,0.0279
16.9670,-0.4614,-0.8507,0.0279
16.9870,-0.4531,-0.8737,0.0276
16.9870,-0.4531,-0.8737,0.0276
16.9880,-0.4531,-0.8737,0.0276
17.0070,-0.4335,-0.8642,0.0059
17.0070,-0.4335,-0.8642,0.0059
17.0080,-0.4335,-0.8642,0.0059
17.0080,-0.4335,-0.8642,0.0059
17.0080,-0.4335,-0.8642,0.0059
17.0090,-0.4335,-0.8642,0.0059
17.0270,-0.4521,-0.8478,-0.0029
17.0280,-0.4521,-0.8478,-0.0029
17.0280,-0.4521,-0.8478,-0.0029
17.0440,-0.4783,-0.8488,0.0049
17.0450,-0.4783,-0.8488,0.0049
17.0450,-0.4783,-0.8488,0.0049
17.0650,-0.4927,-0.8519,0.0032
17.0660,-0.4927,-0.8519,0.0032
17.0660,-0.4927,-0.8519,0.0032
17.0850,-0.5066,-0.8519,0.0090
17.0850,-0.5066,-0.8519,0.0090
17.0860,-0.5066,-0.8519,0.0090
17.0860,-0.5066,-0.8519,0.0090
17.0870,-0.5066,-0.8519,0.0090
17.1050,-0.5044,-0.8475,0.0242
17.1060,-0.5044,-0.8475,0.0242
17.1070,-0.5044,-0.8475,0.0242
17.1240,-0.4367,-0.8385,0.0073
17.1250,-0.4367,-0.8385,0.0073
17.1260,-0.4367,-0.8385,0.0073
17.1440,-0.4763,-0.8537,0.0352
17.1440,-0.4763,-0.8537,0.0352
17.1450,-0.4763,-0.8537,0.0352
17.1650,-0.5027,-0.8539,0.0455
17.1660,-0.5027,-0.8539,0.0455
17.1660,-0.5027,-0.8539,0.0455
17.1670,-0.5027,-0.8539,0.0455
17.1680,-0.5027,-0.8539,0.0455
17.1860,-0.4641,-0.8392,0.0161
17.1870,-0.4641,-0.8392,0.0161
17.1870,-0.4641,-0.8392,0.0161
17.2030,-0.4641,-0.8392,0.0161
17.2040,-0.4670,-0.8358,-0.0007
17.2050,-0.4670,-0.8358,-0.0007
17.2050,-0.4670,-0.8358,-0.0007
17.2230,-0.4726,-0.8321,0.0054
17.2240,-0.4726,-0.8321,0.0054
17.2240,-0.4726,-0.8321,0.0054
17.2450,-0.4697,-0.8358,0.0034
17.2450,-0.4697,-0.8358,0.0034
17.2460,-0.4697,-0.8358,0.0034
17.2460,-0.4697,-0.8358,0.0034
17.2470,-0.4697,-0.8358,0.0034
17.2650,-0.4758,-0.8534,-0.0002
17.2650,-0.4758,-0.8534,-0.0002
17.2660,-0.4758,-0.8534,-0.0002
17.2820,-0.4731,-0.8678,-0.0024
17.2820,-0.4731,-0.8678,-0.0024
17.2830,-0.4731,-0.8678,-0.0024
17.3010,-0.4670,-0.8632,0.0027
17.3010,-0.4670,-0.8632,0.0027
17.3020,-0.4670,-0.8632,0.0027
17.3210,-0.4746,-0.8507,0.0266
17.3210,-0.4746,-0.8507,0.0266
17.3210,-0.4746,-0.8507,0.0266
17.3230,-0.4746,-0.8507,0.0266
17.3240,-0.4746,-0.8507,0.0266
17.3420,-0.4883,-0.8451,0.0320
17.3430,-0.4883,-0.8451,0.0320
17.3430,-0.4883,-0.8451,0.0320
17.3610,-0.4885,-0.8461,0.0205
17.3610,-0.4885,-0.8461,0.0205
17.3610,-0.4885,-0.8461,0.0205
17.4090,-0.4942,-0.8544,0.0269
17.4100,-0.4942,-0.8544,0.0269
17.4100,-0.4942,-0.8544,0.0269
17.4100,-0.4942,-0.8544,0.0269
17.4100,-0.4971,-0.8617,0.0308
17.4100,-0.4971,-0.8617,0.0308
17.4100,-0.4971,-0.8617,0.0308
17.4110,-0.4971,-0.8617,0.0308
17.4110,-0.4971,-0.8617,0.0308
17.4220,-0.4780,-0.8603,0.0215
17.4220,-0.4780,-0.8603,0.0215
17.4230,-0.4780,-0.8603,0.0215
17.4440,-0.4658,-0.8581,0.0156
17.4440,-0.4658,-0.8581,0.0156
17.4440,-0.4658,-0.8581,0.0156
17.4620,-0.4604,-0.8546,0.0056
17.4620,-0.4604,-0.8546,0.0056
17.4620,-0.4604,-0.8546,0.0056
17.4820,-0.4543,-0.8502,0.0068
17.4820,-0.4543,-0.8502,0.0068
17.4830,-0.4543,-0.8502,0.0068
17.4830,-0.4543,-0.8502,0.0068
17.4830,-0.4543,-0.8502,0.0068
17.5020,-0.4433,-0.8576,0.0154
17.5020,-0.4433,-0.8576,0.0154
17.5020,-0.4433,-0.8576,0.0154
17.5220,-0.4507,-0.8598,0.0237
17.5230,-0.4507,-0.8598,0.0237
17.5240,-0.4507,-0.8598,0.0237
17.5410,-0.4746,-0.8495,0.0205
17.5420,-0.4746,-0.8495,0.0205
17.5420,-0.4746,-0.8495,0.0205
17.5620,-0.4866,-0.8488,0.0181
17.5630,-0.4866,-0.8488,0.0181
17.5630,-0.4866,-0.8488,0.0181
17.5640,-0.4866,-0.8488,0.0181
17.5800,-0.4927,-0.8681,0.0474
17.5820,-0.4927,-0.8681,0.0474
17.5830,-0.4927,-0.8681,0.0474
17.6000,-0.4927,-0.8681,0.0474
17.6000,-0.4726,-0.8678,0.0469
17.6010,-0.4726,-0.8678,0.0469
17.6010,-0.4726,-0.8678,0.0469
17.6210,-0.4475,-0.8439,0.0156
17.6220,-0.4475,-0.8439,0.0156
17.6220,-0.4475,-0.8439,0.0156
17.6420,-0.4778,-0.8356,-0.0010
17.6420,-0.4778,-0.8356,-0.0010
17.6430,-0.4778,-0.8356,-0.0010
17.6440,-0.4778,-0.8356,-0.0010
17.6450,-0.4778,-0.8356,-0.0010
17.6610,-0.4866,-0.8495,-0.0066
17.6620,-0.4866,-0.8495,-0.0066
17.6620,-0.4866,-0.8495,-0.0066
17.6810,-0.4573,-0.8554,-0.0291
17.6810,-0.4573,-0.8554,-0.0291
17.6820,-0.4573,-0.8554,-0.0291
17.7010,-0.4470,-0.8549,-0.0320
17.7020,-0.4470,-0.8549,-0.0320
17.7020,-0.4470,-0.8549,-0.0320
17.7210,-0.4890,-0.8473,-0.0188
17.7220,-0.4890,-0.8473,-0.0188
17.7230,-0.4890,-0.8473,-0.0188
17.7240,-0.4890,-0.8473,-0.0188
17.7240,-0.4890,-0.8473,-0.0188
17.7390,-0.4536,-0.8282,-0.0296
17.7400,-0.4536,-0.8282,-0.0296
17.7400,-0.4536,-0.8282,-0.0296
17.7590,-0.4485,-0.8326,-0.0308
17.7610,-0.4485,-0.8326,-0.0308
17.7610,-0.4485,-0.8326,-0.0308
17.7800,-0.4475,-0.8451,-0.0120
17.7820,-0.4475,-0.8451,-0.0120
17.7820,-0.4475,-0.8451,-0.0120
17.7980,-0.4475,-0.8451,-0.0120
17.7990,-0.4656,-0.8519,0.0029
17.8000,-0.4656,-0.8519,0.0029
17.8010,-0.4656,-0.8519,0.0029
17.8030,-0.4656,-0.8519,0.0029
17.8030,-0.4656,-0.8519,0.0029
17.8200,-0.5044,-0.8659,-0.0002
17.8200,-0.5044,-0.8659,-0.0002
17.8210,-0.5044,-0.8659,-0.0002
17.8390,-0.5421,-0.8471,-0.0020
17.8400,-0.5421,-0.8471,-0.0020
17.8400,-0.5421,-0.8471,-0.0020
17.8590,-0.5254,-0.8392,0.0081
17.8590,-0.5254,-0.8392,0.0081
17.8600,-0.5254,-0.8392,0.0081
17.8790,-0.4756,-0.8522,0.0010
17.8800,-0.4756,-0.8522,0.0010
17.8800,-0.4756,-0.8522,0.0010
17.8810,-0.4756,-0.8522,0.0010
17.8810,-0.4756,-0.8522,0.0010
17.8980,-0.4543,-0.8312,-0.0049
17.8980,-0.4543,-0.8312,-0.0049
17.8980,-0.4543,-0.8312,-0.0049
17.9170,-0.4656,-0.8045,-0.0095
17.9170,-0.4656,-0.8045,-0.0095
17.9170,-0.4656,-0.8045,-0.0095
17.9470,-0.4810,-0.8128,-0.0061
17.9480,-0.4810,-0.8128,-0.0061
17.9480,-0.4810,-0.8128,-0.0061
17.9570,-0.4702,-0.8451,0.0022
17.9570,-0.4702,-0.8451,0.0022
17.9570,-0.4702,-0.8451,0.0022
17.9610,-0.4702,-0.8451,0.0022
17.9610,-0.4702,-0.8451,0.0022
17.9770,-0.4829,-0.8664,0.0068
17.9770,-0.4829,-0.8664,0.0068
17.9780,-0.4829,-0.8664,0.0068
17.9960,-0.4829,-0.8664,0.0068
17.9980,-0.4993,-0.8612,0.0029
17.9980,-0.4993,-0.8612,0.0029
17.9980,-0.4993,-0.8612,0.0029
18.0170,-0.5054,-0.8546,0.0066
18.0170,-0.5054,-0.8546,0.0066
18.0170,-0.5054,-0.8546,0.0066
18.0360,-0.5039,-0.8637,0.0249
18.0360,-0.5039,-0.8637,0.0249
18.0360,-0.5039,-0.8637,0.0249
18.0410,-0.5039,-0.8637,0.0249
18.0410,-0.5039,-0.8637,0.0249
18.0570,-0.4942,-0.8607,0.0237
18.0570,-0.4942,-0.8607,0.0237
18.0580,-0.4942,-0.8607,0.0237
18.0770,-0.4758,-0.8588,0.0259
18.0770,-0.4758,-0.8588,0.0259
18.0770,-0.4758,-0.8588,0.0259
