
time,AccelerometerX,AccelerometerY,AccelerometerZ
0.0200,-0.1909,-1.0176,0.0494
0.0200,-0.1909,-1.0176,0.0494
0.0200,-0.1909,-1.0176,0.0494
0.0260,-0.2463,-0.9795,0.0230
0.0260,-0.2463,-0.9795,0.0230
0.0260,-0.2463,-0.9795,0.0230
0.0550,-0.1760,-0.9309,-0.0274
0.0550,-0.1760,-0.9309,-0.0274
0.0550,-0.1760,-0.9309,-0.0274
0.0630,-0.1339,-0.9392,-0.0687
0.0640,-0.1339,-0.9392,-0.0687
0.0640,-0.1339,-0.9392,-0.0687
0.0640,-0.1339,-0.9392,-0.0687
0.0640,-0.1339,-0.9392,-0.0687
0.0820,-0.1637,-0.9509,-0.0525
0.0820,-0.1637,-0.9509,-0.0525
0.0820,-0.1637,-0.9509,-0.0525
0.0940,-0.1637,-0.9509,-0.0525
0.1050,-0.2046,-0.9463,-0.0596
0.1050,-0.2046,-0.9463,-0.0596
0.1050,-0.2046,-0.9463,-0.0596
0.1220,-0.2241,-0.9416,-0.0533
0.1220,-0.2241,-0.9416,-0.0533
0.1220,-0.2241,-0.9416,-0.0533
0.1420,-0.2202,-0.9414,-0.0523
0.1420,-0.2202,-0.9414,-0.0523
0.1420,-0.2202,-0.9414,-0.0523
0.1430,-0.2202,-0.9414,-0.0523
0.1610,-0.2226,-0.9453,-0.0525
0.1620,-0.2226,-0.9453,-0.0525
0.1620,-0.2226,-0.9453,-0.0525
0.1810,-0.2207,-0.9377,-0.0726
0.1820,-0.2207,-0.9377,-0.0726
0.1820,-0.2207,-0.9377,-0.0726
0.2010,-0.2087,-0.9240,-0.0978
0.2020,-0.2087,-0.9240,-0.0978
0.2020,-0.2087,-0.9240,-0.0978
0.2210,-0.1987,-0.9267,-0.0628
0.2220,-0.1987,-0.9267,-0.0628
0.2220,-0.1987,-0.9267,-0.0628
0.2250,-0.1987,-0.9267,-0.0628
0.2250,-0.1987,-0.9267,-0.0628
0.2410,-0.2053,-0.9404,-0.0269
0.2410,-0.2053,-0.9404,-0.0269
0.2410,-0.2053,-0.9404,-0.0269
0.2600,-0.1674,-0.9490,-0.0589
0.2610,-0.1674,-0.9490,-0.0589
0.2610,-0.1674,-0.9490,-0.0589
0.2620,-0.1674,-0.9490,-0.0589
0.2800,-0.1769,-0.9512,-0.0567
0.2810,-0.1769,-0.9512,-0.0567
0.2810,-0.1769,-0.9512,-0.0567
0.2940,-0.1769,-0.9512,-0.0567
0.3010,-0.2136,-0.9487,-0.0313
0.3010,-0.2136,-0.9487,-0.0313
0.3010,-0.2136,-0.9487,-0.0313
0.3050,-0.2136,-0.9487,-0.0313
0.3050,-0.2136,-0.9487,-0.0313
0.3210,-0.2055,-0.9397,-0.0371
0.3210,-0.2055,-0.9397,-0.0371
0.3210,-0.2055,-0.9397,-0.0371
0.3410,-0.1928,-0.9367,-0.0393
0.3410,-0.1928,-0.9367,-0.0393
0.3410,-0.1928,-0.9367,-0.0393
0.3600,-0.1845,-0.9377,-0.0335
0.3600,-0.1845,-0.9377,-0.0335
0.3600,-0.1845,-0.9377,-0.0335
0.3800,-0.1804,-0.9409,-0.0442
0.3800,-0.1804,-0.9409,-0.0442
0.3800,-0.1804,-0.9409,-0.0442
0.3840,-0.1804,-0.9409,-0.0442
0.4090,-0.1804,-0.9409,-0.0442
0.4090,-0.2148,-0.9539,-0.0354
0.4090,-0.2148,-0.9539,-0.0354
0.4090,-0.2148,-0.9539,-0.0354
0.4210,-0.2263,-0.9600,-0.0164
0.4210,-0.2263,-0.9600,-0.0164
0.4210,-0.2263,-0.9600,-0.0164
0.4410,-0.2070,-0.9468,-0.0178
0.4410,-0.2070,-0.9468,-0.0178
0.4410,-0.2070,-0.9468,-0.0178
0.4590,-0.2026,-0.9377,-0.0196
0.4590,-0.2026,-0.9377,-0.0196
0.4590,-0.2026,-0.9377,-0.0196
0.4630,-0.2026,-0.9377,-0.0196
0.4640,-0.2026,-0.9377,-0.0196
0.4790,-0.2187,-0.9367,-0.0193
0.4790,-0.2187,-0.9367,-0.0193
0.4800,-0.2187,-0.9367,-0.0193
0.4910,-0.2187,-0.9367,-0.0193
0.5000,-0.2248,-0.9372,-0.0396
0.5010,-0.2248,-0.9372,-0.0396
0.5010,-0.2248,-0.9372,-0.0396
0.5210,-0.2234,-0.9363,-0.0569
0.5210,-0.2234,-0.9363,-0.0569
0.5210,-0.2234,-0.9363,-0.0569
0.5400,-0.2180,-0.9363,-0.0706
0.5410,-0.2180,-0.9363,-0.0706
0.5410,-0.2180,-0.9363,-0.0706
0.5420,-0.2180,-0.9363,-0.0706
0.5420,-0.2180,-0.9363,-0.0706
0.5580,-0.1899,-0.9612,-0.0723
0.5590,-0.1899,-0.9612,-0.0723
0.5590,-0.1899,-0.9612,-0.0723
0.5790,-0.1811,-0.9661,-0.0364
0.5790,-0.1811,-0.9661,-0.0364
0.5790,-0.1811,-0.9661,-0.0364
0.6000,-0.1840,-0.9399,-0.0029
0.6000,-0.1840,-0.9399,-0.0029
0.6000,-0.1840,-0.9399,-0.0029
0.6200,-0.1894,-0.9343,0.0139
0.6200,-0.1894,-0.9343,0.0139
0.6210,-0.1894,-0.9343,0.0139
0.6230,-0.1894,-0.9343,0.0139
0.6230,-0.1894,-0.9343,0.0139
0.6400,-0.1889,-0.9499,0.0032
0.6400,-0.1889,-0.9499,0.0032
0.6400,-0.1889,-0.9499,0.0032
0.6580,-0.2002,-0.9519,-0.0208
0.6580,-0.2002,-0.9519,-0.0208
0.6580,-0.2002,-0.9519,-0.0208
0.6780,-0.2143,-0.9343,-0.0403
0.6780,-0.2143,-0.9343,-0.0403
0.6790,-0.2143,-0.9343,-0.0403
0.6900,-0.2143,-0.9343,-0.0403
0.6980,-0.2263,-0.9262,-0.0452
0.6980,-0.2263,-0.9262,-0.0452
0.6990,-0.2263,-0.9262,-0.0452
0.7030,-0.2263,-0.9262,-0.0452
0.7030,-0.2263,-0.9262,-0.0452
0.7180,-0.2187,-0.9399,-0.0310
0.7180,-0.2187,-0.9399,-0.0310
0.7190,-0.2187,-0.9399,-0.0310
0.7380,-0.1943,-0.9548,-0.0386
0.7380,-0.1943,-0.9548,-0.0386
0.7380,-0.1943,-0.9548,-0.0386
0.7600,-0.1987,-0.9558,-0.0638
0.7600,-0.1987,-0.9558,-0.0638
0.7600,-0.1987,-0.9558,-0.0638
0.7780,-0.2148,-0.9548,-0.0582
0.7780,-0.2148,-0.9548,-0.0582
0.7780,-0.2148,-0.9548,-0.0582
0.7810,-0.2148,-0.9548,-0.0582
0.7810,-0.2148,-0.9548,-0.0582
0.7980,-0.2246,-0.9492,-0.0423
0.7980,-0.2246,-0.9492,-0.0423
0.7990,-0.2246,-0.9492,-0.0423
0.8180,-0.2153,-0.9460,-0.0430
0.8180,-0.2153,-0.9460,-0.0430
0.8180,-0.2153,-0.9460,-0.0430
0.8370,-0.1867,-0.9482,-0.0362
0.8370,-0.1867,-0.9482,-0.0362
0.8370,-0.1867,-0.9482,-0.0362
0.8570,-0.1613,-0.9561,-0.0374
0.8580,-0.1613,-0.9561,-0.0374
0.8580,-0.1613,-0.9561,-0.0374
0.8620,-0.1613,-0.9561,-0.0374
0.8620,-0.1613,-0.9561,-0.0374
0.8770,-0.1701,-0.9492,-0.0594
0.8770,-0.1701,-0.9492,-0.0594
0.8780,-0.1701,-0.9492,-0.0594
0.8880,-0.1701,-0.9492,-0.0594
0.8970,-0.1950,-0.9495,-0.0469
0.8970,-0.1950,-0.9495,-0.0469
0.8980,-0.1950,-0.9495,-0.0469
0.9170,-0.2077,-0.9641,-0.0479
0.9170,-0.2077,-0.9641,-0.0479
0.9170,-0.2077,-0.9641,-0.0479
0.9370,-0.2087,-0.9649,-0.0401
0.9370,-0.2087,-0.9649,-0.0401
0.9380,-0.2087,-0.9649,-0.0401
0.9790,-0.2087,-0.9649,-0.0401
0.9790,-0.2087,-0.9649,-0.0401
0.9790,-0.1992,-0.9465,-0.0384
0.9790,-0.1992,-0.9465,-0.0384
0.9790,-0.1992,-0.9465,-0.0384
0.9800,-0.1838,-0.9446,-0.0367
0.9800,-0.1838,-0.9446,-0.0367
0.9800,-0.1838,-0.9446,-0.0367
0.9980,-0.1889,-0.9558,-0.0318
0.9980,-0.1889,-0.9558,-0.0318
0.9980,-0.1889,-0.9558,-0.0318
1.0180,-0.2058,-0.9551,-0.0183
1.0180,-0.2058,-0.9551,-0.0183
1.0180,-0.2058,-0.9551,-0.0183
1.0200,-0.2058,-0.9551,-0.0183
1.0200,-0.2058,-0.9551,-0.0183
1.0370,-0.1764,-0.9272,-0.0323
1.0380,-0.1764,-0.9272,-0.0323
1.0380,-0.1764,-0.9272,-0.0323
1.0560,-0.1474,-0.9255,-0.0516
1.0560,-0.1474,-0.9255,-0.0516
1.0570,-0.1474,-0.9255,-0.0516
1.0570,-0.1474,-0.9255,-0.0516
1.0770,-0.1503,-0.9548,-0.0567
1.0770,-0.1503,-0.9548,-0.0567
1.0770,-0.1503,-0.9548,-0.0567
1.0870,-0.1503,-0.9548,-0.0567
1.0970,-0.1681,-0.9583,-0.0665
1.0970,-0.1681,-0.9583,-0.0665
1.0970,-0.1681,-0.9583,-0.0665
1.1000,-0.1681,-0.9583,-0.0665
1.1000,-0.1681,-0.9583,-0.0665
1.1170,-0.1816,-0.9414,-0.0736
1.1170,-0.1816,-0.9414,-0.0736
1.1170,-0.1816,-0.9414,-0.0736
1.1360,-0.2363,-0.9328,-0.0464
1.1360,-0.2363,-0.9328,-0.0464
1.1370,-0.2363,-0.9328,-0.0464
1.1550,-0.2222,-0.9353,-0.0499
1.1560,-0.2222,-0.9353,-0.0499
1.1560,-0.2222,-0.9353,-0.0499
1.1760,-0.1642,-0.9534,-0.0408
1.1770,-0.1642,-0.9534,-0.0408
1.1770,-0.1642,-0.9534,-0.0408
1.1790,-0.1642,-0.9534,-0.0408
1.1790,-0.1642,-0.9534,-0.0408
1.1970,-0.1948,-0.9634,-0.0073
1.1970,-0.1948,-0.9634,-0.0073
1.1970,-0.1948,-0.9634,-0.0073
1.2160,-0.2324,-0.9358,-0.0169
1.2170,-0.2324,-0.9358,-0.0169
1.2170,-0.2324,-0.9358,-0.0169
1.2360,-0.2554,-0.9343,-0.0269
1.2360,-0.2554,-0.9343,-0.0269
1.2360,-0.2554,-0.9343,-0.0269
1.2550,-0.2380,-0.9509,-0.0222
1.2550,-0.2380,-0.9509,-0.0222
1.2560,-0.2380,-0.9509,-0.0222
1.2590,-0.2380,-0.9509,-0.0222
1.2590,-0.2380,-0.9509,-0.0222
1.2590,-0.2380,-0.9509,-0.0222
1.2750,-0.1909,-0.9512,-0.0369
1.2750,-0.1909,-0.9512,-0.0369
1.2750,-0.1909,-0.9512,-0.0369
1.2860,-0.1909,-0.9512,-0.0369
1.2950,-0.1764,-0.9438,-0.0640
1.2950,-0.1764,-0.9438,-0.0640
1.2950,-0.1764,-0.9438,-0.0640
1.3150,-0.1701,-0.9485,-0.0723
1.3150,-0.1701,-0.9485,-0.0723
1.3150,-0.1701,-0.9485,-0.0723
1.3350,-0.1686,-0.9590,-0.0716
1.3350,-0.1686,-0.9590,-0.0716
1.3350,-0.1686,-0.9590,-0.0716
1.3380,-0.1686,-0.9590,-0.0716
1.3380,-0.1686,-0.9590,-0.0716
1.3540,-0.2072,-0.9448,-0.0606
1.3550,-0.2072,-0.9448,-0.0606
1.3550,-0.2072,-0.9448,-0.0606
1.3750,-0.2473,-0.9299,-0.0313
1.3750,-0.2473,-0.9299,-0.0313
1.3750,-0.2473,-0.9299,-0.0313
1.3940,-0.2456,-0.9328,-0.0403
1.3950,-0.2456,-0.9328,-0.0403
1.3950,-0.2456,-0.9328,-0.0403
1.4150,-0.2285,-0.9392,-0.0569
1.4150,-0.2285,-0.9392,-0.0569
1.4150,-0.2285,-0.9392,-0.0569
1.4180,-0.2285,-0.9392,-0.0569
1.4190,-0.2285,-0.9392,-0.0569
1.4360,-0.2143,-0.9419,-0.0408
1.4360,-0.2143,-0.9419,-0.0408
1.4360,-0.2143,-0.9419,-0.0408
1.4550,-0.1945,-0.9433,-0.0415
1.4550,-0.1945,-0.9433,-0.0415
1.4560,-0.1945,-0.9433,-0.0415
1.4770,-0.1874,-0.9460,-0.0384
1.4770,-0.1874,-0.9460,-0.0384
1.4770,-0.1874,-0.9460,-0.0384
1.4840,-0.1874,-0.9460,-0.0384
1.5230,-0.1936,-0.9463,-0.0254
1.5230,-0.1936,-0.9463,-0.0254
1.5230,-0.1936,-0.9463,-0.0254
1.5230,-0.1936,-0.9463,-0.0254
1.5240,-0.1936,-0.9463,-0.0254
1.5240,-0.1799,-0.9319,-0.0425
1.5250,-0.1799,-0.9319,-0.0425
1.5250,-0.1799,-0.9319,-0.0425
1.5330,-0.1662,-0.9350,-0.0606
1.5340,-0.1662,-0.9350,-0.0606
1.5340,-0.1662,-0.9350,-0.0606
1.5540,-0.1889,-0.9629,-0.0486
1.5540,-0.1889,-0.9629,-0.0486
1.5540,-0.1889,-0.9629,-0.0486
1.5740,-0.2099,-0.9553,-0.0481
1.5740,-0.2099,-0.9553,-0.0481
1.5740,-0.2099,-0.9553,-0.0481
1.5770,-0.2099,-0.9553,-0.0481
1.5780,-0.2099,-0.9553,-0.0481
1.5940,-0.2200,-0.9365,-0.0633
1.5950,-0.2200,-0.9365,-0.0633
1.5950,-0.2200,-0.9365,-0.0633
1.6140,-0.2112,-0.9316,-0.0716
1.6140,-0.2112,-0.9316,-0.0716
1.6140,-0.2112,-0.9316,-0.0716
1.6340,-0.2170,-0.9433,-0.0557
1.6350,-0.2170,-0.9433,-0.0557
1.6350,-0.2170,-0.9433,-0.0557
1.6540,-0.2170,-0.9433,-0.0557
1.6540,-0.2424,-0.9495,-0.0152
1.6550,-0.2424,-0.9495,-0.0152
1.6550,-0.2424,-0.9495,-0.0152
1.6570,-0.2424,-0.9495,-0.0152
1.6580,-0.2424,-0.9495,-0.0152
1.6730,-0.2236,-0.9231,-0.0303
1.6740,-0.2236,-0.9231,-0.0303
1.6740,-0.2236,-0.9231,-0.0303
1.6850,-0.2236,-0.9231,-0.0303
1.6930,-0.2173,-0.9316,-0.0327
1.6940,-0.2173,-0.9316,-0.0327
1.6940,-0.2173,-0.9316,-0.0327
1.7140,-0.2512,-0.9671,-0.0078
1.7150,-0.2512,-0.9671,-0.0078
1.7160,-0.2512,-0.9671,-0.0078
1.7340,-0.2371,-0.9548,-0.0318
1.7350,-0.2371,-0.9548,-0.0318
1.7360,-0.2371,-0.9548,-0.0318
1.7360,-0.2371,-0.9548,-0.0318
1.7370,-0.2371,-0.9548,-0.0318
1.7530,-0.1962,-0.9282,-0.0726
1.7540,-0.1962,-0.9282,-0.0726
1.7540,-0.1962,-0.9282,-0.0726
1.7730,-0.1828,-0.9355,-0.0569
1.7740,-0.1828,-0.9355,-0.0569
1.7740,-0.1828,-0.9355,-0.0569
1.7950,-0.1860,-0.9477,-0.0552
1.7960,-0.1860,-0.9477,-0.0552
1.7960,-0.1860,-0.9477,-0.0552
1.8140,-0.1843,-0.9517,-0.0667
1.8150,-0.1843,-0.9517,-0.0667
1.8150,-0.1843,-0.9517,-0.0667
1.8160,-0.1843,-0.9517,-0.0667
1.8160,-0.1843,-0.9517,-0.0667
1.8330,-0.1953,-0.9639,-0.0455
1.8330,-0.1953,-0.9639,-0.0455
1.8340,-0.1953,-0.9639,-0.0455
1.8590,-0.2178,-0.9583,-0.0269
1.8590,-0.2178,-0.9583,-0.0269
1.8600,-0.2178,-0.9583,-0.0269
1.8720,-0.2153,-0.9372,-0.0459
1.8720,-0.2153,-0.9372,-0.0459
1.8720,-0.2153,-0.9372,-0.0459
1.8800,-0.2153,-0.9372,-0.0459
1.8920,-0.2344,-0.9358,-0.0298
1.8920,-0.2344,-0.9358,-0.0298
1.8920,-0.2344,-0.9358,-0.0298
1.8940,-0.2344,-0.9358,-0.0298
1.8950,-0.2344,-0.9358,-0.0298
1.9110,-0.2600,-0.9404,-0.0174
1.9110,-0.2600,-0.9404,-0.0174
1.9110,-0.2600,-0.9404,-0.0174
1.9310,-0.2256,-0.9328,-0.0469
1.9310,-0.2256,-0.9328,-0.0469
1.9310,-0.2256,-0.9328,-0.0469
1.9510,-0.2114,-0.9309,-0.0623
1.9670,-0.2114,-0.9309,-0.0623
1.9670,-0.2114,-0.9309,-0.0623
1.9930,-0.2263,-0.9451,-0.0374
2.0040,-0.2263,-0.9451,-0.0374
2.0050,-0.2263,-0.9451,-0.0374
2.0060,-0.2263,-0.9451,-0.0374
2.0330,-0.2263,-0.9451,-0.0374
2.0340,-0.2182,-0.9495,-0.0433
2.0340,-0.2182,-0.9495,-0.0433
2.0340,-0.2182,-0.9495,-0.0433
2.0340,-0.1980,-0.9416,-0.0567
2.0340,-0.1999,-0.9355,-0.0469
2.0340,-0.1999,-0.9355,-0.0469
2.0350,-0.1999,-0.9355,-0.0469
2.0350,-0.1999,-0.9355,-0.0469
2.0730,-0.1999,-0.9355,-0.0469
2.0740,-0.1962,-0.9490,-0.0296
2.0740,-0.1962,-0.9490,-0.0296
2.0740,-0.1962,-0.9490,-0.0296
2.0750,-0.1962,-0.9490,-0.0296
2.0750,-0.1962,-0.9490,-0.0296
2.0760,-0.1840,-0.9436,-0.0547
2.0760,-0.1840,-0.9436,-0.0547
2.0770,-0.1840,-0.9436,-0.0547
2.0810,-0.1840,-0.9436,-0.0547
2.0910,-0.1786,-0.9424,-0.0662
2.0910,-0.1786,-0.9424,-0.0662
2.0910,-0.1786,-0.9424,-0.0662
2.1110,-0.2121,-0.9597,-0.0430
2.1110,-0.2121,-0.9597,-0.0430
2.1110,-0.2121,-0.9597,-0.0430
2.1310,-0.2080,-0.9521,-0.0433
2.1310,-0.2080,-0.9521,-0.0433
2.1310,-0.2080,-0.9521,-0.0433
2.1340,-0.2080,-0.9521,-0.0433
2.1340,-0.2080,-0.9521,-0.0433
2.1530,-0.1899,-0.9402,-0.0660
2.1530,-0.1899,-0.9402,-0.0660
2.1530,-0.1899,-0.9402,-0.0660
2.1700,-0.1542,-0.9490,-0.0484
2.1700,-0.1542,-0.9490,-0.0484
2.1710,-0.1542,-0.9490,-0.0484
2.1900,-0.1452,-0.9468,-0.0506
2.1900,-0.1452,-0.9468,-0.0506
2.1900,-0.1452,-0.9468,-0.0506
2.2100,-0.1945,-0.9331,-0.0582
2.2110,-0.1945,-0.9331,-0.0582
2.2110,-0.1945,-0.9331,-0.0582
2.2130,-0.1945,-0.9331,-0.0582
2.2140,-0.1945,-0.9331,-0.0582
2.2300,-0.2459,-0.9477,-0.0083
2.2300,-0.2459,-0.9477,-0.0083
2.2300,-0.2459,-0.9477,-0.0083
2.2510,-0.2459,-0.9477,-0.0083
2.2510,-0.2427,-0.9529,-0.0193
2.2520,-0.2427,-0.9529,-0.0193
2.2520,-0.2427,-0.9529,-0.0193
2.2690,-0.2178,-0.9448,-0.0462
2.2700,-0.2178,-0.9448,-0.0462
2.2710,-0.2178,-0.9448,-0.0462
2.2810,-0.2178,-0.9448,-0.0462
2.2900,-0.2253,-0.9575,-0.0376
2.2910,-0.2253,-0.9575,-0.0376
2.2910,-0.2253,-0.9575,-0.0376
2.2930,-0.2253,-0.9575,-0.0376
2.2930,-0.2253,-0.9575,-0.0376
2.3100,-0.2119,-0.9609,-0.0347
2.3110,-0.2119,-0.9609,-0.0347
2.3110,-0.2119,-0.9609,-0.0347
2.3300,-0.1865,-0.9578,-0.0459
2.3310,-0.1865,-0.9578,-0.0459
2.3320,-0.1865,-0.9578,-0.0459
2.3500,-0.1701,-0.9519,-0.0535
2.3510,-0.1701,-0.9519,-0.0535
2.3510,-0.1701,-0.9519,-0.0535
2.3720,-0.1716,-0.9475,-0.0621
2.3730,-0.1716,-0.9475,-0.0621
2.3730,-0.1716,-0.9475,-0.0621
2.3740,-0.1716,-0.9475,-0.0621
2.3740,-0.1716,-0.9475,-0.0621
2.3900,-0.1965,-0.9446,-0.0393
2.3910,-0.1965,-0.9446,-0.0393
2.3910,-0.1965,-0.9446,-0.0393
2.4090,-0.2011,-0.9441,-0.0401
2.4090,-0.2011,-0.9441,-0.0401
2.4100,-0.2011,-0.9441,-0.0401
2.4310,-0.1896,-0.9487,-0.0587
2.4320,-0.1896,-0.9487,-0.0587
2.4320,-0.1896,-0.9487,-0.0587
2.4480,-0.2129,-0.9578,-0.0518
2.4480,-0.2129,-0.9578,-0.0518
2.4490,-0.2129,-0.9578,-0.0518
2.4510,-0.2129,-0.9578,-0.0518
2.4510,-0.2129,-0.9578,-0.0518
2.4670,-0.2356,-0.9531,-0.0235
2.4670,-0.2356,-0.9531,-0.0235
2.4680,-0.2356,-0.9531,-0.0235
2.4760,-0.2356,-0.9531,-0.0235
2.4870,-0.2094,-0.9424,-0.0371
2.4870,-0.2094,-0.9424,-0.0371
2.4870,-0.2094,-0.9424,-0.0371
2.5070,-0.1830,-0.9345,-0.0714
2.5070,-0.1830,-0.9345,-0.0714
2.5070,-0.1830,-0.9345,-0.0714
2.5280,-0.1813,-0.9414,-0.0433
2.5280,-0.1813,-0.9414,-0.0433
2.5280,-0.1813,-0.9414,-0.0433
2.5300,-0.1813,-0.9414,-0.0433
2.5300,-0.1813,-0.9414,-0.0433
2.5470,-0.1784,-0.9451,-0.0401
2.5470,-0.1784,-0.9451,-0.0401
2.5470,-0.1784,-0.9451,-0.0401
2.5670,-0.1845,-0.9453,-0.0474
2.5680,-0.1845,-0.9453,-0.0474
2.5680,-0.1845,-0.9453,-0.0474
2.5920,-0.2114,-0.9426,-0.0481
2.5920,-0.2114,-0.9426,-0.0481
2.5920,-0.2114,-0.9426,-0.0481
2.6080,-0.2026,-0.9394,-0.0496
2.6080,-0.2026,-0.9394,-0.0496
2.6080,-0.2026,-0.9394,-0.0496
2.6110,-0.2026,-0.9394,-0.0496
2.6110,-0.2026,-0.9394,-0.0496
2.6290,-0.2033,-0.9397,-0.0670
2.6290,-0.2033,-0.9397,-0.0670
2.6290,-0.2033,-0.9397,-0.0670
2.6480,-0.2024,-0.9358,-0.0697
2.6480,-0.2024,-0.9358,-0.0697
2.6480,-0.2024,-0.9358,-0.0697
2.6670,-0.1926,-0.9385,-0.0618
2.6680,-0.1926,-0.9385,-0.0618
2.6680,-0.1926,-0.9385,-0.0618
2.6770,-0.1926,-0.9385,-0.0618
2.6870,-0.1845,-0.9416,-0.0670
2.6880,-0.1845,-0.9416,-0.0670
2.6880,-0.1845,-0.9416,-0.0670
2.6900,-0.1845,-0.9416,-0.0670
2.6900,-0.1845,-0.9416,-0.0670
2.7070,-0.1833,-0.9451,-0.0655
2.7080,-0.1833,-0.9451,-0.0655
2.7080,-0.1833,-0.9451,-0.0655
2.7280,-0.1833,-0.9485,-0.0513
2.7290,-0.1833,-0.9485,-0.0513
2.7300,-0.1833,-0.9485,-0.0513
2.7470,-0.2028,-0.9443,-0.0264
2.7480,-0.2028,-0.9443,-0.0264
2.7480,-0.2028,-0.9443,-0.0264
2.7690,-0.2495,-0.9341,-0.0029
2.7710,-0.2495,-0.9341,-0.0029
2.7730,-0.2495,-0.9341,-0.0029
2.7730,-0.2495,-0.9341,-0.0029
2.7740,-0.2495,-0.9341,-0.0029
2.7870,-0.2268,-0.9343,-0.0093
2.7880,-0.2268,-0.9343,-0.0093
2.7890,-0.2268,-0.9343,-0.0093
2.8100,-0.1940,-0.9433,-0.0286
2.8110,-0.1940,-0.9433,-0.0286
2.8120,-0.1940,-0.9433,-0.0286
2.8280,-0.2092,-0.9475,-0.0227
2.8290,-0.2092,-0.9475,-0.0227
2.8290,-0.2092,-0.9475,-0.0227
2.8490,-0.2092,-0.9475,-0.0227
2.8500,-0.2278,-0.9629,-0.0237
2.8500,-0.2278,-0.9629,-0.0237
2.8500,-0.2278,-0.9629,-0.0237
2.8520,-0.2278,-0.9629,-0.0237
2.8530,-0.2278,-0.9629,-0.0237
2.8670,-0.2160,-0.9624,-0.0569
2.8690,-0.2160,-0.9624,-0.0569
2.8690,-0.2160,-0.9624,-0.0569
2.8750,-0.2160,-0.9624,-0.0569
2.8900,-0.1874,-0.9451,-0.0782
2.8900,-0.1874,-0.9451,-0.0782
2.8910,-0.1874,-0.9451,-0.0782
2.9100,-0.1777,-0.9348,-0.0736
2.9110,-0.1777,-0.9348,-0.0736
2.9120,-0.1777,-0.9348,-0.0736
2.9280,-0.1723,-0.9526,-0.0682
2.9290,-0.1723,-0.9526,-0.0682
2.9290,-0.1723,-0.9526,-0.0682
2.9300,-0.1723,-0.9526,-0.0682
2.9300,-0.1723,-0.9526,-0.0682
2.9490,-0.1735,-0.9617,-0.0635
2.9490,-0.1735,-0.9617,-0.0635
2.9500,-0.1735,-0.9617,-0.0635
2.9670,-0.2129,-0.9414,-0.0596
2.9680,-0.2129,-0.9414,-0.0596
2.9690,-0.2129,-0.9414,-0.0596
2.9890,-0.2175,-0.9387,-0.0318
2.9890,-0.2175,-0.9387,-0.0318
2.9900,-0.2175,-0.9387,-0.0318
3.0080,-0.2026,-0.9578,-0.0308
3.0090,-0.2026,-0.9578,-0.0308
3.0090,-0.2026,-0.9578,-0.0308
3.0100,-0.2026,-0.9578,-0.0308
3.0110,-0.2026,-0.9578,-0.0308
3.0270,-0.2217,-0.9668,-0.0015
3.0280,-0.2217,-0.9668,-0.0015
3.0280,-0.2217,-0.9668,-0.0015
3.0450,-0.1984,-0.9480,-0.0144
3.0450,-0.1984,-0.9480,-0.0144
3.0460,-0.1984,-0.9480,-0.0144
3.0650,-0.1532,-0.9328,-0.0775
3.0650,-0.1532,-0.9328,-0.0775
3.0650,-0.1532,-0.9328,-0.0775
3.0720,-0.1532,-0.9328,-0.0775
3.0880,-0.1811,-0.9558,-0.0816
3.0880,-0.1811,-0.9558,-0.0816
3.0890,-0.1811,-0.9558,-0.0816
3.0890,-0.1811,-0.9558,-0.0816
3.0890,-0.1811,-0.9558,-0.0816
3.1040,-0.2141,-0.9553,-0.0672
3.1040,-0.2141,-0.9553,-0.0672
3.1040,-0.2141,-0.9553,-0.0672
3.1260,-0.2644,-0.9265,-0.0804
3.1660,-0.2644,-0.9265,-0.0804
3.1660,-0.2644,-0.9265,-0.0804
3.1660,-0.2014,-0.9108,-0.0985
3.1660,-0.2014,-0.9108,-0.0985
3.1670,-0.2014,-0.9108,-0.0985
3.1670,-0.1307,-0.9421,-0.0655
3.1670,-0.1307,-0.9421,-0.0655
3.1670,-0.1307,-0.9421,-0.0655
3.1670,-0.1307,-0.9421,-0.0655
3.1670,-0.1307,-0.9421,-0.0655
3.1850,-0.1672,-0.9700,-0.0159
3.1850,-0.1672,-0.9700,-0.0159
3.1850,-0.1672,-0.9700,-0.0159
3.2040,-0.2112,-0.9580,-0.0076
3.2040,-0.2112,-0.9580,-0.0076
3.2050,-0.2112,-0.9580,-0.0076
3.2250,-0.2305,-0.9438,-0.0054
3.2250,-0.2305,-0.9438,-0.0054
3.2250,-0.2305,-0.9438,-0.0054
3.2450,-0.2236,-0.9404,-0.0007
3.2450,-0.2236,-0.9404,-0.0007
3.2460,-0.2236,-0.9404,-0.0007
3.2480,-0.2236,-0.9404,-0.0007
3.2480,-0.2236,-0.9404,-0.0007
3.2650,-0.1813,-0.9438,-0.0171
3.2650,-0.1813,-0.9438,-0.0171
3.2660,-0.1813,-0.9438,-0.0171
3.2710,-0.1813,-0.9438,-0.0171
3.2850,-0.1804,-0.9649,-0.0327
3.2850,-0.1804,-0.9649,-0.0327
3.2860,-0.1804,-0.9649,-0.0327
3.3050,-0.1830,-0.9563,-0.0601
3.3060,-0.1830,-0.9563,-0.0601
3.3060,-0.1830,-0.9563,-0.0601
3.3280,-0.1755,-0.9311,-0.0736
3.3290,-0.1755,-0.9311,-0.0736
3.3300,-0.1755,-0.9311,-0.0736
3.3300,-0.1755,-0.9311,-0.0736
3.3310,-0.1755,-0.9311,-0.0736
3.3480,-0.1694,-0.9216,-0.0799
3.3520,-0.1694,-0.9216,-0.0799
3.3530,-0.1694,-0.9216,-0.0799
3.3670,-0.1855,-0.9297,-0.0447
3.3680,-0.1855,-0.9297,-0.0447
3.3680,-0.1855,-0.9297,-0.0447
3.3860,-0.2072,-0.9397,-0.0393
3.3870,-0.2072,-0.9397,-0.0393
3.3880,-0.2072,-0.9397,-0.0393
3.4110,-0.2178,-0.9350,-0.0824
3.4120,-0.2178,-0.9350,-0.0824
3.4120,-0.2178,-0.9350,-0.0824
3.4130,-0.2178,-0.9350,-0.0824
3.4130,-0.2178,-0.9350,-0.0824
3.4250,-0.2461,-0.9446,-0.0824
3.4260,-0.2461,-0.9446,-0.0824
3.4270,-0.2461,-0.9446,-0.0824
3.4440,-0.2542,-0.9541,-0.0340
3.4450,-0.2542,-0.9541,-0.0340
3.4460,-0.2542,-0.9541,-0.0340
3.4670,-0.2016,-0.9497,-0.0340
3.4720,-0.2016,-0.9497,-0.0340
3.4730,-0.2016,-0.9497,-0.0340
3.4740,-0.2016,-0.9497,-0.0340
3.4860,-0.1921,-0.9399,-0.0435
3.4860,-0.1921,-0.9399,-0.0435
3.4870,-0.1921,-0.9399,-0.0435
3.4880,-0.1921,-0.9399,-0.0435
3.4890,-0.1921,-0.9399,-0.0435
3.5050,-0.1921,-0.9177,-0.0631
3.5060,-0.1921,-0.9177,-0.0631
3.5060,-0.1921,-0.9177,-0.0631
3.5260,-0.1845,-0.9392,-0.0687
3.5270,-0.1845,-0.9392,-0.0687
3.5270,-0.1845,-0.9392,-0.0687
3.5430,-0.1899,-0.9776,-0.0609
3.5440,-0.1899,-0.9776,-0.0609
3.5450,-0.1899,-0.9776,-0.0609
3.5630,-0.1923,-0.9690,-0.0699
3.5660,-0.1923,-0.9690,-0.0699
3.5670,-0.1923,-0.9690,-0.0699
3.5680,-0.1923,-0.9690,-0.0699
3.5690,-0.1923,-0.9690,-0.0699
3.5840,-0.1958,-0.9397,-0.0787
3.5840,-0.1958,-0.9397,-0.0787
3.5850,-0.1958,-0.9397,-0.0787
3.6040,-0.1877,-0.9382,-0.0657
3.6050,-0.1877,-0.9382,-0.0657
3.6060,-0.1877,-0.9382,-0.0657
3.6280,-0.1892,-0.9465,-0.0423
3.6280,-0.1892,-0.9465,-0.0423
3.6290,-0.1892,-0.9465,-0.0423
3.6410,-0.2070,-0.9389,-0.0254
3.6420,-0.2070,-0.9389,-0.0254
3.6420,-0.2070,-0.9389,-0.0254
3.6450,-0.2070,-0.9389,-0.0254
3.6460,-0.2070,-0.9389,-0.0254
3.6660,-0.2265,-0.9304,-0.0183
3.6670,-0.2265,-0.9304,-0.0183
3.6670,-0.2265,-0.9304,-0.0183
3.6670,-0.2265,-0.9304,-0.0183
3.7090,-0.2268,-0.9292,-0.0530
3.7090,-0.2268,-0.9292,-0.0530
3.7090,-0.2268,-0.9292,-0.0530
3.7090,-0.2324,-0.9223,-0.0738
3.7100,-0.2324,-0.9223,-0.0738
3.7100,-0.2324,-0.9223,-0.0738
3.7200,-0.2407,-0.9304,-0.0657
3.7210,-0.2407,-0.9304,-0.0657
3.7210,-0.2407,-0.9304,-0.0657
3.7230,-0.2407,-0.9304,-0.0657
3.7230,-0.2407,-0.9304,-0.0657
3.7400,-0.1994,-0.9328,-0.0907
3.7400,-0.1994,-0.9328,-0.0907
3.7400,-0.1994,-0.9328,-0.0907
3.7600,-0.1975,-0.9416,-0.1061
3.7600,-0.1975,-0.9416,-0.1061
3.7600,-0.1975,-0.9416,-0.1061
3.7790,-0.2200,-0.9524,-0.0672
3.7800,-0.2200,-0.9524,-0.0672
3.7800,-0.2200,-0.9524,-0.0672
3.8010,-0.2136,-0.9497,-0.0445
3.8010,-0.2136,-0.9497,-0.0445
3.8010,-0.2136,-0.9497,-0.0445
3.8040,-0.2136,-0.9497,-0.0445
3.8050,-0.2136,-0.9497,-0.0445
3.8200,-0.1958,-0.9504,-0.0584
3.8200,-0.1958,-0.9504,-0.0584
3.8200,-0.1958,-0.9504,-0.0584
3.8400,-0.1799,-0.9387,-0.0775
3.8400,-0.1799,-0.9387,-0.0775
3.8400,-0.1799,-0.9387,-0.0775
3.8600,-0.1977,-0.9260,-0.0760
3.8600,-0.1977,-0.9260,-0.0760
3.8610,-0.1977,-0.9260,-0.0760
3.8670,-0.1977,-0.9260,-0.0760
3.8820,-0.2131,-0.9443,-0.0442
3.8820,-0.2131,-0.9443,-0.0442
3.8820,-0.2131,-0.9443,-0.0442
3.8840,-0.2131,-0.9443,-0.0442
3.8850,-0.2131,-0.9443,-0.0442
3.9010,-0.2102,-0.9553,-0.0518
3.9030,-0.2102,-0.9553,-0.0518
3.9040,-0.2102,-0.9553,-0.0518
3.9210,-0.2026,-0.9441,-0.0623
3.9210,-0.2026,-0.9441,-0.0623
3.9220,-0.2026,-0.9441,-0.0623
3.9400,-0.2156,-0.9350,-0.0631
3.9400,-0.2156,-0.9350,-0.0631
3.9410,-0.2156,-0.9350,-0.0631
3.9610,-0.2094,-0.9402,-0.0679
3.9640,-0.2094,-0.9402,-0.0679
3.9640,-0.2094,-0.9402,-0.0679
3.9650,-0.2094,-0.9402,-0.0679
3.9660,-0.2094,-0.9402,-0.0679
3.9820,-0.2200,-0.9548,-0.0565
3.9830,-0.2200,-0.9548,-0.0565
3.9830,-0.2200,-0.9548,-0.0565
4.0040,-0.2138,-0.9480,-0.0528
4.0090,-0.2138,-0.9480,-0.0528
4.0100,-0.2138,-0.9480,-0.0528
4.0210,-0.2192,-0.9473,-0.0545
4.0220,-0.2192,-0.9473,-0.0545
4.0220,-0.2192,-0.9473,-0.0545
4.0390,-0.2222,-0.9570,-0.0521
4.0400,-0.2222,-0.9570,-0.0521
4.0400,-0.2222,-0.9570,-0.0521
4.0430,-0.2222,-0.9570,-0.0521
4.0440,-0.2222,-0.9570,-0.0521
4.0590,-0.1786,-0.9521,-0.0626
4.0590,-0.1786,-0.9521,-0.0626
4.0600,-0.1786,-0.9521,-0.0626
4.0660,-0.1786,-0.9521,-0.0626
4.0810,-0.1447,-0.9605,-0.0787
4.0810,-0.1447,-0.9605,-0.0787
4.0820,-0.1447,-0.9605,-0.0787
4.0990,-0.1696,-0.9778,-0.0838
4.0990,-0.1696,-0.9778,-0.0838
4.1000,-0.1696,-0.9778,-0.0838
4.1210,-0.1977,-0.9729,-0.0794
4.1220,-0.1977,-0.9729,-0.0794
4.1220,-0.1977,-0.9729,-0.0794
4.1240,-0.1977,-0.9729,-0.0794
4.1250,-0.1977,-0.9729,-0.0794
4.1420,-0.2224,-0.9446,-0.0931
4.1420,-0.2224,-0.9446,-0.0931
4.1420,-0.2224,-0.9446,-0.0931
4.1610,-0.2143,-0.9062,-0.0816
4.1620,-0.2143,-0.9062,-0.0816
4.1620,-0.2143,-0.9062,-0.0816
4.1810,-0.1901,-0.9128,-0.0371
4.1810,-0.1901,-0.9128,-0.0371
4.1810,-0.1901,-0.9128,-0.0371
4.2000,-0.1977,-0.9446,-0.0261
4.2010,-0.1977,-0.9446,-0.0261
4.2010,-0.1977,-0.9446,-0.0261
4.2050,-0.1977,-0.9446,-0.0261
4.2050,-0.1977,-0.9446,-0.0261
4.2220,-0.2275,-0.9460,-0.0442
4.2220,-0.2275,-0.9460,-0.0442
4.2220,-0.2275,-0.9460,-0.0442
4.2530,-0.2561,-0.9345,-0.0626
4.2530,-0.2561,-0.9345,-0.0626
4.2530,-0.2561,-0.9345,-0.0626
4.2580,-0.2405,-0.9333,-0.0809
4.2580,-0.2405,-0.9333,-0.0809
4.2580,-0.2405,-0.9333,-0.0809
4.2630,-0.2405,-0.9333,-0.0809
4.2760,-0.2085,-0.9497,-0.0589
4.2760,-0.2085,-0.9497,-0.0589
4.2760,-0.2085,-0.9497,-0.0589
4.2800,-0.2085,-0.9497,-0.0589
4.2800,-0.2085,-0.9497,-0.0589
4.2970,-0.2002,-0.9666,-0.0218
4.2970,-0.2002,-0.9666,-0.0218
4.2970,-0.2002,-0.9666,-0.0218
4.3160,-0.2134,-0.9465,-0.0689
4.3160,-0.2134,-0.9465,-0.0689
4.3170,-0.2134,-0.9465,-0.0689
4.3370,-0.1997,-0.9182,-0.1347
4.3370,-0.1997,-0.9182,-0.1347
4.3370,-0.1997,-0.9182,-0.1347
4.3570,-0.2031,-0.9382,-0.0921
4.3580,-0.2031,-0.9382,-0.0921
4.3580,-0.2031,-0.9382,-0.0921
4.3620,-0.2031,-0.9382,-0.0921
4.3620,-0.2031,-0.9382,-0.0921
4.3780,-0.2004,-0.9607,-0.0447
4.3780,-0.2004,-0.9607,-0.0447
4.3780,-0.2004,-0.9607,-0.0447
4.3980,-0.1730,-0.9482,-0.0716
4.3980,-0.1730,-0.9482,-0.0716
4.3980,-0.1730,-0.9482,-0.0716
4.4180,-0.1857,-0.9382,-0.0731
4.4180,-0.1857,-0.9382,-0.0731
4.4180,-0.1857,-0.9382,-0.0731
4.4310,-0.1857,-0.9382,-0.0731
4.4380,-0.2182,-0.9465,-0.0469
4.4380,-0.2182,-0.9465,-0.0469
4.4380,-0.2182,-0.9465,-0.0469
4.4420,-0.2182,-0.9465,-0.0469
4.4430,-0.2182,-0.9465,-0.0469
4.4580,-0.1794,-0.9309,-0.0609
4.4590,-0.1794,-0.9309,-0.0609
4.4590,-0.1794,-0.9309,-0.0609
4.4640,-0.1794,-0.9309,-0.0609
4.4790,-0.1760,-0.9267,-0.0743
4.4800,-0.1760,-0.9267,-0.0743
4.4800,-0.1760,-0.9267,-0.0743
4.4980,-0.2026,-0.9377,-0.0604
4.4980,-0.2026,-0.9377,-0.0604
4.4980,-0.2026,-0.9377,-0.0604
4.5190,-0.2153,-0.9309,-0.0670
4.5190,-0.2153,-0.9309,-0.0670
4.5190,-0.2153,-0.9309,-0.0670
4.5230,-0.2153,-0.9309,-0.0670
4.5230,-0.2153,-0.9309,-0.0670
4.5370,-0.2322,-0.9160,-0.0787
4.5370,-0.2322,-0.9160,-0.0787
4.5380,-0.2322,-0.9160,-0.0787
4.5610,-0.2050,-0.9301,-0.0716
4.5610,-0.2050,-0.9301,-0.0716
4.5620,-0.2050,-0.9301,-0.0716
4.5760,-0.1706,-0.9727,-0.0486
4.5760,-0.1706,-0.9727,-0.0486
4.5760,-0.1706,-0.9727,-0.0486
4.5950,-0.1840,-0.9827,-0.0393
4.5960,-0.1840,-0.9827,-0.0393
4.5960,-0.1840,-0.9827,-0.0393
4.6000,-0.1840,-0.9827,-0.0393
4.6000,-0.1840,-0.9827,-0.0393
4.6170,-0.2163,-0.9568,-0.0587
4.6170,-0.2163,-0.9568,-0.0587
4.6180,-0.2163,-0.9568,-0.0587
4.6360,-0.2441,-0.9375,-0.0716
4.6360,-0.2441,-0.9375,-0.0716
4.6360,-0.2441,-0.9375,-0.0716
4.6580,-0.2503,-0.9336,-0.0616
4.6580,-0.2503,-0.9336,-0.0616
4.6580,-0.2503,-0.9336,-0.0616
4.6620,-0.2503,-0.9336,-0.0616
4.6750,-0.2046,-0.9345,-0.0731
4.6750,-0.2046,-0.9345,-0.0731
4.6750,-0.2046,-0.9345,-0.0731
4.6810,-0.2046,-0.9345,-0.0731
4.6820,-0.2046,-0.9345,-0.0731
4.6980,-0.2068,-0.9502,-0.1002
4.6990,-0.2068,-0.9502,-0.1002
4.6990,-0.2068,-0.9502,-0.1002
4.7170,-0.2341,-0.9624,-0.0916
4.7180,-0.2341,-0.9624,-0.0916
4.7180,-0.2341,-0.9624,-0.0916
4.7370,-0.2185,-0.9548,-0.0640
4.7370,-0.2185,-0.9548,-0.0640
4.7380,-0.2185,-0.9548,-0.0640
4.7560,-0.2173,-0.9495,-0.0555
4.7560,-0.2173,-0.9495,-0.0555
4.7570,-0.2173,-0.9495,-0.0555
4.7600,-0.2173,-0.9495,-0.0555
4.7600,-0.2173,-0.9495,-0.0555
4.7770,-0.2038,-0.9409,-0.0741
4.8140,-0.2038,-0.9409,-0.0741
4.8140,-0.2038,-0.9409,-0.0741
4.8140,-0.2080,-0.9385,-0.0938
4.8140,-0.2080,-0.9385,-0.0938
4.8140,-0.2080,-0.9385,-0.0938
4.8140,-0.2344,-0.9438,-0.0838
4.8150,-0.2344,-0.9438,-0.0838
4.8150,-0.2344,-0.9438,-0.0838
4.8280,-0.2344,-0.9438,-0.0838
4.8340,-0.2336,-0.9499,-0.0606
4.8340,-0.2336,-0.9499,-0.0606
4.8340,-0.2336,-0.9499,-0.0606
4.8380,-0.2336,-0.9499,-0.0606
4.8380,-0.2336,-0.9499,-0.0606
4.8540,-0.2236,-0.9514,-0.0545
4.8540,-0.2236,-0.9514,-0.0545
4.8540,-0.2236,-0.9514,-0.0545
4.8580,-0.2236,-0.9514,-0.0545
4.8740,-0.2099,-0.9399,-0.0513
4.8740,-0.2099,-0.9399,-0.0513
4.8740,-0.2099,-0.9399,-0.0513
4.8940,-0.2070,-0.9348,-0.0489
4.8940,-0.2070,-0.9348,-0.0489
4.8950,-0.2070,-0.9348,-0.0489
4.9130,-0.1926,-0.9394,-0.0601
4.9130,-0.1926,-0.9394,-0.0601
4.9130,-0.1926,-0.9394,-0.0601
4.9180,-0.1926,-0.9394,-0.0601
4.9180,-0.1926,-0.9394,-0.0601
4.9350,-0.2050,-0.9431,-0.0584
4.9350,-0.2050,-0.9431,-0.0584
4.9350,-0.2050,-0.9431,-0.0584
4.9540,-0.2336,-0.9380,-0.0555
4.9540,-0.2336,-0.9380,-0.0555
4.9540,-0.2336,-0.9380,-0.0555
4.9750,-0.2229,-0.9255,-0.0892
4.9750,-0.2229,-0.9255,-0.0892
4.9750,-0.2229,-0.9255,-0.0892
4.9950,-0.2075,-0.9353,-0.1281
4.9950,-0.2075,-0.9353,-0.1281
4.9950,-0.2075,-0.9353,-0.1281
4.9970,-0.2075,-0.9353,-0.1281
4.9970,-0.2075,-0.9353,-0.1281
5.0140,-0.2173,-0.9348,-0.1227
5.0140,-0.2173,-0.9348,-0.1227
5.0140,-0.2173,-0.9348,-0.1227
5.0260,-0.2173,-0.9348,-0.1227
5.0330,-0.2033,-0.9216,-0.0894
5.0330,-0.2033,-0.9216,-0.0894
5.0340,-0.2033,-0.9216,-0.0894
5.0540,-0.1901,-0.9243,-0.0596
5.0540,-0.1901,-0.9243,-0.0596
5.0540,-0.1901,-0.9243,-0.0596
5.0560,-0.1901,-0.9243,-0.0596
5.0740,-0.1843,-0.9389,-0.0381
5.0740,-0.1843,-0.9389,-0.0381
5.0740,-0.1843,-0.9389,-0.0381
5.0770,-0.1843,-0.9389,-0.0381
5.0770,-0.1843,-0.9389,-0.0381
5.0930,-0.1889,-0.9419,-0.0335
5.0940,-0.1889,-0.9419,-0.0335
5.0940,-0.1889,-0.9419,-0.0335
5.1120,-0.2446,-0.9424,-0.0379
5.1120,-0.2446,-0.9424,-0.0379
5.1120,-0.2446,-0.9424,-0.0379
5.1320,-0.2708,-0.9502,-0.0535
5.1320,-0.2708,-0.9502,-0.0535
5.1320,-0.2708,-0.9502,-0.0535
5.1520,-0.2349,-0.9429,-0.0811
5.1530,-0.2349,-0.9429,-0.0811
5.1530,-0.2349,-0.9429,-0.0811
5.1550,-0.2349,-0.9429,-0.0811
5.1560,-0.2349,-0.9429,-0.0811
5.1720,-0.2163,-0.9605,-0.0897
5.1730,-0.2163,-0.9605,-0.0897
5.1730,-0.2163,-0.9605,-0.0897
5.1920,-0.1940,-0.9697,-0.0770
5.2080,-0.1940,-0.9697,-0.0770
5.2090,-0.1940,-0.9697,-0.0770
5.2340,-0.1936,-0.9492,-0.0841
5.2450,-0.1936,-0.9492,-0.0841
5.2450,-0.1936,-0.9492,-0.0841
5.2700,-0.2075,-0.9282,-0.0692
5.2700,-0.2075,-0.9282,-0.0692
5.2700,-0.2075,-0.9282,-0.0692
5.2730,-0.2075,-0.9282,-0.0692
5.2740,-0.2075,-0.9282,-0.0692
5.2740,-0.2075,-0.9282,-0.0692
5.2750,-0.2207,-0.9231,-0.0437
5.2750,-0.2102,-0.9299,-0.0714
5.2750,-0.2102,-0.9299,-0.0714
5.2750,-0.2102,-0.9299,-0.0714
5.2760,-0.2102,-0.9299,-0.0714
5.2760,-0.2102,-0.9299,-0.0714
5.2760,-0.2102,-0.9299,-0.0714
5.2920,-0.2046,-0.9551,-0.0872
5.2920,-0.2046,-0.9551,-0.0872
5.2930,-0.2046,-0.9551,-0.0872
5.3120,-0.2441,-0.9893,-0.0425
5.3120,-0.2441,-0.9893,-0.0425
5.3510,-0.2441,-0.9893,-0.0425
5.3510,-0.2441,-0.9893,-0.0425
5.3510,-0.2441,-0.9893,-0.0425
5.3510,-0.2586,-0.9634,-0.0418
5.3510,-0.2586,-0.9634,-0.0418
5.3520,-0.2586,-0.9634,-0.0418
5.3520,-0.2243,-0.9299,-0.0552
5.3520,-0.2243,-0.9299,-0.0552
5.3520,-0.2243,-0.9299,-0.0552
5.3720,-0.2097,-0.9270,-0.0638
5.3720,-0.2097,-0.9270,-0.0638
5.3720,-0.2097,-0.9270,-0.0638
5.3920,-0.2121,-0.9338,-0.0684
5.3930,-0.2121,-0.9338,-0.0684
5.3930,-0.2121,-0.9338,-0.0684
5.3940,-0.2121,-0.9338,-0.0684
5.3940,-0.2121,-0.9338,-0.0684
5.4110,-0.2053,-0.9441,-0.0787
5.4110,-0.2053,-0.9441,-0.0787
5.4110,-0.2053,-0.9441,-0.0787
5.4310,-0.2068,-0.9463,-0.0650
5.4310,-0.2068,-0.9463,-0.0650
5.4310,-0.2068,-0.9463,-0.0650
5.4500,-0.2090,-0.9299,-0.0689
5.4510,-0.2090,-0.9299,-0.0689
5.4510,-0.2090,-0.9299,-0.0689
5.4570,-0.2090,-0.9299,-0.0689
5.4710,-0.1982,-0.9155,-0.1132
5.4710,-0.1982,-0.9155,-0.1132
5.4710,-0.1982,-0.9155,-0.1132
5.4740,-0.1982,-0.9155,-0.1132
5.4740,-0.1982,-0.9155,-0.1132
5.4900,-0.2116,-0.9394,-0.0973
5.4910,-0.2116,-0.9394,-0.0973
5.4910,-0.2116,-0.9394,-0.0973
5.5110,-0.2090,-0.9519,-0.0599
5.5110,-0.2090,-0.9519,-0.0599
5.5110,-0.2090,-0.9519,-0.0599
5.5300,-0.2011,-0.9326,-0.0567
5.5300,-0.2011,-0.9326,-0.0567
5.5300,-0.2011,-0.9326,-0.0567
5.5500,-0.2380,-0.9353,-0.0349
5.5500,-0.2380,-0.9353,-0.0349
5.5510,-0.2380,-0.9353,-0.0349
5.5520,-0.2380,-0.9353,-0.0349
5.5520,-0.2380,-0.9353,-0.0349
5.5690,-0.2539,-0.9375,-0.0371
5.5700,-0.2539,-0.9375,-0.0371
5.5700,-0.2539,-0.9375,-0.0371
5.5890,-0.2261,-0.9314,-0.0753
5.5900,-0.2261,-0.9314,-0.0753
5.5900,-0.2261,-0.9314,-0.0753
5.6100,-0.2131,-0.9431,-0.0731
5.6100,-0.2131,-0.9431,-0.0731
5.6110,-0.2131,-0.9431,-0.0731
5.6230,-0.2131,-0.9431,-0.0731
5.6290,-0.2126,-0.9529,-0.0694
5.6290,-0.2126,-0.9529,-0.0694
5.6290,-0.2126,-0.9529,-0.0694
5.6340,-0.2126,-0.9529,-0.0694
5.6340,-0.2126,-0.9529,-0.0694
5.6490,-0.2256,-0.9631,-0.0660
5.6490,-0.2256,-0.9631,-0.0660
5.6490,-0.2256,-0.9631,-0.0660
5.6530,-0.2256,-0.9631,-0.0660
5.6690,-0.1972,-0.9546,-0.0660
5.6690,-0.1972,-0.9546,-0.0660
5.6690,-0.1972,-0.9546,-0.0660
5.6890,-0.1452,-0.9260,-0.1163
5.6890,-0.1452,-0.9260,-0.1163
5.6890,-0.1452,-0.9260,-0.1163
5.7090,-0.1918,-0.9267,-0.1136
5.7090,-0.1918,-0.9267,-0.1136
5.7090,-0.1918,-0.9267,-0.1136
5.7120,-0.1918,-0.9267,-0.1136
5.7120,-0.1918,-0.9267,-0.1136
5.7280,-0.2515,-0.9446,-0.0609
5.7290,-0.2515,-0.9446,-0.0609
5.7290,-0.2515,-0.9446,-0.0609
5.7480,-0.2419,-0.9497,-0.0347
5.7490,-0.2419,-0.9497,-0.0347
5.7490,-0.2419,-0.9497,-0.0347
5.7690,-0.2168,-0.9387,-0.0547
5.7690,-0.2168,-0.9387,-0.0547
5.7690,-0.2168,-0.9387,-0.0547
5.7900,-0.2151,-0.9152,-0.0853
5.7900,-0.2151,-0.9152,-0.0853
5.7910,-0.2151,-0.9152,-0.0853
5.7920,-0.2151,-0.9152,-0.0853
5.7930,-0.2151,-0.9152,-0.0853
5.8100,-0.2138,-0.9211,-0.0836
5.8100,-0.2138,-0.9211,-0.0836
5.8110,-0.2138,-0.9211,-0.0836
5.8290,-0.2383,-0.9583,-0.0477
5.8290,-0.2383,-0.9583,-0.0477
5.8300,-0.2383,-0.9583,-0.0477
5.8490,-0.2265,-0.9367,-0.0604
5.8500,-0.2265,-0.9367,-0.0604
5.8500,-0.2265,-0.9367,-0.0604
5.8530,-0.2265,-0.9367,-0.0604
5.9350,-0.2219,-0.9240,-0.0833
5.9360,-0.2219,-0.9240,-0.0833
5.9360,-0.2219,-0.9240,-0.0833
5.9360,-0.2219,-0.9240,-0.0833
5.9360,-0.2219,-0.9240,-0.0833
5.9360,-0.2317,-0.9495,-0.0650
5.9370,-0.2317,-0.9495,-0.0650
5.9370,-0.2317,-0.9495,-0.0650
5.9370,-0.2158,-0.9558,-0.0653
5.9370,-0.2158,-0.9558,-0.0653
5.9370,-0.2158,-0.9558,-0.0653
5.9370,-0.2043,-0.9319,-0.0978
5.9380,-0.2043,-0.9319,-0.0978
5.9380,-0.2043,-0.9319,-0.0978
5.9480,-0.2036,-0.9174,-0.0926
5.9480,-0.2036,-0.9174,-0.0926
5.9480,-0.2036,-0.9174,-0.0926
5.9500,-0.2036,-0.9174,-0.0926
5.9510,-0.2036,-0.9174,-0.0926
5.9670,-0.2153,-0.9490,-0.0657
5.9670,-0.2153,-0.9490,-0.0657
5.9670,-0.2153,-0.9490,-0.0657
5.9860,-0.2190,-0.9675,-0.0508
5.9870,-0.2190,-0.9675,-0.0508
5.9870,-0.2190,-0.9675,-0.0508
6.0070,-0.1997,-0.9553,-0.0496
6.0070,-0.1997,-0.9553,-0.0496
6.0070,-0.1997,-0.9553,-0.0496
6.0260,-0.1874,-0.9455,-0.0420
6.0270,-0.1874,-0.9455,-0.0420
6.0270,-0.1874,-0.9455,-0.0420
6.0300,-0.1874,-0.9455,-0.0420
6.0300,-0.1874,-0.9455,-0.0420
6.0460,-0.2080,-0.9392,-0.0406
6.0470,-0.2080,-0.9392,-0.0406
6.0470,-0.2080,-0.9392,-0.0406
6.0490,-0.2080,-0.9392,-0.0406
6.0660,-0.2251,-0.9458,-0.0491
6.0670,-0.2251,-0.9458,-0.0491
6.0670,-0.2251,-0.9458,-0.0491
6.0870,-0.2165,-0.9609,-0.0489
6.0880,-0.2165,-0.9609,-0.0489
6.0890,-0.2165,-0.9609,-0.0489
6.1110,-0.2207,-0.9590,-0.0503
6.1110,-0.2207,-0.9590,-0.0503
6.1120,-0.2207,-0.9590,-0.0503
6.1120,-0.2207,-0.9590,-0.0503
6.1130,-0.2207,-0.9590,-0.0503
6.1280,-0.2300,-0.9468,-0.0743
6.1280,-0.2300,-0.9468,-0.0743
6.1290,-0.2300,-0.9468,-0.0743
6.1480,-0.2192,-0.9402,-0.0833
6.1490,-0.2192,-0.9402,-0.0833
6.1490,-0.2192,-0.9402,-0.0833
6.1690,-0.2138,-0.9326,-0.0877
6.1700,-0.2138,-0.9326,-0.0877
6.1700,-0.2138,-0.9326,-0.0877
6.1890,-0.2136,-0.9294,-0.0799
6.1910,-0.2136,-0.9294,-0.0799
6.1910,-0.2136,-0.9294,-0.0799
6.1920,-0.2136,-0.9294,-0.0799
6.1930,-0.2136,-0.9294,-0.0799
6.2070,-0.2087,-0.9367,-0.0543
6.2080,-0.2087,-0.9367,-0.0543
6.2080,-0.2087,-0.9367,-0.0543
6.2270,-0.2170,-0.9350,-0.0660
6.2280,-0.2170,-0.9350,-0.0660
6.2280,-0.2170,-0.9350,-0.0660
6.2470,-0.2248,-0.9260,-0.0919
6.2490,-0.2248,-0.9260,-0.0919
6.2490,-0.2248,-0.9260,-0.0919
6.2500,-0.2248,-0.9260,-0.0919
6.2690,-0.2114,-0.9431,-0.0890
6.2750,-0.2114,-0.9431,-0.0890
6.2750,-0.2114,-0.9431,-0.0890
6.2760,-0.2114,-0.9431,-0.0890
6.2760,-0.2114,-0.9431,-0.0890
6.2880,-0.2090,-0.9592,-0.0626
6.2890,-0.2090,-0.9592,-0.0626
6.2890,-0.2090,-0.9592,-0.0626
6.3090,-0.2058,-0.9497,-0.0423
6.3100,-0.2058,-0.9497,-0.0423
6.3110,-0.2058,-0.9497,-0.0423
6.3260,-0.1972,-0.9321,-0.0574
6.3270,-0.1972,-0.9321,-0.0574
6.3270,-0.1972,-0.9321,-0.0574
6.3490,-0.1884,-0.9206,-0.0934
6.3500,-0.1884,-0.9206,-0.0934
6.3530,-0.1884,-0.9206,-0.0934
6.3530,-0.1884,-0.9206,-0.0934
6.3540,-0.1884,-0.9206,-0.0934
6.3680,-0.2046,-0.9441,-0.0574
6.3680,-0.2046,-0.9441,-0.0574
6.3690,-0.2046,-0.9441,-0.0574
6.3900,-0.2251,-0.9712,-0.0071
6.3910,-0.2251,-0.9712,-0.0071
6.3920,-0.2251,-0.9712,-0.0071
6.4100,-0.1786,-0.9416,-0.0503
6.4120,-0.1786,-0.9416,-0.0503
6.4130,-0.1786,-0.9416,-0.0503
6.4800,-0.1940,-0.9365,-0.0904
6.4810,-0.1940,-0.9365,-0.0904
6.4810,-0.1940,-0.9365,-0.0904
6.4830,-0.1940,-0.9365,-0.0904
6.4830,-0.1940,-0.9365,-0.0904
6.4830,-0.2437,-0.9536,-0.0599
6.4840,-0.2437,-0.9536,-0.0599
6.4840,-0.2437,-0.9536,-0.0599
6.4840,-0.2437,-0.9536,-0.0599
6.4860,-0.2549,-0.9441,-0.0594
6.4860,-0.2549,-0.9441,-0.0594
6.4870,-0.2549,-0.9441,-0.0594
6.4870,-0.2055,-0.9221,-0.0926
6.4870,-0.2055,-0.9221,-0.0926
6.4870,-0.2055,-0.9221,-0.0926
6.5050,-0.1953,-0.9370,-0.0743
6.5050,-0.1953,-0.9370,-0.0743
6.5060,-0.1953,-0.9370,-0.0743
6.5070,-0.1953,-0.9370,-0.0743
6.5070,-0.1953,-0.9370,-0.0743
6.5250,-0.1955,-0.9597,-0.0472
6.5250,-0.1955,-0.9597,-0.0472
6.5250,-0.1955,-0.9597,-0.0472
6.5440,-0.2038,-0.9377,-0.0831
6.5440,-0.2038,-0.9377,-0.0831
6.5440,-0.2038,-0.9377,-0.0831
6.5660,-0.2070,-0.9260,-0.1090
6.5660,-0.2070,-0.9260,-0.1090
6.5660,-0.2070,-0.9260,-0.1090
6.5840,-0.2297,-0.9431,-0.0777
6.5840,-0.2297,-0.9431,-0.0777
6.5840,-0.2297,-0.9431,-0.0777
6.5860,-0.2297,-0.9431,-0.0777
6.5860,-0.2297,-0.9431,-0.0777
6.6040,-0.2173,-0.9536,-0.0359
6.6040,-0.2173,-0.9536,-0.0359
6.6040,-0.2173,-0.9536,-0.0359
6.6230,-0.2024,-0.9607,-0.0315
6.6230,-0.2024,-0.9607,-0.0315
6.6240,-0.2024,-0.9607,-0.0315
6.6440,-0.2006,-0.9517,-0.0433
6.6440,-0.2006,-0.9517,-0.0433
6.6440,-0.2006,-0.9517,-0.0433
6.6450,-0.2006,-0.9517,-0.0433
6.6630,-0.2383,-0.9326,-0.0440
6.6640,-0.2383,-0.9326,-0.0440
6.6640,-0.2383,-0.9326,-0.0440
6.6660,-0.2383,-0.9326,-0.0440
6.6660,-0.2383,-0.9326,-0.0440
6.6830,-0.2498,-0.9382,-0.0398
6.6840,-0.2498,-0.9382,-0.0398
6.6840,-0.2498,-0.9382,-0.0398
6.7030,-0.1894,-0.9519,-0.0665
6.7030,-0.1894,-0.9519,-0.0665
6.7040,-0.1894,-0.9519,-0.0665
6.7250,-0.1630,-0.9570,-0.0858
6.7250,-0.1630,-0.9570,-0.0858
6.7260,-0.1630,-0.9570,-0.0858
6.7440,-0.1921,-0.9614,-0.0538
6.7450,-0.1921,-0.9614,-0.0538
6.7450,-0.1921,-0.9614,-0.0538
6.7460,-0.1921,-0.9614,-0.0538
6.7460,-0.1921,-0.9614,-0.0538
6.7640,-0.2285,-0.9504,-0.0506
6.7640,-0.2285,-0.9504,-0.0506
6.7650,-0.2285,-0.9504,-0.0506
6.7860,-0.2383,-0.9301,-0.0623
6.7880,-0.2383,-0.9301,-0.0623
6.7890,-0.2383,-0.9301,-0.0623
6.8040,-0.2148,-0.9206,-0.0613
6.8050,-0.2148,-0.9206,-0.0613
6.8060,-0.2148,-0.9206,-0.0613
6.8250,-0.1867,-0.9316,-0.0574
6.8280,-0.1867,-0.9316,-0.0574
6.8310,-0.1867,-0.9316,-0.0574
6.8320,-0.1867,-0.9316,-0.0574
6.8320,-0.1867,-0.9316,-0.0574
6.8510,-0.2246,-0.9534,-0.0327
6.8520,-0.2246,-0.9534,-0.0327
6.8520,-0.2246,-0.9534,-0.0327
6.8550,-0.2246,-0.9534,-0.0327
6.8660,-0.2329,-0.9443,-0.0154
6.8670,-0.2329,-0.9443,-0.0154
6.8670,-0.2329,-0.9443,-0.0154
6.8830,-0.1818,-0.9231,-0.0494
6.8830,-0.1818,-0.9231,-0.0494
6.8840,-0.1818,-0.9231,-0.0494
6.9020,-0.1860,-0.9465,-0.0550
6.9030,-0.1860,-0.9465,-0.0550
6.9030,-0.1860,-0.9465,-0.0550
6.9060,-0.1860,-0.9465,-0.0550
6.9060,-0.1860,-0.9465,-0.0550
6.9230,-0.1889,-0.9649,-0.0393
6.9230,-0.1889,-0.9649,-0.0393
6.9240,-0.1889,-0.9649,-0.0393
6.9440,-0.2273,-0.9409,-0.0860
6.9450,-0.2273,-0.9409,-0.0860
6.9460,-0.2273,-0.9409,-0.0860
6.9640,-0.2600,-0.9309,-0.1149
6.9650,-0.2600,-0.9309,-0.1149
7.0340,-0.2600,-0.9309,-0.1149
7.0340,-0.2331,-0.9580,-0.0765
7.0340,-0.2331,-0.9580,-0.0765
7.0340,-0.2331,-0.9580,-0.0765
7.0340,-0.2331,-0.9580,-0.0765
7.0350,-0.2331,-0.9580,-0.0765
7.0350,-0.1865,-0.9614,-0.0481
7.0350,-0.1865,-0.9614,-0.0481
7.0350,-0.1865,-0.9614,-0.0481
7.0350,-0.1777,-0.9353,-0.0543
7.0360,-0.1777,-0.9353,-0.0543
7.0360,-0.1777,-0.9353,-0.0543
7.0410,-0.1987,-0.9194,-0.0723
7.0410,-0.1987,-0.9194,-0.0723
7.0410,-0.1987,-0.9194,-0.0723
7.0430,-0.1987,-0.9194,-0.0723
7.0610,-0.2222,-0.9345,-0.0741
7.0620,-0.2222,-0.9345,-0.0741
7.0620,-0.2222,-0.9345,-0.0741
7.0640,-0.2222,-0.9345,-0.0741
7.0640,-0.2222,-0.9345,-0.0741
7.0810,-0.2525,-0.9612,-0.0499
7.0820,-0.2525,-0.9612,-0.0499
7.0820,-0.2525,-0.9612,-0.0499
7.1020,-0.2459,-0.9705,-0.0240
7.1030,-0.2459,-0.9705,-0.0240
7.1030,-0.2459,-0.9705,-0.0240
7.1230,-0.2151,-0.9480,-0.0335
7.1240,-0.2151,-0.9480,-0.0335
7.1240,-0.2151,-0.9480,-0.0335
7.1410,-0.2195,-0.9172,-0.0345
7.1420,-0.2195,-0.9172,-0.0345
7.1430,-0.2195,-0.9172,-0.0345
7.1440,-0.2195,-0.9172,-0.0345
7.1440,-0.2195,-0.9172,-0.0345
7.1600,-0.1982,-0.9140,-0.0609
7.1600,-0.1982,-0.9140,-0.0609
7.1610,-0.1982,-0.9140,-0.0609
7.1800,-0.1901,-0.9360,-0.0726
7.1800,-0.1901,-0.9360,-0.0726
7.1800,-0.1901,-0.9360,-0.0726
7.2020,-0.2380,-0.9607,-0.0313
7.2030,-0.2380,-0.9607,-0.0313
7.2030,-0.2380,-0.9607,-0.0313
7.2200,-0.2424,-0.9499,-0.0254
7.2200,-0.2424,-0.9499,-0.0254
7.2200,-0.2424,-0.9499,-0.0254
7.2230,-0.2424,-0.9499,-0.0254
7.2230,-0.2424,-0.9499,-0.0254
7.2400,-0.1804,-0.9262,-0.0760
7.2400,-0.1804,-0.9262,-0.0760
7.2400,-0.1804,-0.9262,-0.0760
7.2400,-0.1804,-0.9262,-0.0760
7.2600,-0.1613,-0.9257,-0.0963
7.2600,-0.1613,-0.9257,-0.0963
7.2600,-0.1613,-0.9257,-0.0963
7.2800,-0.2048,-0.9509,-0.0303
7.2810,-0.2048,-0.9509,-0.0303
7.2810,-0.2048,-0.9509,-0.0303
7.3030,-0.2388,-0.9548,-0.0181
7.3040,-0.2388,-0.9548,-0.0181
7.3050,-0.2388,-0.9548,-0.0181
7.3060,-0.2388,-0.9548,-0.0181
7.3060,-0.2388,-0.9548,-0.0181
7.3200,-0.2214,-0.9341,-0.0621
7.3200,-0.2214,-0.9341,-0.0621
7.3210,-0.2214,-0.9341,-0.0621
7.3400,-0.2143,-0.9394,-0.0601
7.3400,-0.2143,-0.9394,-0.0601
7.3410,-0.2143,-0.9394,-0.0601
7.3620,-0.2163,-0.9534,-0.0257
7.3630,-0.2163,-0.9534,-0.0257
7.3630,-0.2163,-0.9534,-0.0257
7.3820,-0.2275,-0.9446,-0.0288
7.3830,-0.2275,-0.9446,-0.0288
7.3840,-0.2275,-0.9446,-0.0288
7.3870,-0.2275,-0.9446,-0.0288
7.3880,-0.2275,-0.9446,-0.0288
7.4030,-0.2603,-0.9108,-0.0638
7.4030,-0.2603,-0.9108,-0.0638
7.4040,-0.2603,-0.9108,-0.0638
7.4200,-0.2478,-0.8998,-0.1185
7.4210,-0.2478,-0.8998,-0.1185
7.4210,-0.2478,-0.8998,-0.1185
7.4410,-0.1931,-0.9331,-0.1303
7.4410,-0.1931,-0.9331,-0.1303
7.4420,-0.1931,-0.9331,-0.1303
7.4420,-0.1931,-0.9331,-0.1303
7.4620,-0.1848,-0.9754,-0.0711
7.4630,-0.1848,-0.9754,-0.0711
7.4640,-0.1848,-0.9754,-0.0711
7.4650,-0.1848,-0.9754,-0.0711
7.4680,-0.1848,-0.9754,-0.0711
7.4810,-0.2097,-0.9954,-0.0088
7.4820,-0.2097,-0.9954,-0.0088
7.4820,-0.2097,-0.9954,-0.0088
7.5060,-0.1926,-0.9392,-0.0540
7.5060,-0.1926,-0.9392,-0.0540
7.5070,-0.1926,-0.9392,-0.0540
7.5210,-0.2107,-0.9023,-0.0899
7.5970,-0.2107,-0.9023,-0.0899
7.5970,-0.2107,-0.9023,-0.0899
7.5970,-0.2375,-0.9421,-0.0450
7.5970,-0.2375,-0.9421,-0.0450
7.5980,-0.2375,-0.9421,-0.0450
7.5980,-0.2375,-0.9421,-0.0450
7.5980,-0.2375,-0.9421,-0.0450
7.5980,-0.2253,-0.9751,-0.0078
7.5990,-0.2253,-0.9751,-0.0078
7.5990,-0.2253,-0.9751,-0.0078
7.5990,-0.2204,-0.9732,-0.0095
7.5990,-0.2204,-0.9732,-0.0095
7.5990,-0.2204,-0.9732,-0.0095
7.6000,-0.2136,-0.9543,-0.0345
7.6000,-0.2136,-0.9543,-0.0345
7.6000,-0.2136,-0.9543,-0.0345
7.6180,-0.1904,-0.9336,-0.0741
7.6180,-0.1904,-0.9336,-0.0741
7.6190,-0.1904,-0.9336,-0.0741
7.6210,-0.1904,-0.9336,-0.0741
7.6210,-0.1904,-0.9336,-0.0741
7.6390,-0.1835,-0.9319,-0.0828
7.6390,-0.1835,-0.9319,-0.0828
7.6390,-0.1835,-0.9319,-0.0828
7.6400,-0.1835,-0.9319,-0.0828
7.6610,-0.1945,-0.9419,-0.0699
7.6610,-0.1945,-0.9419,-0.0699
7.6620,-0.1945,-0.9419,-0.0699
7.6790,-0.2090,-0.9399,-0.0753
7.6790,-0.2090,-0.9399,-0.0753
7.6790,-0.2090,-0.9399,-0.0753
7.7000,-0.2258,-0.9350,-0.0767
7.7010,-0.2258,-0.9350,-0.0767
7.7020,-0.2258,-0.9350,-0.0767
7.7030,-0.2258,-0.9350,-0.0767
7.7040,-0.2258,-0.9350,-0.0767
7.7190,-0.2349,-0.9292,-0.0782
7.7190,-0.2349,-0.9292,-0.0782
7.7200,-0.2349,-0.9292,-0.0782
7.7360,-0.2280,-0.9255,-0.0633
7.7360,-0.2280,-0.9255,-0.0633
7.7370,-0.2280,-0.9255,-0.0633
7.7570,-0.2165,-0.9238,-0.0425
7.7570,-0.2165,-0.9238,-0.0425
7.7570,-0.2165,-0.9238,-0.0425
7.7760,-0.2019,-0.9323,-0.0362
7.7760,-0.2019,-0.9323,-0.0362
7.7770,-0.2019,-0.9323,-0.0362
7.7790,-0.2019,-0.9323,-0.0362
7.7800,-0.2019,-0.9323,-0.0362
7.7960,-0.1945,-0.9316,-0.0533
7.7960,-0.1945,-0.9316,-0.0533
7.7960,-0.1945,-0.9316,-0.0533
7.8160,-0.2200,-0.9404,-0.0611
7.8160,-0.2200,-0.9404,-0.0611
7.8160,-0.2200,-0.9404,-0.0611
7.8360,-0.2312,-0.9573,-0.0418
7.8360,-0.2312,-0.9573,-0.0418
7.8360,-0.2312,-0.9573,-0.0418
7.8360,-0.2312,-0.9573,-0.0418
7.8560,-0.2344,-0.9580,-0.0423
7.8570,-0.2344,-0.9580,-0.0423
7.8570,-0.2344,-0.9580,-0.0423
7.8590,-0.2344,-0.9580,-0.0423
7.8590,-0.2344,-0.9580,-0.0423
7.8770,-0.2229,-0.9465,-0.0736
7.8770,-0.2229,-0.9465,-0.0736
7.8780,-0.2229,-0.9465,-0.0736
7.8980,-0.2046,-0.9480,-0.0846
7.8980,-0.2046,-0.9480,-0.0846
7.8980,-0.2046,-0.9480,-0.0846
7.9170,-0.1904,-0.9541,-0.0550
7.9170,-0.1904,-0.9541,-0.0550
7.9170,-0.1904,-0.9541,-0.0550
7.9390,-0.2011,-0.9490,-0.0352
7.9390,-0.2011,-0.9490,-0.0352
7.9400,-0.2011,-0.9490,-0.0352
7.9410,-0.2011,-0.9490,-0.0352
7.9410,-0.2011,-0.9490,-0.0352
7.9590,-0.2165,-0.9399,-0.0682
7.9590,-0.2165,-0.9399,-0.0682
7.9590,-0.2165,-0.9399,-0.0682
7.9780,-0.2065,-0.9451,-0.0863
7.9790,-0.2065,-0.9451,-0.0863
7.9790,-0.2065,-0.9451,-0.0863
7.9970,-0.2087,-0.9578,-0.0621
7.9980,-0.2087,-0.9578,-0.0621
7.9990,-0.2087,-0.9578,-0.0621
8.0190,-0.2251,-0.9490,-0.0464
8.0200,-0.2251,-0.9490,-0.0464
8.0200,-0.2251,-0.9490,-0.0464
8.0210,-0.2251,-0.9490,-0.0464
8.0220,-0.2251,-0.9490,-0.0464
8.0370,-0.2312,-0.9429,-0.0503
8.0390,-0.2312,-0.9429,-0.0503
8.0400,-0.2312,-0.9429,-0.0503
8.0410,-0.2312,-0.9429,-0.0503
8.0560,-0.2312,-0.9433,-0.0528
8.0560,-0.2312,-0.9433,-0.0528
8.0560,-0.2312,-0.9433,-0.0528
8.1090,-0.2092,-0.9507,-0.0425
8.1100,-0.2092,-0.9507,-0.0425
8.1100,-0.2092,-0.9507,-0.0425
8.1100,-0.1896,-0.9509,-0.0425
8.1100,-0.1896,-0.9509,-0.0425
8.1100,-0.1896,-0.9509,-0.0425
8.1100,-0.1896,-0.9509,-0.0425
8.1110,-0.1896,-0.9509,-0.0425
8.1140,-0.2251,-0.9429,-0.0481
8.1140,-0.2251,-0.9429,-0.0481
8.1150,-0.2251,-0.9429,-0.0481
8.1350,-0.2586,-0.9326,-0.0719
8.1350,-0.2586,-0.9326,-0.0719
8.1350,-0.2586,-0.9326,-0.0719
8.1560,-0.2468,-0.9433,-0.0714
8.1560,-0.2468,-0.9433,-0.0714
8.1570,-0.2468,-0.9433,-0.0714
8.1750,-0.2358,-0.9565,-0.0357
8.1760,-0.2358,-0.9565,-0.0357
8.1760,-0.2358,-0.9565,-0.0357
8.1790,-0.2358,-0.9565,-0.0357
8.1790,-0.2358,-0.9565,-0.0357
8.1970,-0.2373,-0.9416,-0.0499
8.1970,-0.2373,-0.9416,-0.0499
8.1980,-0.2373,-0.9416,-0.0499
8.2170,-0.2214,-0.9138,-0.0899
8.2170,-0.2214,-0.9138,-0.0899
8.2180,-0.2214,-0.9138,-0.0899
8.2360,-0.2214,-0.9138,-0.0899
8.2360,-0.1914,-0.9265,-0.0704
8.2360,-0.1914,-0.9265,-0.0704
8.2370,-0.1914,-0.9265,-0.0704
8.2550,-0.1735,-0.9607,-0.0384
8.2570,-0.1735,-0.9607,-0.0384
8.2570,-0.1735,-0.9607,-0.0384
8.2580,-0.1735,-0.9607,-0.0384
8.2590,-0.1735,-0.9607,-0.0384
8.2760,-0.1672,-0.9490,-0.0452
8.2770,-0.1672,-0.9490,-0.0452
8.2770,-0.1672,-0.9490,-0.0452
8.2980,-0.1860,-0.9282,-0.0494
8.2990,-0.1860,-0.9282,-0.0494
8.2990,-0.1860,-0.9282,-0.0494
8.3160,-0.2153,-0.9279,-0.0538
8.3170,-0.2153,-0.9279,-0.0538
8.3170,-0.2153,-0.9279,-0.0538
8.3340,-0.2077,-0.9267,-0.0838
8.3340,-0.2077,-0.9267,-0.0838
8.3350,-0.2077,-0.9267,-0.0838
8.3370,-0.2077,-0.9267,-0.0838
8.3370,-0.2077,-0.9267,-0.0838
8.3530,-0.2004,-0.9277,-0.0853
8.3530,-0.2004,-0.9277,-0.0853
8.3540,-0.2004,-0.9277,-0.0853
8.3740,-0.2163,-0.9287,-0.0628
8.3740,-0.2163,-0.9287,-0.0628
8.3740,-0.2163,-0.9287,-0.0628
8.3920,-0.2256,-0.9279,-0.0872
8.3920,-0.2256,-0.9279,-0.0872
8.3920,-0.2256,-0.9279,-0.0872
8.4120,-0.2344,-0.9309,-0.1161
8.4120,-0.2344,-0.9309,-0.1161
8.4130,-0.2344,-0.9309,-0.1161
8.4150,-0.2344,-0.9309,-0.1161
8.4160,-0.2344,-0.9309,-0.1161
8.4310,-0.2344,-0.9309,-0.1161
8.4320,-0.2388,-0.9421,-0.0926
8.4480,-0.2388,-0.9421,-0.0926
8.4480,-0.2388,-0.9421,-0.0926
8.4740,-0.2454,-0.9492,-0.0440
8.4850,-0.2454,-0.9492,-0.0440
8.4850,-0.2454,-0.9492,-0.0440
8.5130,-0.2422,-0.9512,-0.0230
8.5130,-0.2422,-0.9512,-0.0230
8.5130,-0.2422,-0.9512,-0.0230
8.5130,-0.2151,-0.9639,-0.0220
8.5130,-0.2248,-0.9700,-0.0086
8.5140,-0.2248,-0.9700,-0.0086
8.5140,-0.2248,-0.9700,-0.0086
8.5140,-0.2248,-0.9700,-0.0086
8.5140,-0.2248,-0.9700,-0.0086
8.5170,-0.2248,-0.9700,-0.0086
8.5180,-0.2248,-0.9700,-0.0086
8.5360,-0.2390,-0.9524,-0.0056
8.5360,-0.2390,-0.9524,-0.0056
8.5360,-0.2390,-0.9524,-0.0056
8.5530,-0.2087,-0.9433,-0.0345
8.5530,-0.2087,-0.9433,-0.0345
8.5530,-0.2087,-0.9433,-0.0345
8.5740,-0.1984,-0.9570,-0.0550
8.5740,-0.1984,-0.9570,-0.0550
8.5740,-0.1984,-0.9570,-0.0550
8.5760,-0.1984,-0.9570,-0.0550
8.5760,-0.1984,-0.9570,-0.0550
8.5940,-0.1911,-0.9663,-0.0503
8.5940,-0.1911,-0.9663,-0.0503
8.5950,-0.1911,-0.9663,-0.0503
8.6130,-0.2026,-0.9592,-0.0547
8.6130,-0.2026,-0.9592,-0.0547
8.6140,-0.2026,-0.9592,-0.0547
8.6770,-0.2158,-0.9465,-0.0704
8.6770,-0.2158,-0.9465,-0.0704
8.6770,-0.2158,-0.9465,-0.0704
8.6770,-0.2158,-0.9465,-0.0704
8.6780,-0.2038,-0.9279,-0.0899
8.6780,-0.2038,-0.9279,-0.0899
8.6780,-0.2038,-0.9279,-0.0899
8.6780,-0.2038,-0.9279,-0.0899
8.6790,-0.2038,-0.9279,-0.0899
8.6800,-0.1870,-0.9189,-0.0973
8.6810,-0.1870,-0.9189,-0.0973
8.6810,-0.1870,-0.9189,-0.0973
8.6950,-0.2226,-0.9426,-0.0484
8.6950,-0.2226,-0.9426,-0.0484
8.6960,-0.2226,-0.9426,-0.0484
8.7110,-0.2163,-0.9438,-0.0254
8.7120,-0.2163,-0.9438,-0.0254
8.7120,-0.2163,-0.9438,-0.0254
8.7310,-0.1764,-0.9086,-0.0623
8.7310,-0.1764,-0.9086,-0.0623
8.7310,-0.1764,-0.9086,-0.0623
8.7350,-0.1764,-0.9086,-0.0623
8.7350,-0.1764,-0.9086,-0.0623
8.7520,-0.2219,-0.9045,-0.0692
8.7520,-0.2219,-0.9045,-0.0692
8.7520,-0.2219,-0.9045,-0.0692
8.7720,-0.2415,-0.9348,-0.0577
8.7720,-0.2415,-0.9348,-0.0577
8.7730,-0.2415,-0.9348,-0.0577
8.7920,-0.2099,-0.9341,-0.0919
8.7940,-0.2099,-0.9341,-0.0919
8.7950,-0.2099,-0.9341,-0.0919
8.8120,-0.2119,-0.9275,-0.0897
8.8130,-0.2119,-0.9275,-0.0897
8.8130,-0.2119,-0.9275,-0.0897
8.8150,-0.2119,-0.9275,-0.0897
8.8160,-0.2119,-0.9275,-0.0897
8.8320,-0.2146,-0.9394,-0.0547
8.8320,-0.2146,-0.9394,-0.0547
8.8330,-0.2146,-0.9394,-0.0547
8.8330,-0.2146,-0.9394,-0.0547
8.8510,-0.1997,-0.9409,-0.0601
8.8520,-0.1997,-0.9409,-0.0601
8.8520,-0.1997,-0.9409,-0.0601
8.8710,-0.1936,-0.9392,-0.0648
8.8720,-0.1936,-0.9392,-0.0648
8.8730,-0.1936,-0.9392,-0.0648
8.8920,-0.1960,-0.9495,-0.0574
8.8920,-0.1960,-0.9495,-0.0574
8.8930,-0.1960,-0.9495,-0.0574
8.8950,-0.1960,-0.9495,-0.0574
8.8960,-0.1960,-0.9495,-0.0574
8.9120,-0.2092,-0.9561,-0.0374
8.9130,-0.2092,-0.9561,-0.0374
8.9130,-0.2092,-0.9561,-0.0374
8.9310,-0.2314,-0.9556,-0.0183
8.9310,-0.2314,-0.9556,-0.0183
8.9310,-0.2314,-0.9556,-0.0183
8.9500,-0.2393,-0.9597,-0.0308
8.9500,-0.2393,-0.9597,-0.0308
8.9500,-0.2393,-0.9597,-0.0308
8.9690,-0.2324,-0.9519,-0.0503
8.9700,-0.2324,-0.9519,-0.0503
8.9700,-0.2324,-0.9519,-0.0503
8.9720,-0.2324,-0.9519,-0.0503
8.9720,-0.2324,-0.9519,-0.0503
8.9900,-0.2131,-0.9433,-0.0677
8.9910,-0.2131,-0.9433,-0.0677
8.9910,-0.2131,-0.9433,-0.0677
9.0090,-0.2002,-0.9507,-0.0623
9.0090,-0.2002,-0.9507,-0.0623
9.0090,-0.2002,-0.9507,-0.0623
9.0300,-0.2002,-0.9507,-0.0623
9.0300,-0.2151,-0.9590,-0.0469
9.0310,-0.2151,-0.9590,-0.0469
9.0310,-0.2151,-0.9590,-0.0469
9.0500,-0.2341,-0.9495,-0.0398
9.0500,-0.2341,-0.9495,-0.0398
9.0510,-0.2341,-0.9495,-0.0398
9.0520,-0.2341,-0.9495,-0.0398
9.0520,-0.2341,-0.9495,-0.0398
9.0690,-0.2368,-0.9277,-0.0501
9.0690,-0.2368,-0.9277,-0.0501
9.0690,-0.2368,-0.9277,-0.0501
9.0890,-0.2138,-0.9189,-0.0701
9.0890,-0.2138,-0.9189,-0.0701
9.0890,-0.2138,-0.9189,-0.0701
9.1080,-0.1767,-0.9389,-0.0780
9.1090,-0.1767,-0.9389,-0.0780
9.1090,-0.1767,-0.9389,-0.0780
9.1300,-0.1928,-0.9678,-0.0513
9.1300,-0.1928,-0.9678,-0.0513
9.1310,-0.1928,-0.9678,-0.0513
9.1320,-0.1928,-0.9678,-0.0513
9.1330,-0.1928,-0.9678,-0.0513
9.1490,-0.2268,-0.9649,-0.0198
9.1500,-0.2268,-0.9649,-0.0198
9.1500,-0.2268,-0.9649,-0.0198
9.1690,-0.2231,-0.9360,-0.0359
9.1700,-0.2231,-0.9360,-0.0359
9.2240,-0.2231,-0.9360,-0.0359
9.2250,-0.2224,-0.9074,-0.0665
9.2260,-0.2224,-0.9074,-0.0665
9.2260,-0.2224,-0.9074,-0.0665
9.2260,-0.2246,-0.9162,-0.0758
9.2260,-0.2246,-0.9162,-0.0758
9.2270,-0.2246,-0.9162,-0.0758
9.2270,-0.2246,-0.9162,-0.0758
9.2280,-0.2246,-0.9162,-0.0758
9.2280,-0.2246,-0.9162,-0.0758
9.2290,-0.2219,-0.9453,-0.0777
9.2290,-0.2219,-0.9453,-0.0777
9.2290,-0.2219,-0.9453,-0.0777
9.2480,-0.2202,-0.9590,-0.0804
9.2480,-0.2202,-0.9590,-0.0804
9.2480,-0.2202,-0.9590,-0.0804
9.2680,-0.2200,-0.9407,-0.0826
9.2680,-0.2200,-0.9407,-0.0826
9.2680,-0.2200,-0.9407,-0.0826
9.2880,-0.2055,-0.9257,-0.0728
9.2880,-0.2055,-0.9257,-0.0728
9.2890,-0.2055,-0.9257,-0.0728
9.2910,-0.2055,-0.9257,-0.0728
9.2910,-0.2055,-0.9257,-0.0728
9.3070,-0.2004,-0.9350,-0.0494
9.3080,-0.2004,-0.9350,-0.0494
9.3080,-0.2004,-0.9350,-0.0494
9.3280,-0.2119,-0.9416,-0.0386
9.3290,-0.2119,-0.9416,-0.0386
9.3290,-0.2119,-0.9416,-0.0386
9.3480,-0.2444,-0.9402,-0.0332
9.3490,-0.2444,-0.9402,-0.0332
9.3490,-0.2444,-0.9402,-0.0332
9.3680,-0.2598,-0.9416,-0.0205
9.3690,-0.2598,-0.9416,-0.0205
9.3690,-0.2598,-0.9416,-0.0205
9.3700,-0.2598,-0.9416,-0.0205
9.3710,-0.2598,-0.9416,-0.0205
9.3890,-0.2402,-0.9504,-0.0178
9.3900,-0.2402,-0.9504,-0.0178
9.3900,-0.2402,-0.9504,-0.0178
9.4080,-0.2187,-0.9546,-0.0345
9.4090,-0.2187,-0.9546,-0.0345
9.4100,-0.2187,-0.9546,-0.0345
9.4270,-0.2187,-0.9546,-0.0345
9.4280,-0.2058,-0.9409,-0.0582
9.4280,-0.2058,-0.9409,-0.0582
9.4290,-0.2058,-0.9409,-0.0582
9.4490,-0.2055,-0.9375,-0.0591
9.4490,-0.2055,-0.9375,-0.0591
9.4500,-0.2055,-0.9375,-0.0591
9.4500,-0.2055,-0.9375,-0.0591
9.4500,-0.2055,-0.9375,-0.0591
9.4730,-0.2163,-0.9517,-0.0442
9.4730,-0.2163,-0.9517,-0.0442
9.4740,-0.2163,-0.9517,-0.0442
9.4890,-0.2148,-0.9460,-0.0591
9.4900,-0.2148,-0.9460,-0.0591
9.4900,-0.2148,-0.9460,-0.0591
9.5150,-0.1989,-0.9358,-0.0723
9.5160,-0.1989,-0.9358,-0.0723
9.5170,-0.1989,-0.9358,-0.0723
9.5270,-0.2129,-0.9429,-0.0506
9.5280,-0.2129,-0.9429,-0.0506
9.5290,-0.2129,-0.9429,-0.0506
9.5290,-0.2129,-0.9429,-0.0506
9.5290,-0.2129,-0.9429,-0.0506
9.5460,-0.2119,-0.9517,-0.0418
9.5460,-0.2119,-0.9517,-0.0418
9.5460,-0.2119,-0.9517,-0.0418
9.5650,-0.2124,-0.9485,-0.0523
9.5660,-0.2124,-0.9485,-0.0523
9.5660,-0.2124,-0.9485,-0.0523
9.5860,-0.2173,-0.9409,-0.0442
9.5860,-0.2173,-0.9409,-0.0442
9.5860,-0.2173,-0.9409,-0.0442
9.6050,-0.2405,-0.9323,-0.0452
9.6050,-0.2405,-0.9323,-0.0452
9.6050,-0.2405,-0.9323,-0.0452
9.6080,-0.2405,-0.9323,-0.0452
9.6090,-0.2405,-0.9323,-0.0452
9.6240,-0.2405,-0.9323,-0.0452
9.6260,-0.2380,-0.9343,-0.0679
9.6260,-0.2380,-0.9343,-0.0679
9.6260,-0.2380,-0.9343,-0.0679
9.6450,-0.2234,-0.9262,-0.0941
9.6460,-0.2234,-0.9262,-0.0941
9.6460,-0.2234,-0.9262,-0.0941
9.6660,-0.2163,-0.9243,-0.0968
9.6660,-0.2163,-0.9243,-0.0968
9.6670,-0.2163,-0.9243,-0.0968
9.6860,-0.2148,-0.9397,-0.0682
9.6860,-0.2148,-0.9397,-0.0682
9.6860,-0.2148,-0.9397,-0.0682
9.6890,-0.2148,-0.9397,-0.0682
9.6890,-0.2148,-0.9397,-0.0682
9.7070,-0.2072,-0.9485,-0.0518
9.7080,-0.2072,-0.9485,-0.0518
9.7090,-0.2072,-0.9485,-0.0518
9.7270,-0.2011,-0.9436,-0.0389
9.7880,-0.2011,-0.9436,-0.0389
9.7890,-0.2011,-0.9436,-0.0389
9.7900,-0.2224,-0.9387,-0.0393
9.7900,-0.2224,-0.9387,-0.0393
9.7900,-0.2224,-0.9387,-0.0393
9.7900,-0.2446,-0.9399,-0.0313
9.7900,-0.2446,-0.9399,-0.0313
9.7900,-0.2446,-0.9399,-0.0313
9.7910,-0.2446,-0.9399,-0.0313
9.7910,-0.2446,-0.9399,-0.0313
9.7910,-0.2786,-0.9543,-0.0083
9.7910,-0.2786,-0.9543,-0.0083
9.7920,-0.2786,-0.9543,-0.0083
9.8050,-0.2710,-0.9553,-0.0178
9.8060,-0.2710,-0.9553,-0.0178
9.8060,-0.2710,-0.9553,-0.0178
9.8230,-0.2710,-0.9553,-0.0178
9.8250,-0.2214,-0.9443,-0.0550
9.8250,-0.2214,-0.9443,-0.0550
9.8260,-0.2214,-0.9443,-0.0550
9.8450,-0.2053,-0.9443,-0.0596
9.8450,-0.2053,-0.9443,-0.0596
9.8460,-0.2053,-0.9443,-0.0596
9.8470,-0.2053,-0.9443,-0.0596
9.8480,-0.2053,-0.9443,-0.0596
9.8650,-0.2134,-0.9517,-0.0310
9.8660,-0.2134,-0.9517,-0.0310
9.8660,-0.2134,-0.9517,-0.0310
9.8870,-0.2297,-0.9426,-0.0467
9.8880,-0.2297,-0.9426,-0.0467
9.8880,-0.2297,-0.9426,-0.0467
9.9070,-0.2190,-0.9297,-0.0863
9.9080,-0.2190,-0.9297,-0.0863
9.9090,-0.2190,-0.9297,-0.0863
9.9250,-0.2016,-0.9536,-0.0577
9.9260,-0.2016,-0.9536,-0.0577
9.9260,-0.2016,-0.9536,-0.0577
9.9270,-0.2016,-0.9536,-0.0577
9.9280,-0.2016,-0.9536,-0.0577
9.9470,-0.1857,-0.9741,-0.0191
9.9480,-0.1857,-0.9741,-0.0191
9.9490,-0.1857,-0.9741,-0.0191
9.9670,-0.1874,-0.9421,-0.0367
9.9670,-0.1874,-0.9421,-0.0367
9.9680,-0.1874,-0.9421,-0.0367
9.9870,-0.2153,-0.9118,-0.0425
9.9880,-0.2153,-0.9118,-0.0425
9.9890,-0.2153,-0.9118,-0.0425
10.0070,-0.2287,-0.9240,-0.0347
10.0070,-0.2287,-0.9240,-0.0347
10.0080,-0.2287,-0.9240,-0.0347
10.0080,-0.2287,-0.9240,-0.0347
10.0090,-0.2287,-0.9240,-0.0347
10.0260,-0.2287,-0.9240,-0.0347
10.0270,-0.2410,-0.9385,-0.0623
10.0270,-0.2410,-0.9385,-0.0623
10.0280,-0.2410,-0.9385,-0.0623
10.0470,-0.2419,-0.9284,-0.1000
10.0480,-0.2419,-0.9284,-0.1000
10.0490,-0.2419,-0.9284,-0.1000
10.0680,-0.2371,-0.9157,-0.1244
10.0690,-0.2371,-0.9157,-0.1244
10.0690,-0.2371,-0.9157,-0.1244
10.0870,-0.2126,-0.9223,-0.1066
10.0870,-0.2126,-0.9223,-0.1066
10.0880,-0.2126,-0.9223,-0.1066
10.0890,-0.2126,-0.9223,-0.1066
10.0890,-0.2126,-0.9223,-0.1066
10.1060,-0.2009,-0.9370,-0.0789
10.1060,-0.2009,-0.9370,-0.0789
10.1070,-0.2009,-0.9370,-0.0789
10.1240,-0.2280,-0.9402,-0.0420
10.1240,-0.2280,-0.9402,-0.0420
10.1240,-0.2280,-0.9402,-0.0420
10.1450,-0.2488,-0.9370,-0.0169
10.1460,-0.2488,-0.9370,-0.0169
10.1460,-0.2488,-0.9370,-0.0169
10.1630,-0.2451,-0.9319,-0.0139
10.1640,-0.2451,-0.9319,-0.0139
10.1640,-0.2451,-0.9319,-0.0139
10.1660,-0.2451,-0.9319,-0.0139
10.1660,-0.2451,-0.9319,-0.0139
10.1850,-0.2405,-0.9402,-0.0181
10.1850,-0.2405,-0.9402,-0.0181
10.1850,-0.2405,-0.9402,-0.0181
10.2010,-0.2358,-0.9536,-0.0313
10.2020,-0.2358,-0.9536,-0.0313
10.2020,-0.2358,-0.9536,-0.0313
10.2210,-0.2358,-0.9536,-0.0313
10.2240,-0.2278,-0.9551,-0.0550
10.2240,-0.2278,-0.9551,-0.0550
10.2240,-0.2278,-0.9551,-0.0550
10.2420,-0.2163,-0.9514,-0.0682
10.2420,-0.2163,-0.9514,-0.0682
10.2420,-0.2163,-0.9514,-0.0682
10.2440,-0.2163,-0.9514,-0.0682
10.2440,-0.2163,-0.9514,-0.0682
10.2640,-0.2195,-0.9521,-0.0518
10.2640,-0.2195,-0.9521,-0.0518
10.2640,-0.2195,-0.9521,-0.0518
10.3050,-0.2263,-0.9402,-0.0445
10.3050,-0.2263,-0.9402,-0.0445
10.3050,-0.2263,-0.9402,-0.0445
10.3060,-0.2258,-0.9299,-0.0538
10.3060,-0.2258,-0.9299,-0.0538
10.3060,-0.2258,-0.9299,-0.0538
10.3230,-0.2327,-0.9350,-0.0398
10.3230,-0.2327,-0.9350,-0.0398
10.3240,-0.2327,-0.9350,-0.0398
10.3240,-0.2327,-0.9350,-0.0398
10.3240,-0.2327,-0.9350,-0.0398
10.3440,-0.2390,-0.9475,-0.0298
10.3450,-0.2390,-0.9475,-0.0298
10.3450,-0.2390,-0.9475,-0.0298
10.3620,-0.2451,-0.9475,-0.0367
10.3620,-0.2451,-0.9475,-0.0367
10.3620,-0.2451,-0.9475,-0.0367
10.3820,-0.2437,-0.9328,-0.0528
10.3830,-0.2437,-0.9328,-0.0528
10.3830,-0.2437,-0.9328,-0.0528
10.4050,-0.2182,-0.9326,-0.0606
10.4050,-0.2182,-0.9326,-0.0606
10.4050,-0.2182,-0.9326,-0.0606
10.4060,-0.2182,-0.9326,-0.0606
10.4060,-0.2182,-0.9326,-0.0606
10.4210,-0.2182,-0.9326,-0.0606
10.4240,-0.2024,-0.9477,-0.0528
10.4240,-0.2024,-0.9477,-0.0528
10.4250,-0.2024,-0.9477,-0.0528
10.4450,-0.2180,-0.9487,-0.0491
10.4460,-0.2180,-0.9487,-0.0491
10.4460,-0.2180,-0.9487,-0.0491
10.4630,-0.2270,-0.9270,-0.0711
10.4630,-0.2270,-0.9270,-0.0711
10.4650,-0.2270,-0.9270,-0.0711
10.4840,-0.2077,-0.9282,-0.0782
10.4840,-0.2077,-0.9282,-0.0782
10.4850,-0.2077,-0.9282,-0.0782
10.4850,-0.2077,-0.9282,-0.0782
10.4860,-0.2077,-0.9282,-0.0782
10.5030,-0.1921,-0.9587,-0.0447
10.5040,-0.1921,-0.9587,-0.0447
10.5090,-0.1921,-0.9587,-0.0447
10.5250,-0.1813,-0.9502,-0.0369
10.5270,-0.1813,-0.9502,-0.0369
10.5280,-0.1813,-0.9502,-0.0369
10.5410,-0.2209,-0.9074,-0.0677
10.5420,-0.2209,-0.9074,-0.0677
10.5420,-0.2209,-0.9074,-0.0677
10.5590,-0.2852,-0.9072,-0.0824
10.5600,-0.2852,-0.9072,-0.0824
10.5600,-0.2852,-0.9072,-0.0824
10.5610,-0.2852,-0.9072,-0.0824
10.5610,-0.2852,-0.9072,-0.0824
10.5810,-0.2691,-0.9402,-0.0743
10.5820,-0.2691,-0.9402,-0.0743
10.5820,-0.2691,-0.9402,-0.0743
10.6010,-0.2236,-0.9250,-0.0731
10.6010,-0.2236,-0.9250,-0.0731
10.6020,-0.2236,-0.9250,-0.0731
10.6170,-0.2236,-0.9250,-0.0731
10.6190,-0.2280,-0.9260,-0.0565
10.6200,-0.2280,-0.9260,-0.0565
10.6200,-0.2280,-0.9260,-0.0565
10.6400,-0.2456,-0.9521,-0.0208
10.6410,-0.2456,-0.9521,-0.0208
10.6410,-0.2456,-0.9521,-0.0208
10.6410,-0.2456,-0.9521,-0.0208
10.6410,-0.2456,-0.9521,-0.0208
10.6630,-0.2317,-0.9600,-0.0176
10.6640,-0.2317,-0.9600,-0.0176
10.6640,-0.2317,-0.9600,-0.0176
10.6800,-0.2148,-0.9485,-0.0352
10.6800,-0.2148,-0.9485,-0.0352
10.6800,-0.2148,-0.9485,-0.0352
10.7000,-0.2024,-0.9328,-0.0518
10.7000,-0.2024,-0.9328,-0.0518
10.7010,-0.2024,-0.9328,-0.0518
10.7210,-0.1940,-0.9380,-0.0545
10.7210,-0.1940,-0.9380,-0.0545
10.7220,-0.1940,-0.9380,-0.0545
10.7230,-0.1940,-0.9380,-0.0545
10.7260,-0.1940,-0.9380,-0.0545
10.7450,-0.1933,-0.9517,-0.0591
10.7460,-0.1933,-0.9517,-0.0591
10.7460,-0.1933,-0.9517,-0.0591
10.7640,-0.2180,-0.9465,-0.0648
10.7650,-0.2180,-0.9465,-0.0648
10.7650,-0.2180,-0.9465,-0.0648
10.7780,-0.2331,-0.9392,-0.0560
10.7780,-0.2331,-0.9392,-0.0560
10.7790,-0.2331,-0.9392,-0.0560
10.7850,-0.2331,-0.9392,-0.0560
10.7980,-0.2258,-0.9455,-0.0626
10.7980,-0.2258,-0.9455,-0.0626
10.7980,-0.2258,-0.9455,-0.0626
10.8000,-0.2258,-0.9455,-0.0626
10.8000,-0.2258,-0.9455,-0.0626
10.8150,-0.2258,-0.9455,-0.0626
10.8200,-0.2217,-0.9463,-0.0687
10.8600,-0.2217,-0.9463,-0.0687
10.8600,-0.2217,-0.9463,-0.0687
10.8600,-0.2327,-0.9470,-0.0489
10.8600,-0.2327,-0.9470,-0.0489
10.8600,-0.2327,-0.9470,-0.0489
10.8600,-0.2529,-0.9480,-0.0266
10.8600,-0.2529,-0.9480,-0.0266
10.8600,-0.2529,-0.9480,-0.0266
10.8790,-0.2564,-0.9380,-0.0391
10.8790,-0.2564,-0.9380,-0.0391
10.8790,-0.2564,-0.9380,-0.0391
10.8800,-0.2564,-0.9380,-0.0391
10.8800,-0.2564,-0.9380,-0.0391
10.9000,-0.2361,-0.9419,-0.0430
10.9000,-0.2361,-0.9419,-0.0430
10.9010,-0.2361,-0.9419,-0.0430
10.9190,-0.1865,-0.9602,-0.0401
10.9190,-0.1865,-0.9602,-0.0401
10.9190,-0.1865,-0.9602,-0.0401
10.9390,-0.1493,-0.9553,-0.0657
10.9400,-0.1493,-0.9553,-0.0657
10.9400,-0.1493,-0.9553,-0.0657
10.9620,-0.1794,-0.9426,-0.0701
10.9630,-0.1794,-0.9426,-0.0701
10.9630,-0.1794,-0.9426,-0.0701
10.9650,-0.1794,-0.9426,-0.0701
10.9660,-0.1794,-0.9426,-0.0701
10.9800,-0.2004,-0.9294,-0.0582
10.9810,-0.2004,-0.9294,-0.0582
10.9810,-0.2004,-0.9294,-0.0582
10.9990,-0.2141,-0.9218,-0.0750
10.9990,-0.2141,-0.9218,-0.0750
10.9990,-0.2141,-0.9218,-0.0750
11.0150,-0.2141,-0.9218,-0.0750
11.0180,-0.2368,-0.9338,-0.0838
11.0190,-0.2368,-0.9338,-0.0838
11.0190,-0.2368,-0.9338,-0.0838
11.0410,-0.2275,-0.9365,-0.0863
11.0460,-0.2275,-0.9365,-0.0863
11.0470,-0.2275,-0.9365,-0.0863
11.0470,-0.2275,-0.9365,-0.0863
11.0480,-0.2275,-0.9365,-0.0863
11.0630,-0.2432,-0.9353,-0.0868
11.0630,-0.2432,-0.9353,-0.0868
11.0640,-0.2432,-0.9353,-0.0868
11.0800,-0.2358,-0.9353,-0.0670
11.0810,-0.2358,-0.9353,-0.0670
11.0820,-0.2358,-0.9353,-0.0670
11.1000,-0.2263,-0.9392,-0.0538
11.1000,-0.2263,-0.9392,-0.0538
11.1010,-0.2263,-0.9392,-0.0538
11.1190,-0.2285,-0.9407,-0.0411
11.1200,-0.2285,-0.9407,-0.0411
11.1200,-0.2285,-0.9407,-0.0411
11.1210,-0.2285,-0.9407,-0.0411
11.1210,-0.2285,-0.9407,-0.0411
11.1410,-0.2312,-0.9409,-0.0330
11.1420,-0.2312,-0.9409,-0.0330
11.1420,-0.2312,-0.9409,-0.0330
11.1580,-0.2261,-0.9502,-0.0264
11.1590,-0.2261,-0.9502,-0.0264
11.1590,-0.2261,-0.9502,-0.0264
11.1790,-0.2014,-0.9587,-0.0359
11.1800,-0.2014,-0.9587,-0.0359
11.1810,-0.2014,-0.9587,-0.0359
11.1830,-0.2014,-0.9587,-0.0359
11.1980,-0.1931,-0.9641,-0.0403
11.1990,-0.1931,-0.9641,-0.0403
11.1990,-0.1931,-0.9641,-0.0403
11.2000,-0.1931,-0.9641,-0.0403
11.2000,-0.1931,-0.9641,-0.0403
11.2130,-0.1931,-0.9641,-0.0403
11.2190,-0.2087,-0.9463,-0.0513
11.2200,-0.2087,-0.9463,-0.0513
11.2200,-0.2087,-0.9463,-0.0513
11.2390,-0.2112,-0.9297,-0.0687
11.2390,-0.2112,-0.9297,-0.0687
11.2400,-0.2112,-0.9297,-0.0687
11.2580,-0.2234,-0.9487,-0.0623
11.2580,-0.2234,-0.9487,-0.0623
11.2590,-0.2234,-0.9487,-0.0623
11.2800,-0.2102,-0.9627,-0.0543
11.2810,-0.2102,-0.9627,-0.0543
11.2840,-0.2102,-0.9627,-0.0543
11.2850,-0.2102,-0.9627,-0.0543
11.2860,-0.2102,-0.9627,-0.0543
11.3000,-0.2156,-0.9465,-0.0484
11.3010,-0.2156,-0.9465,-0.0484
11.3020,-0.2156,-0.9465,-0.0484
11.3190,-0.2265,-0.9331,-0.0281
11.3190,-0.2265,-0.9331,-0.0281
11.3200,-0.2265,-0.9331,-0.0281
11.3370,-0.2134,-0.9323,-0.0403
11.3370,-0.2134,-0.9323,-0.0403
11.3380,-0.2134,-0.9323,-0.0403
11.3640,-0.2204,-0.9333,-0.0584
11.3640,-0.2204,-0.9333,-0.0584
11.3650,-0.2204,-0.9333,-0.0584
11.3650,-0.2204,-0.9333,-0.0584
11.3660,-0.2204,-0.9333,-0.0584
11.4310,-0.2297,-0.9495,-0.0521
11.4310,-0.2297,-0.9495,-0.0521
11.4310,-0.2297,-0.9495,-0.0521
11.4320,-0.2297,-0.9495,-0.0521
11.4320,-0.2112,-0.9585,-0.0618
11.4320,-0.2112,-0.9585,-0.0618
11.4320,-0.2112,-0.9585,-0.0618
11.4320,-0.2112,-0.9585,-0.0618
11.4320,-0.2212,-0.9360,-0.0784
11.4330,-0.2212,-0.9360,-0.0784
11.4330,-0.2212,-0.9360,-0.0784
11.4340,-0.2366,-0.9316,-0.0675
11.4350,-0.2366,-0.9316,-0.0675
11.4350,-0.2366,-0.9316,-0.0675
11.4360,-0.2366,-0.9316,-0.0675
11.4360,-0.2366,-0.9316,-0.0675
11.4560,-0.2112,-0.9460,-0.0594
11.4560,-0.2112,-0.9460,-0.0594
11.4560,-0.2112,-0.9460,-0.0594
11.4740,-0.2033,-0.9502,-0.0565
11.4750,-0.2033,-0.9502,-0.0565
11.4750,-0.2033,-0.9502,-0.0565
11.4950,-0.2488,-0.9399,-0.0281
11.4950,-0.2488,-0.9399,-0.0281
11.4950,-0.2488,-0.9399,-0.0281
11.5150,-0.2583,-0.9238,-0.0098
11.5150,-0.2583,-0.9238,-0.0098
11.5150,-0.2583,-0.9238,-0.0098
11.5160,-0.2583,-0.9238,-0.0098
11.5170,-0.2583,-0.9238,-0.0098
11.5370,-0.2383,-0.9284,-0.0293
11.5370,-0.2383,-0.9284,-0.0293
11.5370,-0.2383,-0.9284,-0.0293
11.5530,-0.2011,-0.9531,-0.0506
11.5540,-0.2011,-0.9531,-0.0506
11.5540,-0.2011,-0.9531,-0.0506
11.5800,-0.1772,-0.9658,-0.0706
11.5800,-0.1772,-0.9658,-0.0706
11.5800,-0.1772,-0.9658,-0.0706
11.5950,-0.2109,-0.9563,-0.0682
11.5950,-0.2109,-0.9563,-0.0682
11.5960,-0.2109,-0.9563,-0.0682
11.5960,-0.2109,-0.9563,-0.0682
11.5960,-0.2109,-0.9563,-0.0682
11.6090,-0.2109,-0.9563,-0.0682
11.6170,-0.2319,-0.9275,-0.0574
11.6170,-0.2319,-0.9275,-0.0574
11.6170,-0.2319,-0.9275,-0.0574
11.6350,-0.2353,-0.9118,-0.0574
11.6350,-0.2353,-0.9118,-0.0574
11.6350,-0.2353,-0.9118,-0.0574
11.6550,-0.2542,-0.9201,-0.0457
11.6560,-0.2542,-0.9201,-0.0457
11.6560,-0.2542,-0.9201,-0.0457
11.6750,-0.2534,-0.9282,-0.0459
11.6760,-0.2534,-0.9282,-0.0459
11.6760,-0.2534,-0.9282,-0.0459
11.6760,-0.2534,-0.9282,-0.0459
11.6770,-0.2534,-0.9282,-0.0459
11.6970,-0.2424,-0.9350,-0.0491
11.6970,-0.2424,-0.9350,-0.0491
11.6980,-0.2424,-0.9350,-0.0491
11.7140,-0.2302,-0.9309,-0.0618
11.7140,-0.2302,-0.9309,-0.0618
11.7150,-0.2302,-0.9309,-0.0618
11.7350,-0.2246,-0.9333,-0.0589
11.7360,-0.2246,-0.9333,-0.0589
11.7360,-0.2246,-0.9333,-0.0589
11.7540,-0.2036,-0.9382,-0.0562
11.7550,-0.2036,-0.9382,-0.0562
11.7550,-0.2036,-0.9382,-0.0562
11.7560,-0.2036,-0.9382,-0.0562
11.7560,-0.2036,-0.9382,-0.0562
11.7770,-0.1882,-0.9375,-0.0523
11.7770,-0.1882,-0.9375,-0.0523
11.7780,-0.1882,-0.9375,-0.0523
11.7940,-0.2004,-0.9323,-0.0489
11.7950,-0.2004,-0.9323,-0.0489
11.7960,-0.2004,-0.9323,-0.0489
11.8090,-0.2004,-0.9323,-0.0489
11.8140,-0.2004,-0.9316,-0.0352
11.8150,-0.2004,-0.9316,-0.0352
11.8150,-0.2004,-0.9316,-0.0352
11.8340,-0.2055,-0.9546,-0.0242
11.8350,-0.2055,-0.9546,-0.0242
11.8360,-0.2055,-0.9546,-0.0242
11.8370,-0.2055,-0.9546,-0.0242
11.8370,-0.2055,-0.9546,-0.0242
11.8560,-0.1994,-0.9477,-0.0261
11.8560,-0.1994,-0.9477,-0.0261
11.8570,-0.1994,-0.9477,-0.0261
11.8730,-0.2368,-0.9079,-0.0491
11.8740,-0.2368,-0.9079,-0.0491
11.8760,-0.2368,-0.9079,-0.0491
11.8930,-0.2652,-0.8896,-0.0640
11.8930,-0.2652,-0.8896,-0.0640
11.8940,-0.2652,-0.8896,-0.0640
11.9130,-0.2302,-0.9148,-0.0748
11.9130,-0.2302,-0.9148,-0.0748
11.9140,-0.2302,-0.9148,-0.0748
12.0000,-0.2302,-0.9148,-0.0748
12.0000,-0.2302,-0.9148,-0.0748
12.0010,-0.1830,-0.9507,-0.0836
12.0010,-0.1830,-0.9507,-0.0836
12.0010,-0.1830,-0.9507,-0.0836
12.0010,-0.1975,-0.9732,-0.0833
12.0010,-0.1975,-0.9732,-0.0833
12.0020,-0.1975,-0.9732,-0.0833
12.0020,-0.2356,-0.9736,-0.0638
12.0020,-0.2356,-0.9736,-0.0638
12.0020,-0.2356,-0.9736,-0.0638
12.0020,-0.2441,-0.9529,-0.0450
12.0030,-0.2441,-0.9529,-0.0450
12.0030,-0.2441,-0.9529,-0.0450
12.0030,-0.2441,-0.9529,-0.0450
12.0030,-0.2441,-0.9529,-0.0450
12.0080,-0.2441,-0.9529,-0.0450
12.0130,-0.2410,-0.9482,-0.0164
12.0130,-0.2410,-0.9482,-0.0164
12.0130,-0.2410,-0.9482,-0.0164
12.0310,-0.2380,-0.9487,0.0112
12.0310,-0.2380,-0.9487,0.0112
12.0310,-0.2380,-0.9487,0.0112
12.0510,-0.2427,-0.9512,0.0059
12.0510,-0.2427,-0.9512,0.0059
12.0510,-0.2427,-0.9512,0.0059
12.0710,-0.2390,-0.9453,-0.0271
12.0710,-0.2390,-0.9453,-0.0271
12.0710,-0.2390,-0.9453,-0.0271
12.0720,-0.2390,-0.9453,-0.0271
12.0730,-0.2390,-0.9453,-0.0271
12.0920,-0.2256,-0.9353,-0.0667
12.0920,-0.2256,-0.9353,-0.0667
12.0920,-0.2256,-0.9353,-0.0667
12.1120,-0.2219,-0.9402,-0.0694
12.1120,-0.2219,-0.9402,-0.0694
12.1120,-0.2219,-0.9402,-0.0694
12.1310,-0.1955,-0.9558,-0.0697
12.1310,-0.1955,-0.9558,-0.0697
12.1310,-0.1955,-0.9558,-0.0697
12.1520,-0.1657,-0.9536,-0.0787
12.1520,-0.1657,-0.9536,-0.0787
12.1530,-0.1657,-0.9536,-0.0787
12.1530,-0.1657,-0.9536,-0.0787
12.1540,-0.1657,-0.9536,-0.0787
12.1740,-0.1882,-0.9429,-0.0660
12.1740,-0.1882,-0.9429,-0.0660
12.1740,-0.1882,-0.9429,-0.0660
12.1900,-0.2674,-0.9421,-0.0337
12.1910,-0.2674,-0.9421,-0.0337
12.1910,-0.2674,-0.9421,-0.0337
12.2080,-0.2674,-0.9421,-0.0337
12.2110,-0.2813,-0.9397,-0.0315
12.2120,-0.2813,-0.9397,-0.0315
12.2130,-0.2813,-0.9397,-0.0315
12.2310,-0.2476,-0.9394,-0.0389
12.2320,-0.2476,-0.9394,-0.0389
12.2320,-0.2476,-0.9394,-0.0389
12.2330,-0.2476,-0.9394,-0.0389
12.2330,-0.2476,-0.9394,-0.0389
12.2530,-0.2265,-0.9475,-0.0371
12.2560,-0.2265,-0.9475,-0.0371
12.2560,-0.2265,-0.9475,-0.0371
12.2700,-0.1997,-0.9382,-0.0440
12.2710,-0.1997,-0.9382,-0.0440
12.2720,-0.1997,-0.9382,-0.0440
12.2910,-0.2038,-0.9289,-0.0562
12.2910,-0.2038,-0.9289,-0.0562
12.2930,-0.2038,-0.9289,-0.0562
12.3130,-0.2285,-0.9348,-0.0411
12.3140,-0.2285,-0.9348,-0.0411
12.3140,-0.2285,-0.9348,-0.0411
12.3150,-0.2285,-0.9348,-0.0411
12.3160,-0.2285,-0.9348,-0.0411
12.3330,-0.2302,-0.9448,-0.0222
12.3330,-0.2302,-0.9448,-0.0222
12.3340,-0.2302,-0.9448,-0.0222
12.3500,-0.2080,-0.9397,-0.0452
12.3510,-0.2080,-0.9397,-0.0452
12.3510,-0.2080,-0.9397,-0.0452
12.3730,-0.2021,-0.9277,-0.0755
12.3750,-0.2021,-0.9277,-0.0755
12.3750,-0.2021,-0.9277,-0.0755
12.3900,-0.2248,-0.9441,-0.0719
12.3910,-0.2248,-0.9441,-0.0719
12.3920,-0.2248,-0.9441,-0.0719
12.3920,-0.2248,-0.9441,-0.0719
12.3930,-0.2248,-0.9441,-0.0719
12.4080,-0.2248,-0.9441,-0.0719
12.4130,-0.2349,-0.9600,-0.0601
12.4140,-0.2349,-0.9600,-0.0601
12.4140,-0.2349,-0.9600,-0.0601
12.4300,-0.2270,-0.9485,-0.0584
12.4310,-0.2270,-0.9485,-0.0584
12.4320,-0.2270,-0.9485,-0.0584
12.4500,-0.2085,-0.9402,-0.0503
12.4510,-0.2085,-0.9402,-0.0503
12.4520,-0.2085,-0.9402,-0.0503
12.4710,-0.2031,-0.9358,-0.0462
12.4730,-0.2031,-0.9358,-0.0462
12.5380,-0.2031,-0.9358,-0.0462
12.5380,-0.2031,-0.9358,-0.0462
12.5380,-0.2031,-0.9358,-0.0462
12.5390,-0.2229,-0.9328,-0.0501
12.5390,-0.2229,-0.9328,-0.0501
12.5390,-0.2229,-0.9328,-0.0501
12.5390,-0.2358,-0.9389,-0.0450
12.5390,-0.2358,-0.9389,-0.0450
12.5390,-0.2358,-0.9389,-0.0450
12.5390,-0.2356,-0.9436,-0.0230
12.5400,-0.2356,-0.9436,-0.0230
12.5400,-0.2356,-0.9436,-0.0230
12.5490,-0.2661,-0.9453,-0.0022
12.5490,-0.2661,-0.9453,-0.0022
12.5490,-0.2661,-0.9453,-0.0022
12.5500,-0.2661,-0.9453,-0.0022
12.5500,-0.2661,-0.9453,-0.0022
12.5710,-0.2705,-0.9455,-0.0298
12.5720,-0.2705,-0.9455,-0.0298
12.5720,-0.2705,-0.9455,-0.0298
12.5870,-0.2485,-0.9485,-0.0533
12.5870,-0.2485,-0.9485,-0.0533
12.5880,-0.2485,-0.9485,-0.0533
12.6010,-0.2485,-0.9485,-0.0533
12.6070,-0.2180,-0.9407,-0.0462
12.6070,-0.2180,-0.9407,-0.0462
12.6070,-0.2180,-0.9407,-0.0462
12.6270,-0.2080,-0.9326,-0.0472
12.6270,-0.2080,-0.9326,-0.0472
12.6280,-0.2080,-0.9326,-0.0472
12.6290,-0.2080,-0.9326,-0.0472
12.6290,-0.2080,-0.9326,-0.0472
12.6500,-0.2102,-0.9343,-0.0704
12.6500,-0.2102,-0.9343,-0.0704
12.6500,-0.2102,-0.9343,-0.0704
12.6670,-0.2104,-0.9382,-0.0455
12.6670,-0.2104,-0.9382,-0.0455
12.6670,-0.2104,-0.9382,-0.0455
12.6870,-0.1962,-0.9460,-0.0325
12.6870,-0.1962,-0.9460,-0.0325
12.6870,-0.1962,-0.9460,-0.0325
12.7070,-0.1833,-0.9355,-0.0572
12.7070,-0.1833,-0.9355,-0.0572
12.7070,-0.1833,-0.9355,-0.0572
12.7090,-0.1833,-0.9355,-0.0572
12.7090,-0.1833,-0.9355,-0.0572
12.7290,-0.2246,-0.9179,-0.0555
12.7300,-0.2246,-0.9179,-0.0555
12.7300,-0.2246,-0.9179,-0.0555
12.7480,-0.2564,-0.9233,-0.0496
12.7480,-0.2564,-0.9233,-0.0496
12.7490,-0.2564,-0.9233,-0.0496
12.7670,-0.2512,-0.9345,-0.0728
12.7670,-0.2512,-0.9345,-0.0728
12.7670,-0.2512,-0.9345,-0.0728
12.7880,-0.2251,-0.9338,-0.0706
12.7890,-0.2251,-0.9338,-0.0706
12.7890,-0.2251,-0.9338,-0.0706
12.7900,-0.2251,-0.9338,-0.0706
12.7900,-0.2251,-0.9338,-0.0706
12.8030,-0.2251,-0.9338,-0.0706
12.8090,-0.2002,-0.9223,-0.0711
12.8090,-0.2002,-0.9223,-0.0711
12.8100,-0.2002,-0.9223,-0.0711
12.8270,-0.1965,-0.9326,-0.0648
12.8280,-0.1965,-0.9326,-0.0648
12.8290,-0.1965,-0.9326,-0.0648
12.8460,-0.2339,-0.9646,-0.0354
12.8470,-0.2339,-0.9646,-0.0354
12.8470,-0.2339,-0.9646,-0.0354
12.8660,-0.2441,-0.9680,-0.0144
12.8670,-0.2441,-0.9680,-0.0144
12.8670,-0.2441,-0.9680,-0.0144
12.8690,-0.2441,-0.9680,-0.0144
12.8690,-0.2441,-0.9680,-0.0144
12.8890,-0.2368,-0.9490,-0.0130
12.8890,-0.2368,-0.9490,-0.0130
12.8900,-0.2368,-0.9490,-0.0130
12.9070,-0.2339,-0.9292,-0.0169
12.9070,-0.2339,-0.9292,-0.0169
12.9100,-0.2339,-0.9292,-0.0169
12.9270,-0.2520,-0.9399,-0.0174
12.9270,-0.2520,-0.9399,-0.0174
12.9280,-0.2520,-0.9399,-0.0174
12.9480,-0.2380,-0.9519,-0.0254
12.9490,-0.2380,-0.9519,-0.0254
12.9490,-0.2380,-0.9519,-0.0254
12.9500,-0.2380,-0.9519,-0.0254
12.9510,-0.2380,-0.9519,-0.0254
12.9690,-0.2075,-0.9475,-0.0455
12.9700,-0.2075,-0.9475,-0.0455
12.9700,-0.2075,-0.9475,-0.0455
12.9880,-0.1953,-0.9499,-0.0643
12.9880,-0.1953,-0.9499,-0.0643
12.9890,-0.1953,-0.9499,-0.0643
13.0020,-0.1953,-0.9499,-0.0643
13.0070,-0.1982,-0.9570,-0.0660
13.0080,-0.1982,-0.9570,-0.0660
13.0090,-0.1982,-0.9570,-0.0660
13.0260,-0.1989,-0.9524,-0.0682
13.0870,-0.1989,-0.9524,-0.0682
13.0870,-0.1989,-0.9524,-0.0682
13.0880,-0.1989,-0.9524,-0.0682
13.0880,-0.1989,-0.9524,-0.0682
13.0880,-0.2043,-0.9473,-0.0596
13.0880,-0.2043,-0.9473,-0.0596
13.0890,-0.2043,-0.9473,-0.0596
13.0890,-0.2356,-0.9509,-0.0198
13.0890,-0.2356,-0.9509,-0.0198
13.0890,-0.2356,-0.9509,-0.0198
13.0890,-0.2490,-0.9421,-0.0093
13.0890,-0.2490,-0.9421,-0.0093
13.0900,-0.2490,-0.9421,-0.0093
13.1050,-0.2441,-0.9265,-0.0430
13.1050,-0.2441,-0.9265,-0.0430
13.1050,-0.2441,-0.9265,-0.0430
13.1060,-0.2441,-0.9265,-0.0430
13.1060,-0.2441,-0.9265,-0.0430
13.1270,-0.2356,-0.9284,-0.0452
13.1270,-0.2356,-0.9284,-0.0452
13.1270,-0.2356,-0.9284,-0.0452
13.1450,-0.2175,-0.9451,-0.0276
13.1450,-0.2175,-0.9451,-0.0276
13.1460,-0.2175,-0.9451,-0.0276
13.1650,-0.1813,-0.9507,-0.0389
13.1650,-0.1813,-0.9507,-0.0389
13.1650,-0.1813,-0.9507,-0.0389
13.1840,-0.1835,-0.9426,-0.0655
13.1840,-0.1835,-0.9426,-0.0655
13.1850,-0.1835,-0.9426,-0.0655
13.1860,-0.1835,-0.9426,-0.0655
13.1860,-0.1835,-0.9426,-0.0655
13.1970,-0.1835,-0.9426,-0.0655
13.2060,-0.2048,-0.9407,-0.0613
13.2060,-0.2048,-0.9407,-0.0613
13.2060,-0.2048,-0.9407,-0.0613
13.2240,-0.2248,-0.9385,-0.0574
13.2240,-0.2248,-0.9385,-0.0574
13.2240,-0.2248,-0.9385,-0.0574
13.2450,-0.2400,-0.9216,-0.0667
13.2450,-0.2400,-0.9216,-0.0667
13.2450,-0.2400,-0.9216,-0.0667
13.2650,-0.2361,-0.9172,-0.0748
13.2660,-0.2361,-0.9172,-0.0748
13.2660,-0.2361,-0.9172,-0.0748
13.2660,-0.2361,-0.9172,-0.0748
13.2670,-0.2361,-0.9172,-0.0748
13.2840,-0.2219,-0.9235,-0.0789
13.2840,-0.2219,-0.9235,-0.0789
13.2850,-0.2219,-0.9235,-0.0789
13.3050,-0.2116,-0.9392,-0.0609
13.3050,-0.2116,-0.9392,-0.0609
13.3050,-0.2116,-0.9392,-0.0609
13.3260,-0.2231,-0.9411,-0.0459
13.3260,-0.2231,-0.9411,-0.0459
13.3260,-0.2231,-0.9411,-0.0459
13.3460,-0.2449,-0.9294,-0.0305
13.3460,-0.2449,-0.9294,-0.0305
13.3460,-0.2449,-0.9294,-0.0305
13.3460,-0.2449,-0.9294,-0.0305
13.3470,-0.2449,-0.9294,-0.0305
13.3690,-0.2698,-0.9387,0.0032
13.3690,-0.2698,-0.9387,0.0032
13.3700,-0.2698,-0.9387,0.0032
13.3850,-0.2625,-0.9546,0.0064
13.3860,-0.2625,-0.9546,0.0064
13.3860,-0.2625,-0.9546,0.0064
13.3990,-0.2625,-0.9546,0.0064
13.4050,-0.2356,-0.9546,-0.0176
13.4060,-0.2356,-0.9546,-0.0176
13.4060,-0.2356,-0.9546,-0.0176
13.4270,-0.2021,-0.9565,-0.0313
13.4290,-0.2021,-0.9565,-0.0313
13.4290,-0.2021,-0.9565,-0.0313
13.4300,-0.2021,-0.9565,-0.0313
13.4300,-0.2021,-0.9565,-0.0313
13.4490,-0.1850,-0.9595,-0.0391
13.4500,-0.1850,-0.9595,-0.0391
13.4510,-0.1850,-0.9595,-0.0391
13.4680,-0.1982,-0.9546,-0.0393
13.4690,-0.1982,-0.9546,-0.0393
13.4690,-0.1982,-0.9546,-0.0393
13.4860,-0.2322,-0.9455,-0.0269
13.4870,-0.2322,-0.9455,-0.0269
13.4880,-0.2322,-0.9455,-0.0269
13.5040,-0.2334,-0.9409,-0.0374
13.5050,-0.2334,-0.9409,-0.0374
13.5060,-0.2334,-0.9409,-0.0374
13.5060,-0.2334,-0.9409,-0.0374
13.5090,-0.2334,-0.9409,-0.0374
13.5270,-0.2178,-0.9394,-0.0494
13.5290,-0.2178,-0.9394,-0.0494
13.5290,-0.2178,-0.9394,-0.0494
13.5470,-0.2300,-0.9492,-0.0452
13.5490,-0.2300,-0.9492,-0.0452
13.5500,-0.2300,-0.9492,-0.0452
13.5650,-0.2432,-0.9497,-0.0376
13.5670,-0.2432,-0.9497,-0.0376
13.5670,-0.2432,-0.9497,-0.0376
13.5860,-0.2363,-0.9404,-0.0259
13.6630,-0.2363,-0.9404,-0.0259
13.6640,-0.2363,-0.9404,-0.0259
13.6640,-0.2363,-0.9404,-0.0259
13.6640,-0.2363,-0.9404,-0.0259
13.6650,-0.2363,-0.9404,-0.0259
13.6650,-0.2231,-0.9338,-0.0340
13.6650,-0.2231,-0.9338,-0.0340
13.6650,-0.2231,-0.9338,-0.0340
13.6650,-0.2075,-0.9377,-0.0472
13.6660,-0.2075,-0.9377,-0.0472
13.6660,-0.2075,-0.9377,-0.0472
13.6660,-0.2104,-0.9319,-0.0562
13.6660,-0.2104,-0.9319,-0.0562
13.6660,-0.2104,-0.9319,-0.0562
13.6660,-0.2671,-0.9297,-0.0860
13.6670,-0.2671,-0.9297,-0.0860
13.6670,-0.2671,-0.9297,-0.0860
13.6670,-0.2671,-0.9297,-0.0860
13.6670,-0.2671,-0.9297,-0.0860
13.6820,-0.3060,-0.9365,-0.0921
13.6820,-0.3060,-0.9365,-0.0921
13.6830,-0.3060,-0.9365,-0.0921
13.7070,-0.1997,-0.9827,0.0034
13.7070,-0.1997,-0.9827,0.0034
13.7070,-0.1997,-0.9827,0.0034
13.7230,-0.1848,-0.9431,-0.0540
13.7230,-0.1848,-0.9431,-0.0540
13.7230,-0.1848,-0.9431,-0.0540
13.7410,-0.1760,-0.9150,-0.0665
13.7410,-0.1760,-0.9150,-0.0665
13.7410,-0.1760,-0.9150,-0.0665
13.7430,-0.1760,-0.9150,-0.0665
13.7430,-0.1760,-0.9150,-0.0665
13.7610,-0.2006,-0.9162,-0.0484
13.7610,-0.2006,-0.9162,-0.0484
13.7610,-0.2006,-0.9162,-0.0484
13.7820,-0.2476,-0.9091,-0.0464
13.7820,-0.2476,-0.9091,-0.0464
13.7820,-0.2476,-0.9091,-0.0464
13.7920,-0.2476,-0.9091,-0.0464
13.8020,-0.2173,-0.9138,-0.0645
13.8020,-0.2173,-0.9138,-0.0645
13.8020,-0.2173,-0.9138,-0.0645
13.8200,-0.1862,-0.9341,-0.0721
13.8200,-0.1862,-0.9341,-0.0721
13.8200,-0.1862,-0.9341,-0.0721
13.8200,-0.1862,-0.9341,-0.0721
13.8430,-0.1896,-0.9541,-0.0433
13.8430,-0.1896,-0.9541,-0.0433
13.8430,-0.1896,-0.9541,-0.0433
13.8590,-0.2121,-0.9536,-0.0196
13.8600,-0.2121,-0.9536,-0.0196
13.8600,-0.2121,-0.9536,-0.0196
13.8810,-0.2551,-0.9145,-0.0325
13.8810,-0.2551,-0.9145,-0.0325
13.8810,-0.2551,-0.9145,-0.0325
13.9010,-0.2764,-0.9003,-0.0503
13.9010,-0.2764,-0.9003,-0.0503
13.9010,-0.2764,-0.9003,-0.0503
13.9030,-0.2764,-0.9003,-0.0503
13.9030,-0.2764,-0.9003,-0.0503
13.9210,-0.2478,-0.9397,-0.0589
13.9210,-0.2478,-0.9397,-0.0589
13.9210,-0.2478,-0.9397,-0.0589
13.9410,-0.2351,-0.9824,-0.0447
13.9410,-0.2351,-0.9824,-0.0447
13.9420,-0.2351,-0.9824,-0.0447
13.9620,-0.2231,-0.9785,-0.0354
13.9620,-0.2231,-0.9785,-0.0354
13.9620,-0.2231,-0.9785,-0.0354
13.9810,-0.2349,-0.9575,-0.0430
13.9810,-0.2349,-0.9575,-0.0430
13.9810,-0.2349,-0.9575,-0.0430
13.9830,-0.2349,-0.9575,-0.0430
13.9840,-0.2349,-0.9575,-0.0430
13.9930,-0.2349,-0.9575,-0.0430
14.0020,-0.2202,-0.9487,-0.0305
14.0030,-0.2202,-0.9487,-0.0305
14.0030,-0.2202,-0.9487,-0.0305
14.0220,-0.2109,-0.9463,-0.0215
14.0220,-0.2109,-0.9463,-0.0215
14.0230,-0.2109,-0.9463,-0.0215
14.0410,-0.2148,-0.9409,-0.0291
14.0420,-0.2148,-0.9409,-0.0291
14.0420,-0.2148,-0.9409,-0.0291
14.0620,-0.2036,-0.9358,-0.0357
14.0620,-0.2036,-0.9358,-0.0357
14.0630,-0.2036,-0.9358,-0.0357
14.0650,-0.2036,-0.9358,-0.0357
14.0660,-0.2036,-0.9358,-0.0357
14.0810,-0.2085,-0.9277,-0.0455
14.0820,-0.2085,-0.9277,-0.0455
14.0820,-0.2085,-0.9277,-0.0455
14.1010,-0.2165,-0.9248,-0.0516
14.1020,-0.2165,-0.9248,-0.0516
14.1020,-0.2165,-0.9248,-0.0516
14.1200,-0.2173,-0.9387,-0.0579
14.1210,-0.2173,-0.9387,-0.0579
14.1210,-0.2173,-0.9387,-0.0579
14.1410,-0.2280,-0.9595,-0.0560
14.1970,-0.2280,-0.9595,-0.0560
14.1970,-0.2280,-0.9595,-0.0560
14.1970,-0.2280,-0.9595,-0.0560
14.1970,-0.2280,-0.9595,-0.0560
14.1980,-0.2239,-0.9526,-0.0618
14.1980,-0.2239,-0.9526,-0.0618
14.1990,-0.2239,-0.9526,-0.0618
14.1990,-0.2285,-0.9443,-0.0462
14.1990,-0.2285,-0.9443,-0.0462
14.1990,-0.2285,-0.9443,-0.0462
14.1990,-0.2285,-0.9443,-0.0462
14.1990,-0.2285,-0.9443,-0.0462
14.2070,-0.2529,-0.9394,-0.0325
14.2080,-0.2529,-0.9394,-0.0325
14.2080,-0.2529,-0.9394,-0.0325
14.2180,-0.2517,-0.9404,-0.0371
14.2180,-0.2517,-0.9404,-0.0371
14.2210,-0.2517,-0.9404,-0.0371
14.2210,-0.2517,-0.9404,-0.0371
14.2390,-0.2082,-0.9419,-0.0516
14.2390,-0.2082,-0.9419,-0.0516
14.2390,-0.2082,-0.9419,-0.0516
14.2570,-0.2136,-0.9517,-0.0533
14.2580,-0.2136,-0.9517,-0.0533
14.2580,-0.2136,-0.9517,-0.0533
14.2800,-0.2072,-0.9548,-0.0489
14.2800,-0.2072,-0.9548,-0.0489
14.2800,-0.2072,-0.9548,-0.0489
14.2970,-0.1899,-0.9363,-0.0653
14.2970,-0.1899,-0.9363,-0.0653
14.2970,-0.1899,-0.9363,-0.0653
14.3000,-0.1899,-0.9363,-0.0653
14.3000,-0.1899,-0.9363,-0.0653
14.3180,-0.2217,-0.9235,-0.0714
14.3180,-0.2217,-0.9235,-0.0714
14.3180,-0.2217,-0.9235,-0.0714
14.3360,-0.2207,-0.9253,-0.0555
14.3360,-0.2207,-0.9253,-0.0555
14.3370,-0.2207,-0.9253,-0.0555
14.3560,-0.2224,-0.9316,-0.0675
14.3560,-0.2224,-0.9316,-0.0675
14.3570,-0.2224,-0.9316,-0.0675
14.3770,-0.2246,-0.9243,-0.0811
14.3770,-0.2246,-0.9243,-0.0811
14.3770,-0.2246,-0.9243,-0.0811
14.3790,-0.2246,-0.9243,-0.0811
14.3800,-0.2246,-0.9243,-0.0811
14.3870,-0.2246,-0.9243,-0.0811
14.3980,-0.2219,-0.9165,-0.0870
14.3980,-0.2219,-0.9165,-0.0870
14.3990,-0.2219,-0.9165,-0.0870
14.4170,-0.2265,-0.9250,-0.0946
14.4170,-0.2265,-0.9250,-0.0946
14.4170,-0.2265,-0.9250,-0.0946
14.4350,-0.2026,-0.9436,-0.1002
14.4360,-0.2026,-0.9436,-0.1002
14.4360,-0.2026,-0.9436,-0.1002
14.4570,-0.2033,-0.9419,-0.0978
14.4570,-0.2033,-0.9419,-0.0978
14.4570,-0.2033,-0.9419,-0.0978
14.4600,-0.2033,-0.9419,-0.0978
14.4600,-0.2033,-0.9419,-0.0978
14.4770,-0.2351,-0.9245,-0.0963
14.4770,-0.2351,-0.9245,-0.0963
14.4780,-0.2351,-0.9245,-0.0963
14.4960,-0.2385,-0.9380,-0.0853
14.4960,-0.2385,-0.9380,-0.0853
14.4960,-0.2385,-0.9380,-0.0853
14.5160,-0.2569,-0.9394,-0.0704
14.5160,-0.2569,-0.9394,-0.0704
14.5160,-0.2569,-0.9394,-0.0704
14.5360,-0.2637,-0.9411,-0.0648
14.5370,-0.2637,-0.9411,-0.0648
14.5370,-0.2637,-0.9411,-0.0648
14.5390,-0.2637,-0.9411,-0.0648
14.5390,-0.2637,-0.9411,-0.0648
14.5560,-0.2336,-0.9419,-0.0728
14.5560,-0.2336,-0.9419,-0.0728
14.5560,-0.2336,-0.9419,-0.0728
14.5760,-0.2246,-0.9446,-0.0863
14.5760,-0.2246,-0.9446,-0.0863
14.5760,-0.2246,-0.9446,-0.0863
14.5860,-0.2246,-0.9446,-0.0863
14.5970,-0.2454,-0.9301,-0.0772
14.5970,-0.2454,-0.9301,-0.0772
14.5970,-0.2454,-0.9301,-0.0772
14.6160,-0.2412,-0.9421,-0.0631
14.6160,-0.2412,-0.9421,-0.0631
14.6160,-0.2412,-0.9421,-0.0631
14.6210,-0.2412,-0.9421,-0.0631
14.6210,-0.2412,-0.9421,-0.0631
14.6360,-0.2468,-0.9382,-0.0545
14.6360,-0.2468,-0.9382,-0.0545
14.6360,-0.2468,-0.9382,-0.0545
14.6560,-0.2239,-0.9314,-0.0645
14.6560,-0.2239,-0.9314,-0.0645
14.6560,-0.2239,-0.9314,-0.0645
14.6770,-0.2021,-0.9228,-0.0684
14.6770,-0.2021,-0.9228,-0.0684
14.6770,-0.2021,-0.9228,-0.0684
14.7100,-0.2405,-0.9113,-0.0513
14.7110,-0.2405,-0.9113,-0.0513
14.7110,-0.2405,-0.9113,-0.0513
14.7110,-0.2405,-0.9113,-0.0513
14.7120,-0.2405,-0.9113,-0.0513
14.7150,-0.2913,-0.9113,-0.0232
14.7150,-0.2913,-0.9113,-0.0232
14.7160,-0.2913,-0.9113,-0.0232
14.7350,-0.2911,-0.9265,0.0073
14.7360,-0.2911,-0.9265,0.0073
14.7360,-0.2911,-0.9265,0.0073
14.7550,-0.2813,-0.9553,0.0545
14.7560,-0.2813,-0.9553,0.0545
14.7560,-0.2813,-0.9553,0.0545
14.7750,-0.2977,-0.9580,0.0450
14.7760,-0.2977,-0.9580,0.0450
14.7760,-0.2977,-0.9580,0.0450
14.7770,-0.2977,-0.9580,0.0450
14.7770,-0.2977,-0.9580,0.0450
